2D Measure spectrum data V5.74

<< MEASURE 1 >>
Data count = 2048
Exposure time = 30000 msec
Average = 10
Inspected time = 2020/10/25 16:21

Wave-dcm-1,Dark spec.  ,Spectrum
    108.17,  2206.50000,   711.60000
    108.66,  2212.50000,   704.70000
    109.15,  2230.90000,   688.10000
    109.65,  2240.10000,   681.50000
    110.14,  2249.90000,   669.60000
    110.63,  2260.70000,   660.00000
    111.13,  2246.60000,   673.20000
    111.62,  2259.40000,   657.90000
    112.11,  2282.60000,   653.30000
    112.60,  2268.40000,   670.20000
    113.10,  2291.60000,   646.00000
    113.59,  2310.10000,   648.00000
    114.08,  2296.40000,   663.40000
    114.58,  2339.50000,   625.90000
    115.07,  2353.20000,   648.50000
    115.56,  2341.90000,   665.10000
    116.06,  2346.70000,   654.30000
    116.55,  2337.10000,   670.60000
    117.04,  2315.60000,   672.70000
    117.53,  2345.50000,   639.60000
    118.03,  2357.20000,   658.10000
    118.52,  2353.30000,   674.50000
    119.01,  2444.30000,   618.20000
    119.51,  2530.30000,   636.30000
    120.00,  2564.50000,   681.60000
    120.49,  2561.50000,   717.00000
    120.98,  2484.20000,   773.40000
    121.48,  2378.10000,   808.00000
    121.97,  2365.10000,   763.40000
    122.46,  2390.50000,   762.50000
    122.95,  2426.80000,   774.70000
    123.45,  2435.10000,   802.90000
    123.94,  2454.10000,   813.80000
    124.43,  2487.40000,   830.00000
    124.92,  2483.80000,   861.80000
    125.42,  2503.00000,   871.00000
    125.91,  2493.90000,   899.40000
    126.40,  2465.30000,   922.30000
    126.89,  2448.10000,   937.40000
    127.39,  2443.80000,   945.30000
    127.88,  2442.80000,   951.70000
    128.37,  2468.40000,   950.60000
    128.86,  2469.80000,   975.10000
    129.35,  2477.30000,   990.60000
    129.85,  2468.70000,  1027.70000
    130.34,  2467.10000,  1043.20000
    130.83,  2473.10000,  1050.60000
    131.32,  2477.60000,  1057.10000
    131.81,  2478.40000,  1058.00000
    132.31,  2477.40000,  1060.50000
    132.80,  2464.70000,  1071.20000
    133.29,  2468.30000,  1070.80000
    133.78,  2486.60000,  1068.10000
    134.27,  2497.00000,  1089.50000
    134.77,  2517.00000,  1094.00000
    135.26,  2514.90000,  1118.20000
    135.75,  2527.40000,  1124.00000
    136.24,  2508.20000,  1164.20000
    136.73,  2524.10000,  1149.20000
    137.23,  2509.90000,  1178.80000
    137.72,  2502.60000,  1184.10000
    138.21,  2495.10000,  1187.40000
    138.70,  2534.90000,  1164.30000
    139.19,  2529.40000,  1195.90000
    139.68,  2535.50000,  1187.70000
    140.18,  2542.70000,  1189.70000
    140.67,  2539.10000,  1207.10000
    141.16,  2534.30000,  1208.50000
    141.65,  2539.60000,  1206.90000
    142.14,  2561.20000,  1201.30000
    142.63,  2563.90000,  1227.10000
    143.13,  2595.00000,  1228.50000
    143.62,  2592.30000,  1279.50000
    144.11,  2555.10000,  1306.90000
    144.60,  2536.30000,  1307.90000
    145.09,  2583.30000,  1278.40000
    145.58,  2602.20000,  1298.70000
    146.07,  2611.90000,  1307.00000
    146.56,  2608.80000,  1322.50000
    147.06,  2578.60000,  1337.70000
    147.55,  2532.10000,  1368.80000
    148.04,  2561.20000,  1347.00000
    148.53,  2541.00000,  1398.20000
    149.02,  2613.00000,  1355.90000
    149.51,  2670.10000,  1377.70000
    150.00,  2698.70000,  1401.80000
    150.49,  2690.80000,  1444.50000
    150.99,  2671.30000,  1472.20000
    151.48,  2585.90000,  1544.00000
    151.97,  2586.30000,  1521.30000
    152.46,  2571.00000,  1568.00000
    152.95,  2579.70000,  1555.10000
    153.44,  2600.20000,  1546.90000
    153.93,  2622.80000,  1535.90000
    154.42,  2608.10000,  1552.40000
    154.91,  2593.50000,  1544.80000
    155.40,  2574.00000,  1563.30000
    155.89,  2584.00000,  1549.90000
    156.39,  2557.70000,  1580.10000
    156.88,  2569.70000,  1570.80000
    157.37,  2585.90000,  1577.30000
    157.86,  2599.10000,  1588.10000
    158.35,  2618.00000,  1611.30000
    158.84,  2661.40000,  1617.10000
    159.33,  2669.50000,  1657.70000
    159.82,  2677.40000,  1682.40000
    160.31,  2707.70000,  1687.70000
    160.80,  2660.10000,  1744.50000
    161.29,  2628.40000,  1744.80000
    161.78,  2599.50000,  1743.10000
    162.27,  2593.80000,  1724.60000
    162.76,  2600.00000,  1717.10000
    163.25,  2629.80000,  1711.50000
    163.74,  2633.10000,  1732.50000
    164.23,  2655.90000,  1737.60000
    164.72,  2634.80000,  1785.30000
    165.21,  2615.00000,  1800.90000
    165.70,  2649.50000,  1786.70000
    166.20,  2670.90000,  1811.40000
    166.69,  2684.30000,  1821.60000
    167.18,  2687.50000,  1833.70000
    167.67,  2662.80000,  1843.20000
    168.16,  2618.70000,  1841.70000
    168.65,  2645.00000,  1777.90000
    169.14,  2644.90000,  1779.90000
    169.63,  2628.30000,  1778.00000
    170.12,  2615.50000,  1765.50000
    170.61,  2665.60000,  1710.40000
    171.10,  2668.60000,  1728.20000
    171.59,  2683.90000,  1705.40000
    172.08,  2686.40000,  1714.50000
    172.57,  2678.40000,  1725.70000
    173.06,  2655.50000,  1739.70000
    173.55,  2635.90000,  1750.00000
    174.04,  2627.70000,  1745.10000
    174.53,  2625.00000,  1743.50000
    175.02,  2655.40000,  1722.30000
    175.50,  2690.20000,  1708.20000
    175.99,  2724.00000,  1695.80000
    176.48,  2698.70000,  1722.50000
    176.97,  2690.00000,  1700.70000
    177.46,  2659.70000,  1714.10000
    177.95,  2642.30000,  1704.10000
    178.44,  2625.30000,  1700.90000
    178.93,  2647.00000,  1678.70000
    179.42,  2660.20000,  1687.80000
    179.91,  2662.20000,  1703.30000
    180.40,  2672.50000,  1715.60000
    180.89,  2666.70000,  1726.00000
    181.38,  2664.00000,  1723.60000
    181.87,  2657.00000,  1737.90000
    182.36,  2626.50000,  1765.50000
    182.85,  2639.40000,  1748.20000
    183.34,  2646.50000,  1755.50000
    183.83,  2642.30000,  1751.10000
    184.32,  2698.00000,  1706.30000
    184.81,  2727.20000,  1698.30000
    185.29,  2723.80000,  1684.80000
    185.78,  2752.30000,  1632.40000
    186.27,  2762.40000,  1604.40000
    186.76,  2736.00000,  1598.50000
    187.25,  2788.50000,  1554.80000
    187.74,  2790.30000,  1606.90000
    188.23,  2778.60000,  1657.70000
    188.72,  2740.00000,  1724.40000
    189.21,  2708.40000,  1746.60000
    189.70,  2675.30000,  1751.30000
    190.19,  2664.60000,  1737.30000
    190.67,  2655.30000,  1742.70000
    191.16,  2656.60000,  1738.90000
    191.65,  2643.60000,  1756.50000
    192.14,  2670.90000,  1722.60000
    192.63,  2683.60000,  1731.70000
    193.12,  2675.80000,  1740.30000
    193.61,  2695.50000,  1719.60000
    194.10,  2698.40000,  1719.80000
    194.59,  2695.70000,  1715.30000
    195.07,  2713.10000,  1686.30000
    195.56,  2686.50000,  1713.20000
    196.05,  2663.20000,  1717.00000
    196.54,  2676.70000,  1701.60000
    197.03,  2716.40000,  1696.50000
    197.52,  2726.70000,  1714.40000
    198.01,  2734.60000,  1708.10000
    198.49,  2726.70000,  1713.80000
    198.98,  2682.30000,  1736.60000
    199.47,  2670.10000,  1715.60000
    199.96,  2682.10000,  1695.00000
    200.45,  2659.50000,  1712.50000
    200.94,  2664.50000,  1686.80000
    201.43,  2657.10000,  1691.80000
    201.91,  2649.80000,  1692.10000
    202.40,  2654.20000,  1690.80000
    202.89,  2672.70000,  1678.80000
    203.38,  2670.10000,  1699.50000
    203.87,  2659.90000,  1706.00000
    204.36,  2657.40000,  1696.40000
    204.84,  2674.20000,  1681.70000
    205.33,  2690.90000,  1688.60000
    205.82,  2684.90000,  1701.10000
    206.31,  2686.70000,  1705.40000
    206.80,  2689.80000,  1717.30000
    207.28,  2698.00000,  1715.10000
    207.77,  2703.00000,  1727.20000
    208.26,  2708.60000,  1736.10000
    208.75,  2684.20000,  1754.10000
    209.24,  2701.10000,  1739.00000
    209.72,  2713.50000,  1752.30000
    210.21,  2699.20000,  1771.60000
    210.70,  2717.50000,  1766.30000
    211.19,  2729.90000,  1781.40000
    211.68,  2731.50000,  1801.50000
    212.16,  2736.50000,  1823.70000
    212.65,  2715.10000,  1849.90000
    213.14,  2702.60000,  1857.60000
    213.63,  2685.20000,  1873.80000
    214.12,  2698.00000,  1870.30000
    214.60,  2715.50000,  1875.20000
    215.09,  2722.10000,  1890.20000
    215.58,  2714.40000,  1895.40000
    216.07,  2717.90000,  1905.50000
    216.55,  2652.50000,  1970.40000
    217.04,  2643.90000,  1965.30000
    217.53,  2637.60000,  1982.20000
    218.02,  2652.30000,  1988.00000
    218.50,  2672.30000,  1995.10000
    218.99,  2701.80000,  2007.50000
    219.48,  2671.10000,  2066.10000
    219.97,  2681.60000,  2063.50000
    220.45,  2677.00000,  2086.10000
    220.94,  2695.20000,  2079.20000
    221.43,  2719.20000,  2081.80000
    221.92,  2722.70000,  2095.90000
    222.40,  2705.10000,  2113.10000
    222.89,  2728.20000,  2086.80000
    223.38,  2742.80000,  2092.80000
    223.86,  2762.10000,  2086.40000
    224.35,  2764.20000,  2095.20000
    224.84,  2746.00000,  2107.70000
    225.33,  2708.10000,  2121.80000
    225.81,  2694.90000,  2081.00000
    226.30,  2689.70000,  2054.60000
    226.79,  2680.10000,  2041.40000
    227.27,  2682.10000,  2017.40000
    227.76,  2703.40000,  2003.80000
    228.25,  2724.90000,  1996.50000
    228.74,  2741.50000,  1968.50000
    229.22,  2738.30000,  1945.40000
    229.71,  2718.00000,  1925.10000
    230.20,  2710.20000,  1888.00000
    230.68,  2696.80000,  1866.30000
    231.17,  2684.20000,  1844.20000
    231.66,  2678.70000,  1809.60000
    232.14,  2670.70000,  1788.80000
    232.63,  2688.60000,  1753.10000
    233.12,  2709.30000,  1733.50000
    233.60,  2690.10000,  1731.50000
    234.09,  2673.90000,  1711.20000
    234.58,  2672.60000,  1685.40000
    235.06,  2671.80000,  1679.80000
    235.55,  2669.20000,  1663.60000
    236.04,  2690.50000,  1642.60000
    236.52,  2675.80000,  1639.20000
    237.01,  2703.60000,  1595.10000
    237.50,  2695.90000,  1610.20000
    237.98,  2755.00000,  1558.90000
    238.47,  2757.90000,  1588.30000
    238.96,  2751.40000,  1597.90000
    239.44,  2748.80000,  1584.90000
    239.93,  2711.70000,  1591.20000
    240.41,  2644.60000,  1595.20000
    240.90,  2670.40000,  1522.60000
    241.39,  2707.80000,  1514.60000
    241.87,  2724.40000,  1525.90000
    242.36,  2771.70000,  1509.10000
    242.85,  2764.40000,  1539.20000
    243.33,  2736.40000,  1549.40000
    243.82,  2710.20000,  1536.90000
    244.30,  2719.50000,  1501.40000
    244.79,  2701.30000,  1512.80000
    245.28,  2695.00000,  1514.60000
    245.76,  2677.40000,  1532.80000
    246.25,  2696.90000,  1520.00000
    246.74,  2724.90000,  1506.50000
    247.22,  2729.70000,  1503.50000
    247.71,  2718.70000,  1504.10000
    248.19,  2720.10000,  1495.30000
    248.68,  2683.80000,  1519.60000
    249.16,  2715.40000,  1487.40000
    249.65,  2730.00000,  1493.90000
    250.14,  2704.00000,  1509.50000
    250.62,  2677.80000,  1512.80000
    251.11,  2662.70000,  1508.40000
    251.59,  2650.40000,  1510.80000
    252.08,  2670.80000,  1485.20000
    252.57,  2679.60000,  1484.60000
    253.05,  2719.80000,  1457.00000
    253.54,  2748.80000,  1468.40000
    254.02,  2746.70000,  1495.60000
    254.51,  2743.10000,  1515.30000
    254.99,  2706.20000,  1536.70000
    255.48,  2675.80000,  1535.90000
    255.96,  2706.50000,  1484.00000
    256.45,  2716.70000,  1481.50000
    256.94,  2705.70000,  1488.00000
    257.42,  2713.40000,  1493.60000
    257.91,  2706.20000,  1518.40000
    258.39,  2689.20000,  1536.40000
    258.88,  2710.90000,  1509.70000
    259.36,  2708.40000,  1519.80000
    259.85,  2721.50000,  1512.40000
    260.33,  2746.40000,  1499.50000
    260.82,  2756.30000,  1506.10000
    261.30,  2727.60000,  1524.50000
    261.79,  2709.10000,  1520.00000
    262.27,  2688.60000,  1527.50000
    262.76,  2691.20000,  1528.40000
    263.24,  2718.20000,  1515.70000
    263.73,  2712.80000,  1544.20000
    264.22,  2776.00000,  1506.10000
    264.70,  2801.30000,  1530.30000
    265.19,  2797.30000,  1552.50000
    265.67,  2768.80000,  1577.90000
    266.16,  2750.50000,  1584.30000
    266.64,  2680.50000,  1626.80000
    267.13,  2688.10000,  1577.40000
    267.61,  2698.80000,  1574.60000
    268.10,  2701.00000,  1579.30000
    268.58,  2701.60000,  1582.20000
    269.06,  2725.30000,  1576.50000
    269.55,  2731.60000,  1590.10000
    270.03,  2729.90000,  1600.50000
    270.52,  2739.60000,  1604.60000
    271.00,  2737.70000,  1624.10000
    271.49,  2739.80000,  1630.70000
    271.97,  2747.10000,  1634.50000
    272.46,  2749.70000,  1640.00000
    272.94,  2743.00000,  1651.90000
    273.43,  2717.50000,  1663.70000
    273.91,  2700.30000,  1671.30000
    274.40,  2689.30000,  1677.40000
    274.88,  2689.60000,  1682.20000
    275.37,  2689.10000,  1690.80000
    275.85,  2695.50000,  1696.70000
    276.33,  2706.00000,  1698.10000
    276.82,  2719.10000,  1693.20000
    277.30,  2716.20000,  1702.10000
    277.79,  2724.10000,  1694.00000
    278.27,  2732.80000,  1697.60000
    278.76,  2736.70000,  1703.50000
    279.24,  2733.50000,  1714.30000
    279.73,  2723.50000,  1713.60000
    280.21,  2701.40000,  1724.40000
    280.69,  2711.50000,  1704.80000
    281.18,  2725.30000,  1709.10000
    281.66,  2762.50000,  1696.30000
    282.15,  2755.90000,  1730.90000
    282.63,  2741.60000,  1734.70000
    283.11,  2736.10000,  1732.30000
    283.60,  2754.90000,  1711.40000
    284.08,  2724.50000,  1732.60000
    284.57,  2727.20000,  1709.80000
    285.05,  2706.20000,  1717.70000
    285.53,  2684.70000,  1711.00000
    286.02,  2709.20000,  1671.50000
    286.50,  2729.80000,  1665.10000
    286.99,  2711.60000,  1684.70000
    287.47,  2708.10000,  1673.90000
    287.95,  2703.30000,  1668.30000
    288.44,  2694.10000,  1661.50000
    288.92,  2707.80000,  1632.20000
    289.41,  2732.00000,  1620.10000
    289.89,  2737.50000,  1620.50000
    290.37,  2764.40000,  1598.70000
    290.86,  2733.20000,  1626.60000
    291.34,  2704.70000,  1616.80000
    291.82,  2679.60000,  1610.60000
    292.31,  2690.60000,  1586.60000
    292.79,  2694.50000,  1570.00000
    293.28,  2714.50000,  1548.80000
    293.76,  2720.60000,  1547.10000
    294.24,  2744.30000,  1524.70000
    294.73,  2756.40000,  1511.70000
    295.21,  2759.30000,  1499.00000
    295.69,  2730.60000,  1496.70000
    296.18,  2686.10000,  1499.70000
    296.66,  2684.10000,  1473.20000
    297.14,  2702.10000,  1466.30000
    297.63,  2719.60000,  1460.10000
    298.11,  2746.20000,  1451.30000
    298.59,  2748.50000,  1462.00000
    299.08,  2744.30000,  1444.80000
    299.56,  2768.70000,  1405.60000
    300.04,  2780.00000,  1394.10000
    300.53,  2774.50000,  1393.50000
    301.01,  2760.20000,  1402.70000
    301.49,  2723.20000,  1428.80000
    301.98,  2697.00000,  1423.50000
    302.46,  2698.20000,  1395.10000
    302.94,  2702.40000,  1378.00000
    303.42,  2692.40000,  1377.90000
    303.91,  2671.90000,  1378.60000
    304.39,  2673.10000,  1359.00000
    304.87,  2694.10000,  1339.80000
    305.36,  2727.00000,  1316.30000
    305.84,  2768.70000,  1299.60000
    306.32,  2762.80000,  1313.60000
    306.81,  2733.20000,  1317.10000
    307.29,  2720.20000,  1300.00000
    307.77,  2716.00000,  1304.20000
    308.25,  2725.10000,  1303.00000
    308.74,  2721.40000,  1319.90000
    309.22,  2711.50000,  1315.60000
    309.70,  2701.40000,  1294.00000
    310.18,  2713.60000,  1261.20000
    310.67,  2724.30000,  1250.30000
    311.15,  2736.70000,  1241.80000
    311.63,  2739.60000,  1251.60000
    312.12,  2717.30000,  1267.60000
    312.60,  2697.90000,  1260.70000
    313.08,  2686.20000,  1252.40000
    313.56,  2676.90000,  1244.80000
    314.05,  2701.40000,  1221.40000
    314.53,  2757.50000,  1190.20000
    315.01,  2752.50000,  1230.10000
    315.49,  2756.20000,  1230.20000
    315.98,  2730.20000,  1249.20000
    316.46,  2688.00000,  1256.60000
    316.94,  2677.20000,  1227.90000
    317.42,  2685.30000,  1202.60000
    317.90,  2666.60000,  1220.00000
    318.39,  2715.60000,  1179.60000
    318.87,  2743.00000,  1188.50000
    319.35,  2745.30000,  1201.00000
    319.83,  2753.60000,  1196.40000
    320.32,  2765.10000,  1191.90000
    320.80,  2724.30000,  1218.90000
    321.28,  2757.90000,  1173.30000
    321.76,  2760.40000,  1194.00000
    322.24,  2768.80000,  1187.40000
    322.73,  2770.80000,  1195.00000
    323.21,  2775.90000,  1196.40000
    323.69,  2722.60000,  1226.90000
    324.17,  2691.30000,  1213.70000
    324.65,  2698.00000,  1185.70000
    325.14,  2714.00000,  1160.80000
    325.62,  2761.30000,  1141.80000
    326.10,  2782.30000,  1165.10000
    326.58,  2737.00000,  1217.20000
    327.06,  2747.10000,  1199.70000
    327.55,  2775.10000,  1191.80000
    328.03,  2784.60000,  1189.80000
    328.51,  2800.90000,  1187.90000
    328.99,  2791.10000,  1201.70000
    329.47,  2716.20000,  1243.10000
    329.95,  2726.30000,  1190.50000
    330.44,  2691.10000,  1212.30000
    330.92,  2670.70000,  1197.50000
    331.40,  2663.20000,  1193.60000
    331.88,  2679.70000,  1184.00000
    332.36,  2711.80000,  1169.00000
    332.84,  2756.80000,  1150.90000
    333.33,  2758.50000,  1166.30000
    333.81,  2761.50000,  1163.90000
    334.29,  2756.50000,  1160.70000
    334.77,  2751.10000,  1157.00000
    335.25,  2769.40000,  1133.10000
    335.73,  2761.80000,  1152.10000
    336.21,  2745.70000,  1155.40000
    336.69,  2725.70000,  1161.40000
    337.18,  2698.40000,  1161.30000
    337.66,  2685.70000,  1147.40000
    338.14,  2681.60000,  1138.30000
    338.62,  2705.80000,  1126.80000
    339.10,  2749.60000,  1106.50000
    339.58,  2760.60000,  1119.90000
    340.06,  2766.70000,  1118.80000
    340.54,  2757.70000,  1131.90000
    341.03,  2729.30000,  1145.30000
    341.51,  2725.70000,  1134.70000
    341.99,  2733.00000,  1126.50000
    342.47,  2727.70000,  1129.80000
    342.95,  2726.00000,  1125.00000
    343.43,  2726.50000,  1119.00000
    343.91,  2708.90000,  1124.80000
    344.39,  2688.40000,  1128.80000
    344.87,  2703.10000,  1104.50000
    345.35,  2718.50000,  1093.50000
    345.84,  2765.20000,  1076.20000
    346.32,  2779.50000,  1096.80000
    346.80,  2775.40000,  1115.20000
    347.28,  2742.00000,  1143.90000
    347.76,  2738.00000,  1125.40000
    348.24,  2758.80000,  1104.00000
    348.72,  2788.10000,  1100.70000
    349.20,  2776.50000,  1122.30000
    349.68,  2743.40000,  1132.80000
    350.16,  2696.80000,  1142.80000
    350.64,  2684.00000,  1117.90000
    351.12,  2732.30000,  1084.20000
    351.60,  2775.30000,  1093.70000
    352.08,  2799.60000,  1104.30000
    352.56,  2789.30000,  1132.50000
    353.04,  2764.50000,  1140.30000
    353.53,  2741.90000,  1137.10000
    354.01,  2753.70000,  1111.90000
    354.49,  2751.90000,  1121.30000
    354.97,  2752.20000,  1117.50000
    355.45,  2728.00000,  1140.80000
    355.93,  2741.30000,  1114.20000
    356.41,  2726.20000,  1131.10000
    356.89,  2741.00000,  1101.90000
    357.37,  2725.30000,  1116.80000
    357.85,  2718.20000,  1109.00000
    358.33,  2688.10000,  1132.10000
    358.81,  2702.90000,  1110.60000
    359.29,  2719.40000,  1114.20000
    359.77,  2743.20000,  1109.90000
    360.25,  2747.70000,  1116.70000
    360.73,  2736.40000,  1119.90000
    361.21,  2737.00000,  1114.60000
    361.69,  2732.40000,  1120.40000
    362.17,  2736.50000,  1121.40000
    362.65,  2737.20000,  1129.40000
    363.13,  2754.10000,  1126.90000
    363.61,  2727.90000,  1147.10000
    364.09,  2724.30000,  1134.90000
    364.57,  2721.70000,  1133.00000
    365.05,  2704.40000,  1139.80000
    365.53,  2718.10000,  1125.70000
    366.01,  2760.90000,  1124.70000
    366.49,  2723.80000,  1170.70000
    366.97,  2734.60000,  1141.20000
    367.45,  2758.80000,  1131.70000
    367.93,  2746.70000,  1146.40000
    368.41,  2748.50000,  1136.40000
    368.89,  2758.10000,  1138.00000
    369.37,  2712.90000,  1164.00000
    369.85,  2734.00000,  1114.10000
    370.33,  2752.90000,  1114.40000
    370.80,  2756.00000,  1121.50000
    371.28,  2727.70000,  1145.40000
    371.76,  2709.40000,  1156.20000
    372.24,  2695.80000,  1159.30000
    372.72,  2708.30000,  1153.80000
    373.20,  2736.30000,  1148.60000
    373.68,  2766.90000,  1147.00000
    374.16,  2751.60000,  1176.40000
    374.64,  2733.70000,  1173.10000
    375.12,  2758.30000,  1141.70000
    375.60,  2731.30000,  1175.80000
    376.08,  2724.10000,  1163.00000
    376.56,  2724.80000,  1157.00000
    377.04,  2723.90000,  1156.70000
    377.52,  2720.70000,  1156.70000
    377.99,  2745.70000,  1144.80000
    378.47,  2726.30000,  1183.50000
    378.95,  2747.40000,  1160.90000
    379.43,  2755.30000,  1163.50000
    379.91,  2799.60000,  1133.60000
    380.39,  2821.20000,  1153.10000
    380.87,  2808.10000,  1173.70000
    381.35,  2778.90000,  1190.70000
    381.83,  2749.90000,  1189.70000
    382.31,  2710.70000,  1187.90000
    382.79,  2719.90000,  1164.00000
    383.26,  2713.20000,  1180.10000
    383.74,  2709.10000,  1173.10000
    384.22,  2721.90000,  1163.00000
    384.70,  2707.50000,  1176.70000
    385.18,  2718.60000,  1153.30000
    385.66,  2723.50000,  1169.00000
    386.14,  2732.30000,  1166.60000
    386.62,  2745.50000,  1167.70000
    387.09,  2757.00000,  1176.70000
    387.57,  2746.50000,  1187.80000
    388.05,  2740.70000,  1177.80000
    388.53,  2740.30000,  1185.30000
    389.01,  2764.00000,  1171.40000
    389.49,  2763.60000,  1181.30000
    389.97,  2751.90000,  1189.80000
    390.44,  2730.20000,  1190.60000
    390.92,  2710.20000,  1183.30000
    391.40,  2708.60000,  1177.30000
    391.88,  2726.70000,  1167.40000
    392.36,  2736.60000,  1168.20000
    392.84,  2747.70000,  1172.10000
    393.32,  2733.20000,  1196.40000
    393.79,  2782.10000,  1173.20000
    394.27,  2781.60000,  1199.80000
    394.75,  2780.40000,  1194.70000
    395.23,  2764.30000,  1189.80000
    395.71,  2761.30000,  1176.10000
    396.18,  2764.90000,  1178.60000
    396.66,  2797.70000,  1174.50000
    397.14,  2766.50000,  1212.90000
    397.62,  2764.30000,  1197.60000
    398.10,  2747.60000,  1192.80000
    398.58,  2759.10000,  1171.20000
    399.05,  2773.70000,  1162.50000
    399.53,  2767.60000,  1166.90000
    400.01,  2739.30000,  1169.70000
    400.49,  2723.60000,  1164.60000
    400.97,  2689.00000,  1170.20000
    401.44,  2707.50000,  1149.60000
    401.92,  2711.30000,  1167.50000
    402.40,  2735.40000,  1155.70000
    402.88,  2747.00000,  1158.60000
    403.36,  2764.00000,  1147.90000
    403.83,  2731.10000,  1171.50000
    404.31,  2744.20000,  1145.90000
    404.79,  2729.00000,  1165.70000
    405.27,  2720.90000,  1160.70000
    405.74,  2742.50000,  1149.80000
    406.22,  2753.50000,  1151.90000
    406.70,  2729.20000,  1173.60000
    407.18,  2714.90000,  1162.50000
    407.65,  2693.10000,  1157.20000
    408.13,  2709.60000,  1127.60000
    408.61,  2730.80000,  1123.20000
    409.09,  2736.80000,  1123.10000
    409.56,  2747.80000,  1117.70000
    410.04,  2741.00000,  1122.20000
    410.52,  2717.20000,  1132.90000
    411.00,  2713.20000,  1121.20000
    411.47,  2694.20000,  1129.30000
    411.95,  2702.50000,  1108.80000
    412.43,  2701.50000,  1108.50000
    412.91,  2718.70000,  1103.80000
    413.38,  2727.10000,  1114.40000
    413.86,  2731.30000,  1114.90000
    414.34,  2737.30000,  1105.30000
    414.82,  2744.00000,  1100.70000
    415.29,  2747.50000,  1087.60000
    415.77,  2747.10000,  1096.90000
    416.25,  2751.50000,  1089.60000
    416.72,  2742.50000,  1087.70000
    417.20,  2705.20000,  1096.70000
    417.68,  2694.50000,  1085.20000
    418.16,  2718.70000,  1061.50000
    418.63,  2718.70000,  1088.50000
    419.11,  2734.30000,  1091.20000
    419.59,  2709.90000,  1111.40000
    420.06,  2680.80000,  1106.70000
    420.54,  2699.40000,  1062.80000
    421.02,  2727.70000,  1047.20000
    421.50,  2736.50000,  1055.90000
    421.97,  2729.90000,  1061.30000
    422.45,  2716.30000,  1067.50000
    422.93,  2686.90000,  1083.20000
    423.40,  2686.20000,  1073.00000
    423.88,  2694.90000,  1074.60000
    424.36,  2713.10000,  1064.20000
    424.83,  2738.30000,  1049.60000
    425.31,  2790.20000,  1026.70000
    425.79,  2815.00000,  1042.80000
    426.26,  2793.80000,  1076.40000
    426.74,  2779.40000,  1071.90000
    427.22,  2761.00000,  1063.60000
    427.69,  2739.50000,  1059.70000
    428.17,  2722.00000,  1051.90000
    428.65,  2752.10000,  1021.20000
    429.12,  2735.10000,  1055.60000
    429.60,  2745.60000,  1047.10000
    430.08,  2746.70000,  1049.90000
    430.55,  2745.60000,  1048.20000
    431.03,  2735.30000,  1056.40000
    431.50,  2734.30000,  1052.30000
    431.98,  2741.30000,  1044.90000
    432.46,  2730.40000,  1053.00000
    432.93,  2713.10000,  1051.80000
    433.41,  2710.10000,  1043.60000
    433.89,  2714.50000,  1046.90000
    434.36,  2704.60000,  1062.80000
    434.84,  2722.40000,  1044.40000
    435.31,  2725.00000,  1046.70000
    435.79,  2720.00000,  1051.90000
    436.27,  2714.20000,  1044.60000
    436.74,  2727.60000,  1027.90000
    437.22,  2718.90000,  1039.80000
    437.70,  2710.70000,  1043.70000
    438.17,  2713.80000,  1033.50000
    438.65,  2725.50000,  1033.40000
    439.12,  2724.00000,  1039.40000
    439.60,  2741.20000,  1021.30000
    440.08,  2720.20000,  1039.80000
    440.55,  2721.70000,  1033.30000
    441.03,  2719.60000,  1041.50000
    441.50,  2733.10000,  1039.60000
    441.98,  2731.70000,  1048.40000
    442.45,  2735.80000,  1035.90000
    442.93,  2719.80000,  1048.60000
    443.41,  2720.10000,  1055.00000
    443.88,  2712.20000,  1075.60000
    444.36,  2717.70000,  1063.00000
    444.83,  2728.90000,  1036.80000
    445.31,  2704.90000,  1048.60000
    445.78,  2701.20000,  1036.80000
    446.26,  2694.50000,  1046.80000
    446.74,  2712.70000,  1037.20000
    447.21,  2733.90000,  1025.90000
    447.69,  2759.90000,  1007.70000
    448.16,  2731.40000,  1041.40000
    448.64,  2716.30000,  1031.20000
    449.11,  2720.70000,  1025.40000
    449.59,  2722.30000,  1030.80000
    450.06,  2725.90000,  1038.90000
    450.54,  2755.50000,  1023.50000
    451.02,  2760.60000,  1035.10000
    451.49,  2761.80000,  1025.30000
    451.97,  2754.10000,  1029.50000
    452.44,  2735.10000,  1029.00000
    452.92,  2716.70000,  1037.40000
    453.39,  2721.80000,  1030.60000
    453.87,  2720.80000,  1042.70000
    454.34,  2729.50000,  1040.80000
    454.82,  2737.70000,  1038.90000
    455.29,  2754.00000,  1030.20000
    455.77,  2731.90000,  1045.30000
    456.24,  2707.20000,  1043.90000
    456.72,  2695.00000,  1039.30000
    457.19,  2703.00000,  1029.10000
    457.67,  2731.80000,  1016.10000
    458.14,  2744.20000,  1030.50000
    458.62,  2733.10000,  1047.40000
    459.09,  2710.10000,  1062.50000
    459.57,  2716.20000,  1043.70000
    460.04,  2721.30000,  1039.90000
    460.52,  2720.70000,  1033.70000
    460.99,  2712.00000,  1028.70000
    461.47,  2680.40000,  1048.20000
    461.94,  2674.30000,  1045.10000
    462.42,  2694.60000,  1027.90000
    462.89,  2717.80000,  1032.80000
    463.37,  2732.60000,  1031.30000
    463.84,  2742.40000,  1023.70000
    464.32,  2728.00000,  1037.10000
    464.79,  2733.50000,  1035.40000
    465.26,  2721.30000,  1039.60000
    465.74,  2742.00000,  1026.40000
    466.21,  2750.70000,  1033.10000
    466.69,  2751.50000,  1032.90000
    467.16,  2723.80000,  1051.80000
    467.64,  2712.40000,  1055.20000
    468.11,  2705.60000,  1057.30000
    468.59,  2725.70000,  1044.90000
    469.06,  2750.80000,  1036.30000
    469.54,  2749.40000,  1049.70000
    470.01,  2705.80000,  1071.50000
    470.48,  2733.30000,  1026.50000
    470.96,  2760.40000,  1019.60000
    471.43,  2780.10000,  1016.40000
    471.91,  2810.50000,  1002.40000
    472.38,  2781.50000,  1048.10000
    472.86,  2722.50000,  1068.40000
    473.33,  2717.30000,  1043.30000
    473.80,  2721.70000,  1039.70000
    474.28,  2733.30000,  1033.50000
    474.75,  2770.90000,  1014.50000
    475.23,  2772.30000,  1038.60000
    475.70,  2744.10000,  1049.60000
    476.17,  2734.80000,  1051.70000
    476.65,  2730.80000,  1051.20000
    477.12,  2698.10000,  1065.10000
    477.60,  2704.80000,  1039.00000
    478.07,  2718.80000,  1035.90000
    478.54,  2722.70000,  1041.10000
    479.02,  2749.60000,  1036.50000
    479.49,  2756.50000,  1046.20000
    479.97,  2740.80000,  1057.30000
    480.44,  2712.90000,  1061.80000
    480.91,  2699.70000,  1053.20000
    481.39,  2697.30000,  1040.70000
    481.86,  2681.20000,  1053.20000
    482.34,  2702.40000,  1042.10000
    482.81,  2733.60000,  1034.90000
    483.28,  2720.90000,  1058.00000
    483.76,  2737.40000,  1038.80000
    484.23,  2722.90000,  1056.50000
    484.70,  2711.60000,  1064.70000
    485.18,  2720.10000,  1057.00000
    485.65,  2725.90000,  1047.00000
    486.12,  2707.50000,  1053.80000
    486.60,  2712.50000,  1037.60000
    487.07,  2736.40000,  1021.30000
    487.55,  2759.70000,  1021.30000
    488.02,  2760.70000,  1034.80000
    488.49,  2773.90000,  1022.40000
    488.97,  2770.00000,  1026.80000
    489.44,  2729.30000,  1048.00000
    489.91,  2720.40000,  1032.20000
    490.39,  2676.50000,  1059.80000
    490.86,  2642.40000,  1064.00000
    491.33,  2689.40000,  1012.50000
    491.81,  2735.20000,  1000.80000
    492.28,  2726.20000,  1028.30000
    492.75,  2770.50000,  1003.00000
    493.23,  2782.60000,  1028.30000
    493.70,  2778.70000,  1042.00000
    494.17,  2773.30000,  1034.60000
    494.64,  2741.00000,  1046.30000
    495.12,  2739.10000,  1028.30000
    495.59,  2771.40000,  1011.90000
    496.06,  2780.30000,  1035.90000
    496.54,  2764.70000,  1057.90000
    497.01,  2740.40000,  1061.10000
    497.48,  2721.10000,  1060.10000
    497.96,  2753.90000,  1026.70000
    498.43,  2760.60000,  1037.30000
    498.90,  2784.60000,  1023.50000
    499.37,  2762.80000,  1041.70000
    499.85,  2755.30000,  1031.60000
    500.32,  2737.30000,  1037.80000
    500.79,  2738.70000,  1028.20000
    501.27,  2725.80000,  1045.60000
    501.74,  2730.90000,  1036.90000
    502.21,  2727.80000,  1037.30000
    502.68,  2723.40000,  1036.90000
    503.16,  2718.10000,  1033.50000
    503.63,  2725.90000,  1022.90000
    504.10,  2709.10000,  1040.40000
    504.57,  2723.30000,  1014.80000
    505.05,  2744.10000,  1008.10000
    505.52,  2738.40000,  1032.80000
    505.99,  2735.90000,  1034.90000
    506.46,  2728.10000,  1038.70000
    506.94,  2714.40000,  1036.10000
    507.41,  2715.20000,  1014.30000
    507.88,  2710.90000,  1006.70000
    508.35,  2699.60000,  1017.60000
    508.83,  2728.10000,  1002.20000
    509.30,  2737.10000,  1018.90000
    509.77,  2739.90000,  1028.80000
    510.24,  2717.70000,  1042.60000
    510.72,  2705.10000,  1035.80000
    511.19,  2702.60000,  1028.40000
    511.66,  2730.80000,  1011.50000
    512.13,  2715.60000,  1028.80000
    512.60,  2710.20000,  1018.30000
    513.08,  2701.50000,  1018.80000
    513.55,  2686.60000,  1030.40000
    514.02,  2685.80000,  1027.00000
    514.49,  2700.00000,  1021.30000
    514.97,  2712.30000,  1018.60000
    515.44,  2715.60000,  1018.40000
    515.91,  2721.40000,  1018.70000
    516.38,  2686.10000,  1041.00000
    516.85,  2664.40000,  1039.80000
    517.33,  2666.40000,  1032.00000
    517.80,  2686.80000,  1023.90000
    518.27,  2726.40000,  1014.50000
    518.74,  2755.00000,  1018.10000
    519.21,  2731.20000,  1042.00000
    519.68,  2701.60000,  1052.40000
    520.16,  2684.20000,  1046.40000
    520.63,  2671.20000,  1046.40000
    521.10,  2706.00000,  1010.90000
    521.57,  2718.60000,  1019.00000
    522.04,  2720.40000,  1017.20000
    522.52,  2708.90000,  1026.80000
    522.99,  2728.40000,  1004.50000
    523.46,  2731.80000,  1016.90000
    523.93,  2765.40000,   990.80000
    524.40,  2753.00000,  1018.70000
    524.87,  2737.70000,  1020.30000
    525.34,  2725.70000,  1023.80000
    525.82,  2738.00000,  1008.50000
    526.29,  2731.30000,  1018.80000
    526.76,  2745.50000,  1004.50000
    527.23,  2722.80000,  1031.40000
    527.70,  2705.50000,  1036.60000
    528.17,  2702.20000,  1029.10000
    528.64,  2709.30000,  1021.80000
    529.12,  2714.50000,  1011.50000
    529.59,  2719.10000,  1003.50000
    530.06,  2754.50000,   989.30000
    530.53,  2723.00000,  1033.10000
    531.00,  2684.80000,  1040.50000
    531.47,  2678.50000,  1025.60000
    531.94,  2679.10000,  1017.80000
    532.41,  2704.70000,   995.80000
    532.89,  2768.60000,   972.70000
    533.36,  2751.30000,  1020.80000
    533.83,  2737.00000,  1024.00000
    534.30,  2744.80000,  1013.50000
    534.77,  2737.30000,  1028.80000
    535.24,  2730.90000,  1031.30000
    535.71,  2740.10000,  1017.70000
    536.18,  2738.10000,  1017.60000
    536.65,  2717.60000,  1023.50000
    537.13,  2705.30000,  1009.50000
    537.60,  2698.00000,  1011.00000
    538.07,  2682.00000,  1026.50000
    538.54,  2697.00000,  1012.50000
    539.01,  2738.90000,  1007.70000
    539.48,  2752.00000,  1027.50000
    539.95,  2759.40000,  1027.20000
    540.42,  2743.90000,  1041.70000
    540.89,  2717.20000,  1046.10000
    541.36,  2708.10000,  1037.60000
    541.83,  2707.50000,  1040.40000
    542.30,  2716.50000,  1035.70000
    542.77,  2732.40000,  1033.90000
    543.25,  2735.60000,  1043.20000
    543.72,  2735.40000,  1043.00000
    544.19,  2713.50000,  1065.80000
    544.66,  2698.10000,  1058.30000
    545.13,  2682.90000,  1057.80000
    545.60,  2707.70000,  1033.90000
    546.07,  2721.70000,  1035.90000
    546.54,  2732.50000,  1045.50000
    547.01,  2729.70000,  1063.80000
    547.48,  2722.10000,  1064.50000
    547.95,  2707.30000,  1065.60000
    548.42,  2739.00000,  1036.30000
    548.89,  2729.70000,  1053.30000
    549.36,  2715.90000,  1058.70000
    549.83,  2764.40000,  1020.30000
    550.30,  2763.40000,  1049.40000
    550.77,  2769.30000,  1048.40000
    551.24,  2780.10000,  1050.20000
    551.71,  2750.70000,  1078.90000
    552.18,  2694.40000,  1095.60000
    552.65,  2724.50000,  1040.50000
    553.12,  2727.60000,  1051.10000
    553.59,  2728.50000,  1059.00000
    554.06,  2738.00000,  1052.70000
    554.53,  2735.40000,  1062.40000
    555.00,  2727.50000,  1067.60000
    555.47,  2727.40000,  1061.30000
    555.94,  2725.00000,  1061.60000
    556.41,  2703.30000,  1077.70000
    556.88,  2693.50000,  1065.80000
    557.35,  2680.60000,  1065.50000
    557.82,  2691.60000,  1054.50000
    558.29,  2730.20000,  1038.70000
    558.76,  2747.00000,  1055.40000
    559.23,  2752.70000,  1074.20000
    559.70,  2743.10000,  1087.10000
    560.17,  2731.00000,  1086.00000
    560.64,  2718.60000,  1084.20000
    561.11,  2747.30000,  1054.80000
    561.58,  2732.10000,  1081.10000
    562.05,  2741.80000,  1069.60000
    562.52,  2739.40000,  1079.10000
    562.99,  2746.50000,  1070.30000
    563.46,  2736.30000,  1083.00000
    563.93,  2740.90000,  1072.10000
    564.40,  2740.50000,  1076.60000
    564.87,  2764.40000,  1053.00000
    565.34,  2749.40000,  1074.50000
    565.81,  2745.50000,  1071.90000
    566.28,  2722.50000,  1090.20000
    566.74,  2713.10000,  1087.50000
    567.21,  2724.80000,  1079.90000
    567.68,  2720.20000,  1089.30000
    568.15,  2704.40000,  1093.60000
    568.62,  2700.80000,  1091.50000
    569.09,  2699.90000,  1089.50000
    569.56,  2701.40000,  1086.50000
    570.03,  2743.30000,  1061.50000
    570.50,  2743.70000,  1093.40000
    570.97,  2731.00000,  1104.20000
    571.44,  2730.40000,  1111.50000
    571.91,  2719.40000,  1124.70000
    572.38,  2694.10000,  1128.90000
    572.84,  2714.80000,  1091.00000
    573.31,  2711.40000,  1096.00000
    573.78,  2709.70000,  1090.60000
    574.25,  2735.80000,  1073.10000
    574.72,  2734.40000,  1095.10000
    575.19,  2725.70000,  1102.00000
    575.66,  2720.60000,  1102.70000
    576.13,  2724.40000,  1092.40000
    576.60,  2753.80000,  1078.80000
    577.07,  2769.30000,  1083.10000
    577.53,  2760.90000,  1105.10000
    578.00,  2742.00000,  1111.10000
    578.47,  2708.20000,  1125.60000
    578.94,  2682.50000,  1116.70000
    579.41,  2707.90000,  1079.10000
    579.88,  2712.80000,  1090.00000
    580.35,  2729.50000,  1088.10000
    580.82,  2751.00000,  1081.00000
    581.28,  2745.20000,  1104.30000
    581.75,  2730.60000,  1111.20000
    582.22,  2739.70000,  1091.20000
    582.69,  2740.70000,  1091.60000
    583.16,  2739.20000,  1085.80000
    583.63,  2764.10000,  1060.20000
    584.10,  2772.90000,  1078.70000
    584.56,  2759.10000,  1092.50000
    585.03,  2749.60000,  1090.80000
    585.50,  2725.80000,  1095.60000
    585.97,  2721.40000,  1078.60000
    586.44,  2733.10000,  1071.40000
    586.91,  2730.50000,  1095.80000
    587.37,  2718.60000,  1103.80000
    587.84,  2702.50000,  1114.80000
    588.31,  2680.20000,  1113.40000
    588.78,  2710.10000,  1078.50000
    589.25,  2704.80000,  1098.90000
    589.72,  2731.30000,  1074.10000
    590.18,  2753.40000,  1077.70000
    590.65,  2735.70000,  1106.40000
    591.12,  2741.10000,  1088.10000
    591.59,  2723.30000,  1103.20000
    592.06,  2683.60000,  1119.90000
    592.52,  2701.40000,  1078.60000
    592.99,  2698.80000,  1097.50000
    593.46,  2659.00000,  1121.00000
    593.93,  2683.30000,  1083.90000
    594.40,  2698.40000,  1093.60000
    594.86,  2705.80000,  1104.10000
    595.33,  2731.00000,  1087.80000
    595.80,  2744.70000,  1086.50000
    596.27,  2732.90000,  1096.30000
    596.74,  2723.20000,  1089.70000
    597.20,  2734.80000,  1082.00000
    597.67,  2708.30000,  1111.20000
    598.14,  2696.10000,  1104.70000
    598.61,  2700.60000,  1093.10000
    599.07,  2693.60000,  1094.10000
    599.54,  2683.00000,  1084.90000
    600.01,  2741.50000,  1043.60000
    600.48,  2769.80000,  1064.90000
    600.95,  2780.60000,  1074.80000
    601.41,  2766.30000,  1087.60000
    601.88,  2710.80000,  1106.00000
    602.35,  2660.80000,  1098.40000
    602.82,  2672.50000,  1060.60000
    603.28,  2670.00000,  1075.70000
    603.75,  2689.50000,  1064.20000
    604.22,  2699.90000,  1071.40000
    604.69,  2715.30000,  1071.30000
    605.15,  2711.00000,  1081.40000
    605.62,  2712.40000,  1077.40000
    606.09,  2700.90000,  1082.00000
    606.56,  2701.10000,  1065.20000
    607.02,  2701.50000,  1056.50000
    607.49,  2730.90000,  1027.50000
    607.96,  2722.70000,  1037.90000
    608.42,  2769.10000,  1012.40000
    608.89,  2777.00000,  1047.40000
    609.36,  2756.70000,  1079.20000
    609.83,  2729.10000,  1087.80000
    610.29,  2706.90000,  1075.90000
    610.76,  2693.60000,  1055.50000
    611.23,  2725.70000,  1019.70000
    611.69,  2723.30000,  1043.60000
    612.16,  2719.10000,  1055.30000
    612.63,  2700.50000,  1067.70000
    613.10,  2684.50000,  1067.00000
    613.56,  2697.70000,  1053.10000
    614.03,  2712.50000,  1045.40000
    614.50,  2724.30000,  1038.90000
    614.96,  2733.10000,  1035.40000
    615.43,  2742.80000,  1031.70000
    615.90,  2737.30000,  1033.30000
    616.36,  2718.10000,  1051.40000
    616.83,  2709.00000,  1049.20000
    617.30,  2680.70000,  1064.20000
    617.76,  2671.10000,  1050.00000
    618.23,  2665.90000,  1043.00000
    618.70,  2680.80000,  1017.30000
    619.16,  2680.70000,  1029.30000
    619.63,  2686.80000,  1021.60000
    620.10,  2681.60000,  1028.20000
    620.56,  2711.40000,  1006.00000
    621.03,  2710.10000,  1019.30000
    621.50,  2718.40000,  1008.90000
    621.96,  2716.10000,  1020.50000
    622.43,  2729.00000,  1008.50000
    622.90,  2730.80000,  1012.70000
    623.36,  2739.90000,  1024.00000
    623.83,  2725.30000,  1037.10000
    624.30,  2720.80000,  1033.10000
    624.76,  2724.20000,  1023.90000
    625.23,  2744.20000,  1007.10000
    625.70,  2749.20000,  1003.60000
    626.16,  2721.40000,  1023.00000
    626.63,  2711.00000,  1005.80000
    627.09,  2722.40000,   988.20000
    627.56,  2709.20000,  1005.60000
    628.03,  2718.60000,   997.20000
    628.49,  2704.70000,  1014.30000
    628.96,  2702.10000,  1010.60000
    629.43,  2705.30000,  1005.30000
    629.89,  2719.40000,   989.50000
    630.36,  2703.70000,  1009.10000
    630.82,  2701.40000,  1004.80000
    631.29,  2675.90000,  1023.20000
    631.76,  2664.30000,  1023.50000
    632.22,  2665.20000,  1019.90000
    632.69,  2687.50000,  1003.60000
    633.15,  2722.10000,   992.00000
    633.62,  2740.40000,   992.90000
    634.09,  2745.60000,   994.60000
    634.55,  2720.60000,  1012.90000
    635.02,  2708.80000,  1004.90000
    635.48,  2699.50000,  1007.00000
    635.95,  2707.90000,   990.50000
    636.42,  2696.70000,   991.90000
    636.88,  2694.10000,   986.70000
    637.35,  2703.70000,   973.20000
    637.81,  2712.80000,   964.80000
    638.28,  2726.70000,   965.50000
    638.74,  2737.30000,   959.00000
    639.21,  2718.40000,   982.10000
    639.68,  2689.90000,   991.80000
    640.14,  2697.80000,   968.60000
    640.61,  2672.30000,   986.50000
    641.07,  2686.50000,   964.20000
    641.54,  2704.60000,   957.10000
    642.00,  2725.20000,   954.50000
    642.47,  2729.20000,   962.50000
    642.93,  2731.10000,   967.00000
    643.40,  2710.00000,   992.50000
    643.87,  2703.70000,   989.90000
    644.33,  2706.90000,   988.60000
    644.80,  2702.20000,   982.50000
    645.26,  2699.50000,   971.00000
    645.73,  2699.70000,   961.60000
    646.19,  2707.60000,   952.40000
    646.66,  2695.40000,   961.40000
    647.12,  2699.50000,   962.70000
    647.59,  2708.50000,   967.40000
    648.05,  2697.20000,   988.60000
    648.52,  2696.90000,   988.30000
    648.98,  2685.30000,   992.00000
    649.45,  2663.30000,   990.80000
    649.91,  2662.50000,   973.30000
    650.38,  2710.90000,   939.00000
    650.84,  2705.90000,   969.90000
    651.31,  2704.60000,   978.70000
    651.77,  2683.60000,   999.10000
    652.24,  2666.00000,  1001.10000
    652.70,  2659.10000,   987.70000
    653.17,  2685.50000,   957.90000
    653.63,  2679.00000,   977.70000
    654.10,  2689.90000,   968.00000
    654.56,  2689.30000,   975.10000
    655.03,  2698.30000,   972.90000
    655.49,  2697.80000,   971.20000
    655.96,  2685.90000,   978.30000
    656.42,  2670.00000,   997.20000
    656.89,  2721.70000,   959.40000
    657.35,  2760.30000,   972.70000
    657.82,  2790.80000,   974.90000
    658.28,  2801.80000,   971.50000
    658.75,  2765.90000,   992.10000
    659.21,  2740.00000,   980.70000
    659.68,  2736.70000,   959.90000
    660.14,  2699.00000,   983.10000
    660.61,  2730.20000,   941.20000
    661.07,  2741.80000,   948.40000
    661.53,  2763.00000,   946.50000
    662.00,  2755.20000,   961.20000
    662.46,  2739.10000,   970.50000
    662.93,  2708.30000,   979.30000
    663.39,  2742.40000,   932.00000
    663.86,  2737.00000,   941.00000
    664.32,  2757.60000,   917.80000
    664.79,  2733.40000,   947.60000
    665.25,  2710.10000,   961.00000
    665.71,  2682.20000,   968.00000
    666.18,  2707.80000,   931.90000
    666.64,  2701.60000,   948.60000
    667.11,  2721.70000,   930.60000
    667.57,  2734.70000,   938.20000
    668.04,  2728.10000,   947.10000
    668.50,  2713.00000,   948.70000
    668.96,  2743.30000,   916.20000
    669.43,  2714.20000,   950.70000
    669.89,  2690.60000,   950.70000
    670.36,  2678.10000,   954.60000
    670.82,  2685.90000,   941.80000
    671.28,  2691.10000,   938.60000
    671.75,  2726.70000,   915.90000
    672.21,  2729.00000,   927.20000
    672.68,  2737.30000,   924.80000
    673.14,  2754.40000,   924.00000
    673.60,  2739.10000,   937.50000
    674.07,  2704.10000,   947.20000
    674.53,  2690.40000,   931.10000
    675.00,  2675.90000,   926.90000
    675.46,  2678.40000,   917.70000
    675.92,  2726.80000,   885.40000
    676.39,  2736.60000,   901.10000
    676.85,  2742.90000,   908.90000
    677.31,  2741.60000,   910.20000
    677.78,  2723.10000,   922.50000
    678.24,  2698.60000,   928.90000
    678.70,  2682.70000,   926.00000
    679.17,  2658.10000,   931.60000
    679.63,  2659.00000,   925.60000
    680.10,  2683.90000,   906.10000
    680.56,  2687.00000,   909.10000
    681.02,  2716.30000,   887.00000
    681.49,  2708.90000,   904.60000
    681.95,  2696.80000,   910.70000
    682.41,  2690.90000,   915.60000
    682.88,  2690.20000,   919.20000
    683.34,  2668.60000,   925.70000
    683.80,  2689.30000,   902.30000
    684.27,  2694.40000,   912.20000
    684.73,  2715.90000,   901.40000
    685.19,  2746.60000,   884.30000
    685.66,  2750.90000,   894.20000
    686.12,  2762.30000,   880.60000
    686.58,  2754.90000,   895.70000
    687.05,  2738.30000,   905.20000
    687.51,  2719.80000,   905.30000
    687.97,  2726.40000,   883.70000
    688.44,  2726.00000,   882.00000
    688.90,  2723.00000,   892.20000
    689.36,  2722.50000,   897.80000
    689.83,  2731.30000,   897.80000
    690.29,  2733.00000,   903.40000
    690.75,  2744.30000,   900.40000
    691.21,  2730.80000,   910.90000
    691.68,  2698.50000,   927.60000
    692.14,  2708.10000,   898.60000
    692.60,  2693.70000,   910.40000
    693.07,  2708.60000,   886.80000
    693.53,  2726.80000,   886.00000
    693.99,  2728.90000,   893.10000
    694.45,  2741.10000,   885.10000
    694.92,  2750.90000,   886.60000
    695.38,  2731.70000,   903.70000
    695.84,  2715.40000,   901.50000
    696.31,  2728.30000,   887.40000
    696.77,  2725.00000,   898.00000
    697.23,  2730.80000,   888.90000
    697.69,  2718.50000,   895.50000
    698.16,  2706.80000,   884.00000
    698.62,  2683.70000,   888.60000
    699.08,  2685.10000,   868.30000
    699.54,  2676.00000,   874.50000
    700.01,  2669.20000,   874.70000
    700.47,  2668.70000,   878.60000
    700.93,  2684.80000,   872.10000
    701.39,  2697.40000,   878.20000
    701.86,  2689.80000,   887.90000
    702.32,  2694.60000,   876.30000
    702.78,  2690.10000,   884.10000
    703.24,  2692.20000,   882.30000
    703.71,  2706.60000,   881.30000
    704.17,  2704.60000,   890.10000
    704.63,  2691.10000,   897.40000
    705.09,  2720.10000,   865.60000
    705.56,  2723.30000,   881.00000
    706.02,  2700.60000,   895.80000
    706.48,  2694.70000,   889.90000
    706.94,  2676.10000,   897.80000
    707.40,  2679.00000,   876.20000
    707.87,  2694.90000,   861.40000
    708.33,  2682.90000,   871.30000
    708.79,  2667.10000,   871.40000
    709.25,  2691.20000,   837.40000
    709.72,  2715.40000,   836.10000
    710.18,  2714.80000,   854.30000
    710.64,  2688.90000,   885.50000
    711.10,  2685.60000,   885.50000
    711.56,  2701.70000,   878.20000
    712.03,  2730.10000,   862.00000
    712.49,  2752.40000,   861.40000
    712.95,  2734.60000,   881.80000
    713.41,  2720.00000,   875.80000
    713.87,  2723.50000,   864.60000
    714.33,  2713.30000,   875.40000
    714.80,  2672.70000,   901.20000
    715.26,  2660.70000,   888.40000
    715.72,  2656.50000,   884.50000
    716.18,  2673.00000,   860.20000
    716.64,  2680.20000,   862.30000
    717.11,  2686.90000,   858.00000
    717.57,  2660.50000,   876.20000
    718.03,  2671.20000,   847.00000
    718.49,  2717.30000,   820.90000
    718.95,  2723.00000,   850.20000
    719.41,  2688.30000,   890.00000
    719.87,  2683.10000,   879.70000
    720.34,  2674.50000,   883.70000
    720.80,  2671.10000,   870.20000
    721.26,  2706.10000,   835.90000
    721.72,  2692.30000,   866.90000
    722.18,  2665.50000,   875.60000
    722.64,  2677.30000,   856.00000
    723.10,  2690.10000,   846.90000
    723.57,  2688.60000,   854.50000
    724.03,  2685.40000,   874.70000
    724.49,  2648.40000,   900.80000
    724.95,  2700.10000,   850.10000
    725.41,  2748.90000,   859.20000
    725.87,  2780.40000,   849.30000
    726.33,  2787.20000,   845.70000
    726.80,  2748.20000,   873.40000
    727.26,  2665.90000,   900.60000
    727.72,  2668.40000,   857.00000
    728.18,  2660.30000,   877.10000
    728.64,  2674.30000,   863.90000
    729.10,  2700.00000,   847.20000
    729.56,  2728.70000,   834.70000
    730.02,  2723.80000,   855.00000
    730.48,  2708.70000,   857.40000
    730.94,  2697.80000,   859.00000
    731.41,  2670.70000,   869.00000
    731.87,  2655.90000,   865.70000
    732.33,  2691.30000,   831.90000
    732.79,  2690.30000,   856.50000
    733.25,  2700.80000,   847.50000
    733.71,  2712.60000,   851.80000
    734.17,  2689.70000,   869.40000
    734.63,  2670.80000,   866.30000
    735.09,  2671.00000,   851.20000
    735.55,  2658.90000,   856.40000
    736.01,  2666.40000,   843.90000
    736.47,  2670.30000,   852.60000
    736.94,  2685.00000,   850.00000
    737.40,  2683.40000,   866.30000
    737.86,  2690.70000,   861.00000
    738.32,  2699.70000,   855.00000
    738.78,  2688.00000,   867.00000
    739.24,  2681.70000,   861.70000
    739.70,  2710.30000,   845.70000
    740.16,  2720.80000,   864.30000
    740.62,  2748.10000,   848.10000
    741.08,  2737.00000,   856.70000
    741.54,  2712.10000,   853.70000
    742.00,  2675.50000,   851.00000
    742.46,  2651.20000,   855.20000
    742.92,  2649.20000,   853.20000
    743.38,  2653.40000,   855.70000
    743.84,  2670.10000,   850.70000
    744.30,  2687.10000,   842.90000
    744.76,  2688.30000,   840.80000
    745.22,  2672.10000,   852.60000
    745.68,  2664.30000,   846.20000
    746.14,  2661.30000,   841.60000
    746.60,  2670.40000,   847.70000
    747.06,  2658.50000,   866.20000
    747.52,  2677.80000,   845.80000
    747.98,  2685.60000,   850.60000
    748.44,  2682.40000,   851.20000
    748.90,  2695.00000,   826.80000
    749.36,  2700.60000,   827.80000
    749.82,  2706.00000,   839.90000
    750.28,  2720.50000,   844.40000
    750.74,  2718.60000,   866.40000
    751.20,  2701.00000,   881.80000
    751.66,  2684.80000,   870.20000
    752.12,  2693.40000,   833.80000
    752.58,  2713.20000,   817.90000
    753.04,  2742.40000,   809.10000
    753.50,  2725.30000,   839.80000
    753.96,  2690.10000,   855.20000
    754.42,  2658.90000,   861.90000
    754.88,  2650.70000,   851.40000
    755.34,  2677.10000,   834.80000
    755.80,  2702.40000,   835.60000
    756.26,  2706.00000,   848.20000
    756.72,  2705.20000,   845.60000
    757.18,  2694.10000,   853.20000
    757.64,  2660.30000,   866.40000
    758.10,  2645.10000,   850.30000
    758.56,  2653.30000,   829.90000
    759.02,  2662.50000,   833.70000
    759.48,  2684.50000,   830.90000
    759.94,  2689.50000,   843.70000
    760.40,  2683.30000,   852.10000
    760.86,  2684.40000,   835.60000
    761.32,  2709.60000,   816.70000
    761.78,  2692.20000,   842.20000
    762.24,  2697.60000,   829.70000
    762.70,  2676.60000,   852.10000
    763.15,  2682.20000,   840.30000
    763.61,  2694.80000,   831.90000
    764.07,  2699.10000,   833.70000
    764.53,  2702.00000,   838.70000
    764.99,  2715.60000,   831.70000
    765.45,  2694.30000,   861.70000
    765.91,  2681.90000,   856.70000
    766.37,  2664.10000,   857.50000
    766.83,  2666.60000,   837.30000
    767.29,  2670.40000,   844.60000
    767.75,  2683.80000,   844.40000
    768.21,  2690.30000,   861.00000
    768.66,  2697.10000,   866.30000
    769.12,  2678.30000,   869.80000
    769.58,  2669.70000,   849.80000
    770.04,  2649.40000,   847.30000
    770.50,  2632.40000,   839.30000
    770.96,  2652.80000,   830.80000
    771.42,  2667.60000,   848.30000
    771.88,  2672.20000,   851.50000
    772.34,  2672.30000,   844.10000
    772.80,  2661.10000,   841.50000
    773.25,  2654.50000,   831.50000
    773.71,  2639.80000,   844.00000
    774.17,  2653.00000,   834.30000
    774.63,  2672.00000,   829.80000
    775.09,  2668.40000,   835.50000
    775.55,  2642.30000,   852.40000
    776.01,  2643.90000,   841.70000
    776.47,  2617.20000,   866.80000
    776.92,  2648.30000,   839.50000
    777.38,  2660.30000,   850.10000
    777.84,  2657.10000,   859.50000
    778.30,  2646.00000,   863.60000
    778.76,  2668.50000,   835.30000
    779.22,  2667.40000,   841.50000
    779.68,  2679.70000,   830.40000
    780.13,  2654.30000,   851.20000
    780.59,  2633.80000,   855.40000
    781.05,  2638.90000,   842.70000
    781.51,  2660.50000,   827.90000
    781.97,  2673.30000,   834.20000
    782.43,  2689.60000,   835.60000
    782.88,  2681.90000,   852.00000
    783.34,  2683.90000,   841.80000
    783.80,  2703.00000,   827.50000
    784.26,  2682.90000,   848.50000
    784.72,  2664.90000,   858.50000
    785.18,  2644.80000,   868.70000
    785.63,  2664.90000,   842.70000
    786.09,  2703.70000,   816.30000
    786.55,  2738.80000,   806.90000
    787.01,  2714.40000,   829.10000
    787.47,  2681.50000,   840.00000
    787.92,  2649.50000,   847.60000
    788.38,  2637.90000,   842.90000
    788.84,  2649.30000,   836.00000
    789.30,  2664.70000,   835.30000
    789.76,  2666.90000,   833.10000
    790.21,  2653.30000,   842.60000
    790.67,  2658.90000,   830.50000
    791.13,  2640.10000,   846.70000
    791.59,  2632.60000,   839.00000
    792.05,  2647.60000,   826.90000
    792.50,  2670.60000,   818.00000
    792.96,  2648.10000,   844.80000
    793.42,  2662.00000,   825.90000
    793.88,  2641.80000,   847.10000
    794.33,  2637.70000,   833.70000
    794.79,  2649.90000,   821.90000
    795.25,  2669.50000,   813.60000
    795.71,  2671.60000,   821.00000
    796.17,  2670.30000,   820.10000
    796.62,  2637.70000,   842.10000
    797.08,  2631.20000,   833.70000
    797.54,  2623.40000,   836.40000
    798.00,  2636.40000,   825.90000
    798.45,  2654.90000,   828.10000
    798.91,  2664.20000,   823.70000
    799.37,  2658.30000,   830.50000
    799.83,  2643.50000,   837.40000
    800.28,  2633.80000,   835.90000
    800.74,  2651.90000,   811.40000
    801.20,  2637.50000,   831.20000
    801.66,  2647.50000,   814.50000
    802.11,  2656.40000,   829.10000
    802.57,  2626.30000,   863.80000
    803.03,  2607.00000,   863.90000
    803.48,  2666.00000,   808.50000
    803.94,  2684.70000,   813.30000
    804.40,  2715.40000,   798.40000
    804.86,  2709.50000,   821.70000
    805.31,  2662.10000,   849.70000
    805.77,  2607.90000,   861.30000
    806.23,  2633.10000,   821.10000
    806.69,  2635.00000,   829.30000
    807.14,  2656.10000,   819.70000
    807.60,  2662.80000,   814.10000
    808.06,  2661.90000,   815.60000
    808.51,  2631.00000,   834.20000
    808.97,  2631.80000,   818.90000
    809.43,  2626.90000,   827.20000
    809.88,  2616.10000,   842.10000
    810.34,  2636.50000,   822.60000
    810.80,  2649.70000,   829.90000
    811.26,  2639.30000,   839.30000
    811.71,  2656.90000,   821.90000
    812.17,  2652.20000,   832.60000
    812.63,  2622.30000,   848.90000
    813.08,  2632.60000,   826.10000
    813.54,  2644.20000,   817.20000
    814.00,  2648.90000,   812.70000
    814.45,  2669.80000,   796.00000
    814.91,  2655.80000,   808.30000
    815.37,  2642.00000,   806.90000
    815.82,  2637.00000,   804.90000
    816.28,  2642.00000,   796.60000
    816.74,  2613.60000,   823.80000
    817.19,  2624.30000,   802.40000
    817.65,  2639.00000,   803.80000
    818.11,  2647.90000,   808.30000
    818.56,  2635.70000,   822.20000
    819.02,  2643.40000,   807.40000
    819.48,  2601.60000,   836.90000
    819.93,  2622.00000,   800.80000
    820.39,  2660.90000,   793.00000
    820.84,  2681.60000,   801.10000
    821.30,  2680.60000,   820.10000
    821.76,  2685.50000,   818.20000
    822.21,  2658.50000,   831.20000
    822.67,  2620.40000,   837.30000
    823.13,  2652.40000,   793.30000
    823.58,  2676.50000,   796.30000
    824.04,  2679.10000,   812.10000
    824.49,  2689.90000,   808.90000
    824.95,  2692.30000,   813.80000
    825.41,  2659.50000,   843.60000
    825.86,  2678.10000,   814.00000
    826.32,  2653.00000,   843.80000
    826.78,  2628.10000,   838.80000
    827.23,  2614.00000,   826.60000
    827.69,  2626.50000,   806.20000
    828.14,  2657.40000,   786.40000
    828.60,  2676.20000,   790.80000
    829.06,  2660.80000,   820.30000
    829.51,  2660.40000,   813.00000
    829.97,  2649.40000,   824.60000
    830.42,  2639.00000,   824.50000
    830.88,  2638.50000,   808.60000
    831.34,  2661.10000,   794.90000
    831.79,  2665.50000,   808.50000
    832.25,  2665.00000,   812.30000
    832.70,  2671.00000,   813.60000
    833.16,  2663.40000,   818.40000
    833.61,  2650.00000,   819.30000
    834.07,  2646.20000,   809.50000
    834.53,  2638.40000,   803.70000
    834.98,  2619.70000,   808.30000
    835.44,  2628.20000,   793.40000
    835.89,  2644.60000,   788.70000
    836.35,  2670.80000,   783.80000
    836.80,  2654.60000,   807.50000
    837.26,  2639.30000,   804.10000
    837.71,  2632.50000,   795.90000
    838.17,  2620.50000,   795.40000
    838.63,  2621.60000,   792.50000
    839.08,  2644.70000,   779.90000
    839.54,  2637.60000,   796.70000
    839.99,  2650.30000,   782.40000
    840.45,  2667.60000,   784.00000
    840.90,  2672.30000,   794.10000
    841.36,  2668.50000,   802.50000
    841.81,  2658.70000,   810.50000
    842.27,  2642.10000,   803.10000
    842.72,  2642.80000,   787.70000
    843.18,  2615.90000,   803.50000
    843.63,  2607.10000,   802.40000
    844.09,  2597.20000,   804.30000
    844.55,  2588.40000,   810.10000
    845.00,  2605.20000,   790.00000
    845.46,  2625.40000,   787.50000
    845.91,  2642.60000,   782.00000
    846.37,  2663.10000,   791.50000
    846.82,  2674.90000,   795.00000
    847.28,  2625.40000,   826.70000
    847.73,  2654.40000,   778.40000
    848.19,  2659.30000,   796.20000
    848.64,  2680.90000,   788.80000
    849.10,  2680.30000,   806.60000
    849.55,  2671.60000,   816.20000
    850.01,  2613.10000,   832.10000
    850.46,  2640.20000,   782.50000
    850.92,  2645.00000,   804.40000
    851.37,  2650.30000,   802.00000
    851.83,  2651.60000,   802.60000
    852.28,  2637.00000,   812.50000
    852.73,  2607.10000,   809.30000
    853.19,  2609.20000,   794.00000
    853.64,  2616.30000,   795.20000
    854.10,  2619.10000,   796.00000
    854.55,  2632.50000,   797.20000
    855.01,  2612.80000,   811.60000
    855.46,  2598.20000,   806.40000
    855.92,  2595.80000,   797.60000
    856.37,  2590.70000,   799.40000
    856.83,  2608.30000,   789.00000
    857.28,  2615.80000,   801.70000
    857.74,  2619.50000,   793.80000
    858.19,  2635.50000,   780.90000
    858.64,  2628.40000,   797.40000
    859.10,  2604.40000,   806.80000
    859.55,  2661.00000,   761.10000
    860.01,  2684.70000,   785.30000
    860.46,  2688.00000,   795.00000
    860.92,  2681.90000,   795.60000
    861.37,  2667.10000,   803.30000
    861.83,  2637.10000,   810.60000
    862.28,  2656.10000,   781.50000
    862.73,  2647.00000,   798.50000
    863.19,  2632.30000,   800.80000
    863.64,  2627.40000,   792.10000
    864.10,  2643.50000,   775.90000
    864.55,  2638.20000,   800.90000
    865.01,  2640.60000,   805.10000
    865.46,  2626.20000,   822.10000
    865.91,  2622.60000,   804.50000
    866.37,  2623.50000,   794.30000
    866.82,  2618.70000,   788.30000
    867.28,  2610.50000,   797.80000
    867.73,  2629.10000,   787.20000
    868.18,  2633.00000,   800.60000
    868.64,  2656.70000,   779.80000
    869.09,  2667.90000,   785.30000
    869.55,  2657.70000,   797.50000
    870.00,  2644.80000,   803.40000
    870.45,  2615.20000,   820.50000
    870.91,  2588.50000,   819.30000
    871.36,  2607.60000,   798.60000
    871.81,  2638.90000,   788.40000
    872.27,  2652.80000,   793.10000
    872.72,  2647.10000,   795.90000
    873.18,  2622.40000,   824.30000
    873.63,  2612.20000,   826.00000
    874.08,  2626.50000,   820.80000
    874.54,  2627.10000,   816.50000
    874.99,  2608.10000,   812.00000
    875.44,  2587.70000,   795.20000
    875.90,  2584.90000,   799.30000
    876.35,  2618.00000,   783.30000
    876.81,  2650.50000,   786.30000
    877.26,  2638.70000,   808.80000
    877.71,  2615.70000,   813.10000
    878.17,  2632.30000,   789.70000
    878.62,  2651.10000,   791.00000
    879.07,  2671.50000,   790.80000
    879.53,  2663.10000,   806.50000
    879.98,  2646.60000,   815.20000
    880.43,  2632.40000,   815.40000
    880.89,  2636.40000,   804.90000
    881.34,  2656.10000,   790.50000
    881.79,  2648.00000,   801.70000
    882.25,  2622.20000,   805.00000
    882.70,  2606.60000,   800.50000
    883.15,  2617.80000,   785.90000
    883.61,  2600.70000,   801.80000
    884.06,  2626.70000,   777.00000
    884.51,  2611.70000,   803.90000
    884.97,  2623.40000,   795.10000
    885.42,  2617.90000,   805.10000
    885.87,  2638.00000,   788.10000
    886.32,  2610.50000,   813.70000
    886.78,  2622.80000,   792.80000
    887.23,  2608.00000,   818.90000
    887.68,  2618.30000,   813.70000
    888.14,  2603.40000,   818.50000
    888.59,  2595.70000,   801.60000
    889.04,  2572.00000,   800.50000
    889.50,  2592.40000,   777.30000
    889.95,  2615.20000,   789.10000
    890.40,  2628.10000,   802.20000
    890.85,  2619.60000,   814.70000
    891.31,  2619.90000,   802.80000
    891.76,  2604.00000,   810.30000
    892.21,  2619.00000,   795.90000
    892.67,  2613.70000,   812.60000
    893.12,  2619.40000,   806.40000
    893.57,  2627.90000,   805.70000
    894.02,  2648.30000,   798.40000
    894.48,  2645.80000,   811.70000
    894.93,  2649.90000,   806.00000
    895.38,  2626.20000,   822.50000
    895.83,  2630.90000,   802.80000
    896.29,  2623.70000,   803.70000
    896.74,  2640.00000,   788.70000
    897.19,  2643.00000,   794.20000
    897.64,  2642.20000,   809.50000
    898.10,  2621.90000,   830.70000
    898.55,  2616.50000,   833.70000
    899.00,  2579.50000,   857.80000
    899.45,  2570.00000,   842.10000
    899.91,  2557.40000,   838.80000
    900.36,  2592.70000,   805.80000
    900.81,  2612.70000,   803.80000
    901.26,  2639.60000,   799.70000
    901.72,  2629.40000,   825.40000
    902.17,  2635.90000,   824.50000
    902.62,  2600.10000,   851.70000
    903.07,  2610.30000,   824.60000
    903.52,  2608.90000,   827.60000
    903.98,  2617.10000,   821.60000
    904.43,  2602.10000,   836.20000
    904.88,  2614.60000,   823.20000
    905.33,  2597.20000,   844.40000
    905.79,  2612.10000,   822.20000
    906.24,  2627.70000,   813.10000
    906.69,  2626.60000,   819.20000
    907.14,  2597.70000,   837.60000
    907.59,  2580.50000,   837.70000
    908.05,  2555.90000,   855.10000
    908.50,  2564.90000,   843.80000
    908.95,  2576.20000,   850.00000
    909.40,  2575.30000,   854.50000
    909.85,  2586.80000,   844.90000
    910.31,  2580.90000,   849.30000
    910.76,  2566.70000,   846.60000
    911.21,  2568.00000,   839.20000
    911.66,  2563.90000,   843.20000
    912.11,  2584.00000,   832.90000
    912.56,  2608.10000,   842.50000
    913.02,  2603.40000,   869.90000
    913.47,  2595.30000,   885.20000
    913.92,  2581.60000,   898.10000
    914.37,  2578.90000,   891.80000
    914.82,  2597.30000,   884.10000
    915.27,  2623.00000,   873.60000
    915.73,  2613.70000,   888.60000
    916.18,  2601.20000,   899.20000
    916.63,  2562.80000,   924.70000
    917.08,  2594.60000,   894.10000
    917.53,  2482.40000,  1004.10000
    917.98,  2832.20000,   729.70000
    918.44,  3011.60000,   838.70000
    918.89,  3062.50000,   934.20000
    919.34,  2970.70000,  1034.20000
    919.79,  2815.50000,  1081.70000
    920.24,  2494.80000,  1203.80000
    920.69,  2624.20000,   942.50000
    921.14,  2609.40000,  1046.50000
    921.59,  2597.90000,  1069.10000
    922.05,  2593.50000,  1097.00000
    922.50,  2616.50000,  1109.90000
    922.95,  2632.40000,  1161.90000
    923.40,  2639.90000,  1220.70000
    923.85,  2653.80000,  1279.40000
    924.30,  2646.10000,  1375.00000
    924.75,  2626.20000,  1490.00000
    925.20,  2603.50000,  1637.90000
    925.66,  2593.20000,  1803.90000
    926.11,  2590.10000,  2008.90000
    926.56,  2612.00000,  2216.90000
    927.01,  2614.00000,  2451.90000
    927.46,  2597.40000,  2668.70000
    927.91,  2570.10000,  2904.40000
    928.36,  2576.90000,  3134.50000
    928.81,  2585.80000,  3431.90000
    929.26,  2615.00000,  3735.60000
    929.71,  2633.50000,  4038.20000
    930.16,  2613.50000,  4331.00000
    930.62,  2600.70000,  4588.30000
    931.07,  2595.50000,  4826.90000
    931.52,  2604.40000,  5028.30000
    931.97,  2618.10000,  5204.50000
    932.42,  2622.90000,  5375.60000
    932.87,  2603.70000,  5569.50000
    933.32,  2625.70000,  5788.00000
    933.77,  2621.50000,  6081.00000
    934.22,  2632.20000,  6349.00000
    934.67,  2630.50000,  6638.50000
    935.12,  2597.10000,  6872.30000
    935.57,  2561.60000,  6995.50000
    936.02,  2583.40000,  6983.90000
    936.47,  2565.20000,  6932.20000
    936.93,  2569.70000,  6824.40000
    937.38,  2592.40000,  6783.80000
    937.83,  2588.70000,  6823.10000
    938.28,  2580.30000,  6908.70000
    938.73,  2595.40000,  6988.20000
    939.18,  2592.80000,  7075.40000
    939.63,  2598.30000,  7172.40000
    940.08,  2617.00000,  7290.10000
    940.53,  2615.30000,  7440.60000
    940.98,  2593.00000,  7584.70000
    941.43,  2583.40000,  7680.30000
    941.88,  2592.60000,  7728.90000
    942.33,  2590.10000,  7779.70000
    942.78,  2606.80000,  7804.90000
    943.23,  2614.40000,  7870.60000
    943.68,  2621.10000,  7947.60000
    944.13,  2629.50000,  8051.30000
    944.58,  2621.60000,  8155.50000
    945.03,  2592.80000,  8217.70000
    945.48,  2587.50000,  8225.80000
    945.93,  2589.30000,  8271.70000
    946.38,  2615.40000,  8329.80000
    946.83,  2637.40000,  8465.00000
    947.28,  2635.60000,  8588.20000
    947.73,  2616.10000,  8647.90000
    948.18,  2600.90000,  8628.00000
    948.63,  2587.60000,  8573.10000
    949.08,  2572.60000,  8535.80000
    949.53,  2564.30000,  8540.60000
    949.98,  2573.80000,  8525.70000
    950.43,  2583.60000,  8516.60000
    950.88,  2603.30000,  8445.30000
    951.33,  2630.70000,  8318.60000
    951.78,  2626.80000,  8214.20000
    952.23,  2606.80000,  8128.60000
    952.68,  2610.00000,  8004.20000
    953.13,  2607.30000,  7878.30000
    953.58,  2595.80000,  7733.00000
    954.03,  2584.40000,  7578.40000
    954.48,  2571.30000,  7453.40000
    954.93,  2562.10000,  7379.20000
    955.38,  2573.90000,  7282.40000
    955.83,  2582.50000,  7216.30000
    956.28,  2594.90000,  7138.60000
    956.73,  2601.40000,  7060.60000
    957.18,  2592.60000,  6991.40000
    957.62,  2597.50000,  6911.80000
    958.07,  2583.10000,  6800.10000
    958.52,  2574.80000,  6650.40000
    958.97,  2576.60000,  6457.80000
    959.42,  2576.60000,  6250.70000
    959.87,  2575.20000,  6050.30000
    960.32,  2596.40000,  5853.90000
    960.77,  2629.90000,  5672.20000
    961.22,  2646.30000,  5503.10000
    961.67,  2626.00000,  5375.70000
    962.12,  2606.00000,  5232.40000
    962.57,  2610.10000,  5075.60000
    963.02,  2600.90000,  4931.80000
    963.47,  2619.70000,  4767.90000
    963.92,  2623.80000,  4655.40000
    964.36,  2609.40000,  4580.80000
    964.81,  2608.20000,  4497.30000
    965.26,  2612.10000,  4442.60000
    965.71,  2605.60000,  4402.40000
    966.16,  2594.60000,  4342.60000
    966.61,  2590.50000,  4267.20000
    967.06,  2608.00000,  4169.50000
    967.51,  2620.30000,  4063.50000
    967.96,  2618.10000,  3966.30000
    968.41,  2617.30000,  3839.40000
    968.85,  2603.50000,  3701.90000
    969.30,  2612.90000,  3533.40000
    969.75,  2614.80000,  3388.40000
    970.20,  2629.20000,  3233.80000
    970.65,  2617.40000,  3110.60000
    971.10,  2616.30000,  2969.20000
    971.55,  2597.30000,  2872.00000
    972.00,  2583.60000,  2780.00000
    972.44,  2602.90000,  2673.20000
    972.89,  2629.60000,  2580.00000
    973.34,  2635.70000,  2498.50000
    973.79,  2646.90000,  2410.00000
    974.24,  2618.70000,  2379.80000
    974.69,  2580.20000,  2350.20000
    975.14,  2574.90000,  2309.80000
    975.59,  2551.00000,  2312.80000
    976.03,  2544.70000,  2285.20000
    976.48,  2548.40000,  2265.10000
    976.93,  2560.00000,  2245.20000
    977.38,  2562.50000,  2232.70000
    977.83,  2575.00000,  2224.20000
    978.28,  2579.10000,  2234.00000
    978.72,  2589.60000,  2237.60000
    979.17,  2596.30000,  2246.80000
    979.62,  2603.80000,  2255.30000
    980.07,  2593.00000,  2264.00000
    980.52,  2578.00000,  2254.30000
    980.97,  2536.70000,  2262.00000
    981.41,  2518.10000,  2232.30000
    981.86,  2539.40000,  2186.10000
    982.31,  2559.30000,  2164.20000
    982.76,  2598.00000,  2110.90000
    983.21,  2605.10000,  2066.20000
    983.66,  2579.60000,  2043.30000
    984.10,  2554.60000,  1991.60000
    984.55,  2542.00000,  1948.70000
    985.00,  2517.50000,  1911.30000
    985.45,  2536.60000,  1826.50000
    985.90,  2556.10000,  1751.30000
    986.34,  2560.20000,  1697.80000
    986.79,  2563.50000,  1634.90000
    987.24,  2545.00000,  1601.50000
    987.69,  2537.30000,  1545.60000
    988.14,  2551.20000,  1485.10000
    988.58,  2564.90000,  1434.30000
    989.03,  2569.30000,  1392.60000
    989.48,  2563.50000,  1369.10000
    989.93,  2537.50000,  1356.00000
    990.38,  2547.10000,  1309.10000
    990.82,  2565.30000,  1275.40000
    991.27,  2593.30000,  1244.70000
    991.72,  2579.40000,  1246.30000
    992.17,  2578.80000,  1231.10000
    992.61,  2551.30000,  1236.30000
    993.06,  2578.30000,  1185.30000
    993.51,  2585.00000,  1166.90000
    993.96,  2582.80000,  1145.40000
    994.41,  2560.80000,  1131.40000
    994.85,  2575.80000,  1086.20000
    995.30,  2573.00000,  1078.00000
    995.75,  2612.20000,  1037.60000
    996.20,  2599.00000,  1055.10000
    996.64,  2564.70000,  1045.00000
    997.09,  2552.80000,  1021.00000
    997.54,  2537.20000,  1006.10000
    997.99,  2536.30000,   990.50000
    998.43,  2537.20000,   987.30000
    998.88,  2538.30000,   983.80000
    999.33,  2563.60000,   958.50000
    999.77,  2587.60000,   958.70000
   1000.22,  2598.40000,   954.60000
   1000.67,  2605.10000,   950.30000
   1001.12,  2574.00000,   969.10000
   1001.56,  2552.40000,   957.80000
   1002.01,  2564.50000,   939.50000
   1002.46,  2547.70000,   950.70000
   1002.91,  2560.40000,   930.30000
   1003.35,  2551.00000,   937.90000
   1003.80,  2552.50000,   932.60000
   1004.25,  2552.40000,   928.40000
   1004.69,  2540.50000,   939.80000
   1005.14,  2547.20000,   920.70000
   1005.59,  2580.40000,   906.70000
   1006.04,  2597.10000,   917.60000
   1006.48,  2626.70000,   906.50000
   1006.93,  2614.80000,   927.60000
   1007.38,  2565.70000,   946.10000
   1007.82,  2547.00000,   919.00000
   1008.27,  2535.70000,   912.50000
   1008.72,  2539.40000,   906.30000
   1009.16,  2547.10000,   900.10000
   1009.61,  2544.80000,   914.40000
   1010.06,  2570.10000,   893.10000
   1010.50,  2594.00000,   894.20000
   1010.95,  2601.70000,   903.10000
   1011.40,  2585.80000,   921.90000
   1011.85,  2576.60000,   916.10000
   1012.29,  2546.20000,   928.40000
   1012.74,  2544.70000,   904.20000
   1013.19,  2583.20000,   882.20000
   1013.63,  2607.90000,   891.80000
   1014.08,  2604.50000,   906.70000
   1014.53,  2592.40000,   910.10000
   1014.97,  2559.70000,   925.20000
   1015.42,  2525.60000,   929.80000
   1015.86,  2553.50000,   889.90000
   1016.31,  2581.10000,   890.40000
   1016.76,  2565.20000,   914.30000
   1017.20,  2540.50000,   919.90000
   1017.65,  2536.10000,   913.10000
   1018.10,  2521.20000,   915.80000
   1018.54,  2551.00000,   881.50000
   1018.99,  2561.80000,   890.80000
   1019.44,  2551.10000,   905.40000
   1019.88,  2546.90000,   902.70000
   1020.33,  2557.40000,   893.60000
   1020.78,  2567.70000,   891.00000
   1021.22,  2569.30000,   898.80000
   1021.67,  2558.90000,   909.00000
   1022.11,  2552.30000,   910.80000
   1022.56,  2539.90000,   923.20000
   1023.01,  2523.60000,   927.70000
   1023.45,  2530.30000,   916.80000
   1023.90,  2517.80000,   922.20000
   1024.34,  2530.70000,   900.60000
   1024.79,  2547.70000,   901.20000
   1025.24,  2542.40000,   922.20000
   1025.68,  2535.00000,   922.50000
   1026.13,  2539.70000,   921.60000
   1026.58,  2555.80000,   907.30000
   1027.02,  2564.70000,   908.00000
   1027.47,  2563.60000,   912.60000
   1027.91,  2532.20000,   930.90000
   1028.36,  2522.80000,   910.60000
   1028.80,  2503.60000,   915.90000
   1029.25,  2516.70000,   904.10000
   1029.70,  2518.40000,   918.10000
   1030.14,  2516.70000,   915.10000
   1030.59,  2508.10000,   912.70000
   1031.03,  2524.70000,   888.20000
   1031.48,  2547.90000,   875.80000
   1031.93,  2578.80000,   879.40000
   1032.37,  2586.60000,   901.50000
   1032.82,  2588.80000,   906.80000
   1033.26,  2558.50000,   935.50000
   1033.71,  2546.80000,   930.70000
   1034.15,  2542.40000,   923.60000
   1034.60,  2558.00000,   909.60000
   1035.05,  2545.60000,   926.80000
   1035.49,  2545.30000,   913.40000
   1035.94,  2508.20000,   941.80000
   1036.38,  2486.90000,   937.60000
   1036.83,  2475.60000,   936.80000
   1037.27,  2482.30000,   930.40000
   1037.72,  2580.70000,   883.00000
   1038.16,  2658.30000,   889.90000
   1038.61,  2663.60000,   931.30000
   1039.05,  2647.20000,   948.70000
   1039.50,  2593.50000,   979.40000
   1039.95,  2533.30000,   976.60000
   1040.39,  2551.80000,   920.60000
   1040.84,  2551.30000,   909.30000
   1041.28,  2536.40000,   909.50000
   1041.73,  2533.50000,   904.90000
   1042.17,  2530.80000,   914.10000
   1042.62,  2549.30000,   911.40000
   1043.06,  2528.50000,   946.10000
   1043.51,  2531.70000,   939.00000
   1043.95,  2529.00000,   951.20000
   1044.40,  2520.80000,   949.40000
   1044.84,  2516.20000,   932.10000
   1045.29,  2531.40000,   911.40000
   1045.73,  2515.30000,   925.00000
   1046.18,  2510.90000,   914.90000
   1046.62,  2508.20000,   918.90000
   1047.07,  2492.30000,   928.30000
   1047.51,  2516.00000,   903.70000
   1047.96,  2561.30000,   897.70000
   1048.40,  2580.30000,   925.50000
   1048.85,  2568.40000,   940.40000
   1049.29,  2529.70000,   962.50000
   1049.74,  2488.00000,   960.60000
   1050.18,  2485.80000,   932.80000
   1050.63,  2497.30000,   921.20000
   1051.07,  2519.50000,   913.50000
   1051.52,  2506.00000,   928.10000
   1051.96,  2490.20000,   932.80000
   1052.41,  2490.20000,   925.40000
   1052.85,  2483.70000,   937.40000
   1053.30,  2486.70000,   941.40000
   1053.74,  2500.10000,   937.30000
   1054.18,  2482.20000,   955.10000
   1054.63,  2477.00000,   945.40000
   1055.07,  2476.20000,   940.70000
   1055.52,  2467.60000,   941.20000
   1055.96,  2458.90000,   948.20000
   1056.41,  2451.70000,   954.40000
   1056.85,  2456.20000,   954.40000
   1057.30,  2457.20000,   958.80000
   1057.74,  2458.00000,   966.50000
   1058.18,  2434.70000,   975.30000
   1058.63,  2432.50000,   959.90000
   1059.07,  2442.00000,   955.90000
   1059.52,  2454.20000,   949.60000
   1059.96,  2454.60000,   952.40000
   1060.41,  2461.00000,   952.00000
   1060.85,  2444.30000,   964.10000
   1061.30,  2440.00000,   955.30000
   1061.74,  2434.30000,   958.60000
   1062.18,  2413.30000,   969.30000
   1062.63,  2408.10000,   964.20000
   1063.07,  2407.50000,   964.50000
   1063.52,  2422.80000,   963.00000
   1063.96,  2428.60000,   964.20000
   1064.40,  2427.10000,   964.40000
   1064.85,  2411.60000,   980.50000
   1065.29,  2389.70000,   982.20000
   1065.74,  2362.00000,   992.10000
   1066.18,  2359.30000,   981.80000
