2D Measure spectrum data V5.74

<< MEASURE 1 >>
Data count = 2048
Exposure time = 30000 msec
Average = 10
Inspected time = 2020/10/23 12:18

Wave-dcm-1,Dark spec.  ,Spectrum
    108.17,  2269.20000,   805.60000
    108.66,  2279.80000,   800.80000
    109.15,  2294.30000,   788.10000
    109.65,  2320.60000,   771.70000
    110.14,  2328.70000,   758.10000
    110.63,  2332.80000,   746.50000
    111.13,  2352.30000,   732.30000
    111.62,  2339.00000,   723.90000
    112.11,  2352.10000,   715.90000
    112.60,  2369.70000,   712.80000
    113.10,  2366.80000,   714.50000
    113.59,  2385.90000,   716.30000
    114.08,  2405.30000,   705.00000
    114.58,  2394.80000,   701.20000
    115.07,  2431.90000,   700.20000
    115.56,  2454.70000,   689.30000
    116.06,  2460.80000,   684.80000
    116.55,  2469.30000,   679.30000
    117.04,  2454.00000,   681.60000
    117.53,  2428.90000,   692.20000
    118.03,  2448.10000,   702.20000
    118.52,  2447.20000,   715.20000
    119.01,  2446.30000,   726.50000
    119.51,  2545.10000,   722.20000
    120.00,  2641.90000,   711.60000
    120.49,  2681.40000,   703.10000
    120.98,  2675.90000,   696.50000
    121.48,  2578.70000,   718.30000
    121.97,  2472.50000,   738.00000
    122.46,  2463.30000,   756.80000
    122.95,  2498.40000,   769.20000
    123.45,  2528.70000,   787.80000
    123.94,  2532.60000,   808.00000
    124.43,  2548.90000,   826.40000
    124.92,  2581.00000,   824.30000
    125.42,  2576.60000,   833.30000
    125.91,  2595.20000,   841.30000
    126.40,  2585.50000,   854.40000
    126.89,  2558.70000,   878.80000
    127.39,  2552.40000,   886.30000
    127.88,  2553.20000,   891.00000
    128.37,  2546.40000,   909.50000
    128.86,  2567.40000,   912.90000
    129.35,  2562.30000,   919.30000
    129.85,  2566.70000,   933.50000
    130.34,  2567.00000,   935.60000
    130.83,  2575.40000,   940.60000
    131.32,  2578.00000,   957.70000
    131.81,  2582.20000,   959.70000
    132.31,  2572.80000,   975.10000
    132.80,  2565.40000,   996.60000
    133.29,  2557.40000,   996.20000
    133.78,  2571.00000,   997.20000
    134.27,  2588.50000,  1002.90000
    134.77,  2601.60000,  1011.20000
    135.26,  2620.30000,  1027.70000
    135.75,  2607.90000,  1044.80000
    136.24,  2620.10000,  1038.60000
    136.73,  2609.80000,  1037.00000
    137.23,  2626.60000,  1040.90000
    137.72,  2623.70000,  1060.90000
    138.21,  2626.50000,  1073.40000
    138.70,  2613.90000,  1081.20000
    139.19,  2646.00000,  1083.30000
    139.68,  2640.40000,  1077.90000
    140.18,  2647.20000,  1077.40000
    140.67,  2649.40000,  1098.40000
    141.16,  2652.90000,  1105.70000
    141.65,  2646.40000,  1109.10000
    142.14,  2651.30000,  1118.00000
    142.63,  2667.50000,  1127.10000
    143.13,  2672.00000,  1137.50000
    143.62,  2696.00000,  1162.90000
    144.11,  2695.30000,  1172.00000
    144.60,  2660.20000,  1184.50000
    145.09,  2649.30000,  1196.60000
    145.58,  2694.80000,  1214.80000
    146.07,  2715.70000,  1228.80000
    146.56,  2722.90000,  1246.10000
    147.06,  2711.50000,  1261.80000
    147.55,  2675.10000,  1279.90000
    148.04,  2639.10000,  1291.30000
    148.53,  2673.00000,  1302.80000
    149.02,  2665.20000,  1312.30000
    149.51,  2740.00000,  1323.70000
    150.00,  2787.90000,  1347.90000
    150.49,  2805.80000,  1368.50000
    150.99,  2801.80000,  1385.80000
    151.48,  2773.00000,  1412.50000
    151.97,  2698.70000,  1430.40000
    152.46,  2703.70000,  1453.30000
    152.95,  2676.60000,  1494.20000
    153.44,  2677.10000,  1527.00000
    153.93,  2701.00000,  1561.10000
    154.42,  2711.70000,  1603.10000
    154.91,  2698.10000,  1623.50000
    155.40,  2685.40000,  1641.70000
    155.89,  2668.00000,  1659.70000
    156.39,  2682.10000,  1670.80000
    156.88,  2668.80000,  1676.50000
    157.37,  2678.30000,  1693.90000
    157.86,  2686.70000,  1715.80000
    158.35,  2690.80000,  1747.40000
    158.84,  2706.30000,  1772.20000
    159.33,  2746.60000,  1801.50000
    159.82,  2756.70000,  1824.50000
    160.31,  2775.60000,  1855.40000
    160.80,  2803.60000,  1892.00000
    161.29,  2759.50000,  1927.20000
    161.78,  2725.60000,  1950.80000
    162.27,  2695.30000,  1972.10000
    162.76,  2696.50000,  1983.10000
    163.25,  2710.20000,  1994.20000
    163.74,  2746.40000,  2004.60000
    164.23,  2751.60000,  2020.10000
    164.72,  2760.40000,  2048.20000
    165.21,  2727.30000,  2075.80000
    165.70,  2713.90000,  2102.50000
    166.20,  2746.40000,  2127.30000
    166.69,  2777.90000,  2147.70000
    167.18,  2797.80000,  2161.20000
    167.67,  2800.10000,  2179.10000
    168.16,  2774.00000,  2191.80000
    168.65,  2730.40000,  2200.90000
    169.14,  2745.80000,  2225.90000
    169.63,  2739.20000,  2245.10000
    170.12,  2733.20000,  2247.20000
    170.61,  2734.10000,  2249.30000
    171.10,  2788.60000,  2244.60000
    171.59,  2788.30000,  2229.70000
    172.08,  2791.10000,  2235.20000
    172.57,  2785.60000,  2228.70000
    173.06,  2782.50000,  2217.50000
    173.55,  2767.50000,  2212.60000
    174.04,  2754.00000,  2212.50000
    174.53,  2748.50000,  2203.00000
    175.02,  2744.10000,  2213.00000
    175.50,  2774.40000,  2226.00000
    175.99,  2806.20000,  2231.30000
    176.48,  2832.70000,  2232.10000
    176.97,  2806.70000,  2226.70000
    177.46,  2808.00000,  2213.20000
    177.95,  2778.20000,  2217.90000
    178.44,  2761.80000,  2233.70000
    178.93,  2744.40000,  2234.50000
    179.42,  2769.60000,  2224.80000
    179.91,  2781.90000,  2210.70000
    180.40,  2789.20000,  2204.80000
    180.89,  2795.40000,  2203.30000
    181.38,  2784.30000,  2213.20000
    181.87,  2780.50000,  2215.10000
    182.36,  2774.10000,  2220.50000
    182.85,  2743.60000,  2232.10000
    183.34,  2755.00000,  2235.80000
    183.83,  2767.40000,  2233.10000
    184.32,  2769.40000,  2235.90000
    184.81,  2818.90000,  2228.90000
    185.29,  2812.80000,  2227.10000
    185.78,  2782.40000,  2222.70000
    186.27,  2789.20000,  2214.70000
    186.76,  2780.00000,  2207.80000
    187.25,  2761.20000,  2200.80000
    187.74,  2826.30000,  2200.10000
    188.23,  2848.30000,  2193.70000
    188.72,  2865.70000,  2180.00000
    189.21,  2854.10000,  2176.70000
    189.70,  2832.90000,  2173.50000
    190.19,  2800.40000,  2179.70000
    190.67,  2789.60000,  2189.40000
    191.16,  2786.80000,  2194.90000
    191.65,  2788.20000,  2199.50000
    192.14,  2772.30000,  2211.70000
    192.63,  2793.80000,  2217.40000
    193.12,  2804.90000,  2219.50000
    193.61,  2793.90000,  2212.70000
    194.10,  2804.40000,  2211.00000
    194.59,  2801.00000,  2200.80000
    195.07,  2794.70000,  2207.00000
    195.56,  2809.60000,  2207.50000
    196.05,  2796.40000,  2208.10000
    196.54,  2788.20000,  2203.30000
    197.03,  2803.10000,  2212.80000
    197.52,  2838.40000,  2215.60000
    198.01,  2849.60000,  2212.90000
    198.49,  2854.90000,  2206.60000
    198.98,  2842.40000,  2202.10000
    199.47,  2806.40000,  2184.60000
    199.96,  2791.90000,  2192.80000
    200.45,  2798.20000,  2196.40000
    200.94,  2781.40000,  2194.80000
    201.43,  2783.30000,  2183.00000
    201.91,  2777.90000,  2175.50000
    202.40,  2771.30000,  2159.40000
    202.89,  2777.90000,  2154.30000
    203.38,  2799.40000,  2142.80000
    203.87,  2801.50000,  2150.90000
    204.36,  2788.40000,  2149.60000
    204.84,  2786.10000,  2165.40000
    205.33,  2798.80000,  2173.00000
    205.82,  2810.20000,  2177.20000
    206.31,  2801.50000,  2189.90000
    206.80,  2799.30000,  2206.20000
    207.28,  2810.10000,  2206.80000
    207.77,  2820.20000,  2203.20000
    208.26,  2838.20000,  2187.80000
    208.75,  2845.20000,  2169.30000
    209.24,  2820.70000,  2171.90000
    209.72,  2822.20000,  2180.10000
    210.21,  2835.90000,  2180.40000
    210.70,  2813.40000,  2182.50000
    211.19,  2834.10000,  2179.60000
    211.68,  2843.40000,  2184.70000
    212.16,  2851.80000,  2187.70000
    212.65,  2852.70000,  2208.20000
    213.14,  2840.70000,  2217.40000
    213.63,  2828.10000,  2222.60000
    214.12,  2813.50000,  2220.90000
    214.60,  2823.40000,  2231.60000
    215.09,  2838.30000,  2239.90000
    215.58,  2835.50000,  2259.80000
    216.07,  2823.90000,  2283.60000
    216.55,  2825.40000,  2286.80000
    217.04,  2765.90000,  2292.20000
    217.53,  2764.40000,  2304.30000
    218.02,  2758.20000,  2328.00000
    218.50,  2780.70000,  2322.30000
    218.99,  2816.10000,  2330.70000
    219.48,  2847.00000,  2349.10000
    219.97,  2815.70000,  2380.50000
    220.45,  2815.20000,  2419.10000
    220.94,  2789.90000,  2476.60000
    221.43,  2803.30000,  2496.20000
    221.92,  2826.30000,  2521.10000
    222.40,  2827.50000,  2549.20000
    222.89,  2822.70000,  2565.90000
    223.38,  2848.30000,  2582.90000
    223.86,  2868.50000,  2604.80000
    224.35,  2892.50000,  2634.60000
    224.84,  2886.80000,  2674.70000
    225.33,  2872.50000,  2697.10000
    225.81,  2838.80000,  2716.60000
    226.30,  2824.50000,  2729.30000
    226.79,  2822.00000,  2733.50000
    227.27,  2814.70000,  2746.20000
    227.76,  2816.80000,  2753.50000
    228.25,  2845.20000,  2750.80000
    228.74,  2856.80000,  2739.60000
    229.22,  2868.30000,  2727.30000
    229.71,  2854.80000,  2717.60000
    230.20,  2834.60000,  2704.50000
    230.68,  2831.50000,  2677.60000
    231.17,  2821.80000,  2644.00000
    231.66,  2801.80000,  2604.00000
    232.14,  2794.50000,  2580.80000
    232.63,  2789.90000,  2556.50000
    233.12,  2808.30000,  2537.70000
    233.60,  2829.80000,  2506.00000
    234.09,  2810.20000,  2472.70000
    234.58,  2802.20000,  2417.40000
    235.06,  2802.00000,  2383.80000
    235.55,  2802.20000,  2345.30000
    236.04,  2795.50000,  2326.70000
    236.52,  2808.90000,  2301.90000
    237.01,  2798.10000,  2274.90000
    237.50,  2834.70000,  2231.10000
    237.98,  2832.00000,  2210.90000
    238.47,  2881.20000,  2197.80000
    238.96,  2883.50000,  2186.80000
    239.44,  2874.20000,  2173.20000
    239.93,  2870.10000,  2155.60000
    240.41,  2821.40000,  2149.70000
    240.90,  2762.80000,  2142.40000
    241.39,  2787.80000,  2140.10000
    241.87,  2828.30000,  2120.90000
    242.36,  2849.40000,  2108.90000
    242.85,  2892.00000,  2097.40000
    243.33,  2878.70000,  2097.30000
    243.82,  2852.90000,  2089.00000
    244.30,  2830.60000,  2076.30000
    244.79,  2831.70000,  2067.80000
    245.28,  2813.30000,  2055.10000
    245.76,  2817.10000,  2047.10000
    246.25,  2808.70000,  2057.20000
    246.74,  2825.50000,  2059.80000
    247.22,  2851.40000,  2059.30000
    247.71,  2845.70000,  2068.30000
    248.19,  2841.20000,  2055.20000
    248.68,  2839.50000,  2056.80000
    249.16,  2810.00000,  2061.90000
    249.65,  2834.90000,  2056.90000
    250.14,  2846.80000,  2051.80000
    250.62,  2821.80000,  2055.60000
    251.11,  2796.60000,  2057.40000
    251.59,  2769.70000,  2067.20000
    252.08,  2758.40000,  2062.50000
    252.57,  2779.50000,  2051.20000
    253.05,  2799.30000,  2028.80000
    253.54,  2839.80000,  2025.30000
    254.02,  2864.80000,  2026.20000
    254.51,  2866.60000,  2031.20000
    254.99,  2859.60000,  2032.70000
    255.48,  2826.80000,  2030.40000
    255.96,  2807.50000,  2014.60000
    256.45,  2829.60000,  2006.40000
    256.94,  2844.10000,  1993.80000
    257.42,  2840.60000,  1997.20000
    257.91,  2846.80000,  2004.70000
    258.39,  2836.30000,  2009.00000
    258.88,  2824.30000,  2020.50000
    259.36,  2834.80000,  2027.90000
    259.85,  2839.80000,  2022.70000
    260.33,  2851.50000,  2023.80000
    260.82,  2872.10000,  2016.40000
    261.30,  2875.00000,  2014.40000
    261.79,  2845.60000,  2018.40000
    262.27,  2815.00000,  2023.90000
    262.76,  2799.50000,  2016.30000
    263.24,  2800.00000,  2014.60000
    263.73,  2822.70000,  2020.50000
    264.22,  2832.40000,  2025.20000
    264.70,  2897.90000,  2022.20000
    265.19,  2917.60000,  2023.70000
    265.67,  2922.10000,  2020.10000
    266.16,  2896.70000,  2019.10000
    266.64,  2866.10000,  2030.80000
    267.13,  2808.20000,  2027.60000
    267.61,  2812.90000,  2022.50000
    268.10,  2825.80000,  2015.70000
    268.58,  2836.40000,  2012.90000
    269.06,  2839.90000,  2018.80000
    269.55,  2858.70000,  2029.40000
    270.03,  2862.80000,  2036.10000
    270.52,  2857.20000,  2046.00000
    271.00,  2861.30000,  2056.60000
    271.49,  2858.00000,  2066.30000
    271.97,  2851.60000,  2079.90000
    272.46,  2865.00000,  2080.50000
    272.94,  2867.40000,  2084.70000
    273.43,  2861.00000,  2094.50000
    273.91,  2831.90000,  2108.00000
    274.40,  2822.60000,  2112.80000
    274.88,  2811.60000,  2124.10000
    275.37,  2819.90000,  2123.00000
    275.85,  2820.40000,  2136.70000
    276.33,  2820.20000,  2150.00000
    276.82,  2827.30000,  2164.50000
    277.30,  2837.50000,  2173.30000
    277.79,  2832.20000,  2193.10000
    278.27,  2848.30000,  2198.20000
    278.76,  2858.90000,  2214.50000
    279.24,  2857.30000,  2227.70000
    279.73,  2852.30000,  2243.10000
    280.21,  2842.80000,  2250.40000
    280.69,  2821.10000,  2263.60000
    281.18,  2828.50000,  2267.80000
    281.66,  2847.30000,  2271.20000
    282.15,  2880.00000,  2285.50000
    282.63,  2873.20000,  2292.40000
    283.11,  2871.40000,  2286.30000
    283.60,  2867.70000,  2295.00000
    284.08,  2876.00000,  2305.30000
    284.57,  2853.80000,  2321.90000
    285.05,  2851.50000,  2340.40000
    285.53,  2830.60000,  2345.10000
    286.02,  2811.10000,  2354.70000
    286.50,  2828.10000,  2370.40000
    286.99,  2845.20000,  2378.30000
    287.47,  2822.30000,  2396.50000
    287.95,  2807.90000,  2396.30000
    288.44,  2803.60000,  2377.70000
    288.92,  2808.30000,  2361.10000
    289.41,  2831.30000,  2347.00000
    289.89,  2862.20000,  2331.60000
    290.37,  2866.40000,  2336.20000
    290.86,  2882.20000,  2349.00000
    291.34,  2851.70000,  2349.80000
    291.82,  2832.90000,  2353.00000
    292.31,  2809.60000,  2346.60000
    292.79,  2818.60000,  2330.60000
    293.28,  2815.70000,  2320.60000
    293.76,  2833.00000,  2314.40000
    294.24,  2836.60000,  2303.60000
    294.73,  2852.60000,  2295.80000
    295.21,  2861.50000,  2282.60000
    295.69,  2867.20000,  2268.50000
    296.18,  2839.40000,  2261.60000
    296.66,  2806.70000,  2260.80000
    297.14,  2801.50000,  2252.40000
    297.63,  2814.00000,  2237.40000
    298.11,  2836.20000,  2220.90000
    298.59,  2866.10000,  2205.70000
    299.08,  2877.10000,  2189.50000
    299.56,  2880.20000,  2175.30000
    300.04,  2893.70000,  2158.40000
    300.53,  2896.50000,  2144.40000
    301.01,  2893.70000,  2123.30000
    301.49,  2878.60000,  2120.50000
    301.98,  2846.00000,  2107.90000
    302.46,  2828.20000,  2087.80000
    302.94,  2829.40000,  2077.90000
    303.42,  2830.70000,  2065.10000
    303.91,  2815.70000,  2045.60000
    304.39,  2791.30000,  2050.80000
    304.87,  2790.00000,  2042.10000
    305.36,  2808.40000,  2035.00000
    305.84,  2845.90000,  2024.80000
    306.32,  2887.50000,  2000.20000
    306.81,  2876.90000,  1971.50000
    307.29,  2854.20000,  1955.60000
    307.77,  2848.70000,  1941.20000
    308.25,  2845.90000,  1942.40000
    308.74,  2856.80000,  1940.90000
    309.22,  2852.90000,  1937.40000
    309.70,  2832.90000,  1928.30000
    310.18,  2820.70000,  1914.00000
    310.67,  2833.30000,  1901.10000
    311.15,  2855.00000,  1892.10000
    311.63,  2874.70000,  1884.50000
    312.12,  2877.00000,  1880.90000
    312.60,  2845.60000,  1875.50000
    313.08,  2822.10000,  1856.50000
    313.56,  2813.10000,  1841.00000
    314.05,  2813.70000,  1833.70000
    314.53,  2844.10000,  1825.50000
    315.01,  2892.90000,  1823.90000
    315.49,  2883.00000,  1835.60000
    315.98,  2883.80000,  1827.00000
    316.46,  2855.50000,  1821.30000
    316.94,  2810.90000,  1824.50000
    317.42,  2804.10000,  1816.60000
    317.90,  2805.50000,  1807.90000
    318.39,  2789.40000,  1810.00000
    318.87,  2840.30000,  1791.60000
    319.35,  2860.60000,  1783.90000
    319.83,  2866.00000,  1786.00000
    320.32,  2880.90000,  1782.40000
    320.80,  2885.70000,  1769.30000
    321.28,  2855.70000,  1759.50000
    321.76,  2886.80000,  1746.40000
    322.24,  2883.50000,  1748.30000
    322.73,  2887.80000,  1766.90000
    323.21,  2886.70000,  1779.10000
    323.69,  2886.60000,  1778.70000
    324.17,  2838.30000,  1770.10000
    324.65,  2810.60000,  1765.20000
    325.14,  2818.00000,  1754.50000
    325.62,  2832.20000,  1757.70000
    326.10,  2878.30000,  1758.80000
    326.58,  2890.30000,  1761.90000
    327.06,  2854.90000,  1767.40000
    327.55,  2873.70000,  1761.40000
    328.03,  2904.40000,  1751.50000
    328.51,  2916.50000,  1741.90000
    328.99,  2932.70000,  1730.40000
    329.47,  2910.70000,  1729.80000
    329.95,  2837.40000,  1745.30000
    330.44,  2836.90000,  1746.10000
    330.92,  2808.20000,  1747.70000
    331.40,  2794.70000,  1750.40000
    331.88,  2796.70000,  1739.30000
    332.36,  2811.20000,  1734.90000
    332.84,  2834.00000,  1746.80000
    333.33,  2871.70000,  1746.50000
    333.81,  2876.40000,  1738.20000
    334.29,  2881.90000,  1742.10000
    334.77,  2886.90000,  1724.50000
    335.25,  2876.70000,  1711.20000
    335.73,  2890.90000,  1705.30000
    336.21,  2881.90000,  1700.20000
    336.69,  2862.00000,  1701.10000
    337.18,  2841.90000,  1714.70000
    337.66,  2822.60000,  1712.90000
    338.14,  2814.50000,  1699.40000
    338.62,  2812.50000,  1695.80000
    339.10,  2833.40000,  1703.60000
    339.58,  2867.50000,  1715.80000
    340.06,  2876.90000,  1723.60000
    340.54,  2882.60000,  1717.80000
    341.03,  2876.20000,  1715.70000
    341.51,  2846.80000,  1721.50000
    341.99,  2849.70000,  1728.00000
    342.47,  2856.70000,  1725.30000
    342.95,  2849.60000,  1717.20000
    343.43,  2848.70000,  1702.40000
    343.91,  2843.70000,  1695.00000
    344.39,  2819.20000,  1695.20000
    344.87,  2810.10000,  1695.70000
    345.35,  2829.10000,  1690.00000
    345.84,  2843.10000,  1689.50000
    346.32,  2888.50000,  1683.20000
    346.80,  2900.90000,  1674.00000
    347.28,  2888.60000,  1683.00000
    347.76,  2857.70000,  1690.90000
    348.24,  2857.20000,  1692.10000
    348.72,  2876.40000,  1691.50000
    349.20,  2900.20000,  1687.90000
    349.68,  2885.40000,  1680.20000
    350.16,  2858.30000,  1679.30000
    350.64,  2815.80000,  1682.30000
    351.12,  2805.90000,  1683.40000
    351.60,  2856.60000,  1690.80000
    352.08,  2893.60000,  1705.50000
    352.56,  2918.40000,  1706.50000
    353.04,  2917.50000,  1701.40000
    353.53,  2894.70000,  1695.60000
    354.01,  2872.80000,  1679.70000
    354.49,  2879.50000,  1682.20000
    354.97,  2860.90000,  1703.10000
    355.45,  2897.80000,  1666.40000
    355.93,  2938.20000,  1609.40000
    356.41,  2979.50000,  1574.50000
    356.89,  2964.30000,  1568.30000
    357.37,  2928.10000,  1618.30000
    357.85,  2846.60000,  1686.70000
    358.33,  2820.90000,  1704.60000
    358.81,  2811.10000,  1693.50000
    359.29,  2829.70000,  1676.50000
    359.77,  2852.10000,  1670.50000
    360.25,  2868.50000,  1677.80000
    360.73,  2863.10000,  1685.00000
    361.21,  2855.60000,  1683.80000
    361.69,  2860.20000,  1681.40000
    362.17,  2862.80000,  1678.90000
    362.65,  2872.80000,  1684.10000
    363.13,  2872.70000,  1699.70000
    363.61,  2871.00000,  1711.50000
    364.09,  2839.20000,  1713.70000
    364.57,  2833.80000,  1714.80000
    365.05,  2834.90000,  1708.60000
    365.53,  2825.90000,  1696.80000
    366.01,  2848.30000,  1698.60000
    366.49,  2880.70000,  1697.90000
    366.97,  2840.50000,  1706.10000
    367.45,  2848.30000,  1719.80000
    367.93,  2877.10000,  1717.50000
    368.41,  2878.50000,  1703.80000
    368.89,  2890.10000,  1696.80000
    369.37,  2896.10000,  1692.30000
    369.85,  2847.90000,  1696.50000
    370.33,  2860.40000,  1704.10000
    370.80,  2881.20000,  1702.50000
    371.28,  2881.30000,  1706.00000
    371.76,  2853.90000,  1711.60000
    372.24,  2828.80000,  1722.30000
    372.72,  2820.20000,  1733.30000
    373.20,  2842.60000,  1733.70000
    373.68,  2880.60000,  1727.00000
    374.16,  2911.00000,  1718.80000
    374.64,  2888.90000,  1721.10000
    375.12,  2862.30000,  1729.50000
    375.60,  2881.70000,  1732.20000
    376.08,  2855.40000,  1736.90000
    376.56,  2850.70000,  1729.30000
    377.04,  2853.10000,  1717.10000
    377.52,  2852.10000,  1723.00000
    377.99,  2849.80000,  1738.50000
    378.47,  2880.00000,  1739.00000
    378.95,  2856.80000,  1756.30000
    379.43,  2875.00000,  1755.50000
    379.91,  2885.50000,  1744.70000
    380.39,  2928.40000,  1750.00000
    380.87,  2947.60000,  1753.80000
    381.35,  2934.90000,  1756.80000
    381.83,  2892.90000,  1776.70000
    382.31,  2859.20000,  1786.30000
    382.79,  2828.90000,  1777.40000
    383.26,  2840.70000,  1781.20000
    383.74,  2847.60000,  1765.30000
    384.22,  2848.30000,  1755.60000
    384.70,  2844.40000,  1771.50000
    385.18,  2818.50000,  1785.20000
    385.66,  2828.50000,  1796.80000
    386.14,  2840.00000,  1803.70000
    386.62,  2859.20000,  1801.20000
    387.09,  2883.30000,  1804.60000
    387.57,  2890.30000,  1815.90000
    388.05,  2876.70000,  1818.50000
    388.53,  2868.20000,  1829.40000
    389.01,  2868.50000,  1829.30000
    389.49,  2882.70000,  1830.80000
    389.97,  2883.50000,  1836.30000
    390.44,  2868.10000,  1838.00000
    390.92,  2848.10000,  1836.20000
    391.40,  2832.40000,  1830.20000
    391.88,  2838.30000,  1830.80000
    392.36,  2854.20000,  1837.60000
    392.84,  2865.70000,  1841.20000
    393.32,  2877.30000,  1845.40000
    393.79,  2874.90000,  1843.80000
    394.27,  2921.80000,  1835.60000
    394.75,  2916.90000,  1850.10000
    395.23,  2907.30000,  1857.90000
    395.71,  2887.40000,  1850.10000
    396.18,  2884.10000,  1844.50000
    396.66,  2891.10000,  1839.50000
    397.14,  2923.80000,  1841.50000
    397.62,  2888.90000,  1870.10000
    398.10,  2881.80000,  1882.30000
    398.58,  2866.20000,  1877.20000
    399.05,  2873.40000,  1871.80000
    399.53,  2885.60000,  1862.60000
    400.01,  2886.10000,  1846.70000
    400.49,  2860.20000,  1853.50000
    400.97,  2842.10000,  1860.30000
    401.44,  2816.60000,  1857.60000
    401.92,  2835.70000,  1849.50000
    402.40,  2837.10000,  1850.60000
    402.88,  2861.00000,  1842.90000
    403.36,  2871.40000,  1851.70000
    403.83,  2884.40000,  1853.90000
    404.31,  2857.40000,  1843.00000
    404.79,  2867.80000,  1836.60000
    405.27,  2847.40000,  1839.50000
    405.74,  2844.90000,  1839.10000
    406.22,  2869.20000,  1842.00000
    406.70,  2888.30000,  1839.90000
    407.18,  2869.10000,  1834.60000
    407.65,  2851.80000,  1833.80000
    408.13,  2819.40000,  1830.60000
    408.61,  2824.50000,  1827.60000
    409.09,  2842.90000,  1824.50000
    409.56,  2858.10000,  1815.40000
    410.04,  2872.00000,  1816.50000
    410.52,  2858.10000,  1817.50000
    411.00,  2833.20000,  1815.90000
    411.47,  2820.20000,  1822.90000
    411.95,  2805.00000,  1823.20000
    412.43,  2811.00000,  1810.20000
    412.91,  2814.20000,  1810.60000
    413.38,  2836.80000,  1798.00000
    413.86,  2857.30000,  1783.20000
    414.34,  2865.00000,  1771.70000
    414.82,  2875.30000,  1758.50000
    415.29,  2871.00000,  1757.90000
    415.77,  2866.20000,  1766.70000
    416.25,  2864.80000,  1765.50000
    416.72,  2859.50000,  1770.70000
    417.20,  2849.60000,  1759.00000
    417.68,  2825.10000,  1738.90000
    418.16,  2827.40000,  1730.00000
    418.63,  2848.10000,  1730.40000
    419.11,  2846.00000,  1734.60000
    419.59,  2844.90000,  1740.10000
    420.06,  2821.80000,  1730.10000
    420.54,  2794.80000,  1729.50000
    421.02,  2825.20000,  1728.10000
    421.50,  2851.10000,  1729.90000
    421.97,  2861.90000,  1714.70000
    422.45,  2851.90000,  1695.10000
    422.93,  2836.10000,  1686.30000
    423.40,  2814.10000,  1698.50000
    423.88,  2816.10000,  1706.10000
    424.36,  2828.00000,  1707.00000
    424.83,  2846.00000,  1699.10000
    425.31,  2866.10000,  1691.20000
    425.79,  2912.60000,  1688.40000
    426.26,  2945.80000,  1682.40000
    426.74,  2922.40000,  1678.90000
    427.22,  2906.10000,  1672.80000
    427.69,  2881.10000,  1677.90000
    428.17,  2855.80000,  1685.60000
    428.65,  2852.50000,  1682.10000
    429.12,  2887.20000,  1680.40000
    429.60,  2870.40000,  1678.90000
    430.08,  2879.90000,  1671.60000
    430.55,  2878.80000,  1667.30000
    431.03,  2877.50000,  1670.00000
    431.50,  2874.60000,  1667.10000
    431.98,  2874.60000,  1665.70000
    432.46,  2879.20000,  1659.20000
    432.93,  2864.80000,  1654.80000
    433.41,  2845.70000,  1642.70000
    433.89,  2842.30000,  1649.70000
    434.36,  2840.70000,  1655.10000
    434.84,  2836.30000,  1653.70000
    435.31,  2858.60000,  1653.10000
    435.79,  2852.40000,  1667.10000
    436.27,  2840.10000,  1666.90000
    436.74,  2832.70000,  1675.00000
    437.22,  2834.70000,  1674.90000
    437.70,  2833.20000,  1666.10000
    438.17,  2831.00000,  1659.20000
    438.65,  2829.90000,  1660.20000
    439.12,  2838.60000,  1661.30000
    439.60,  2837.10000,  1669.10000
    440.08,  2845.70000,  1665.20000
    440.55,  2840.70000,  1653.40000
    441.03,  2852.20000,  1651.00000
    441.50,  2852.70000,  1645.30000
    441.98,  2860.40000,  1645.20000
    442.45,  2847.50000,  1658.50000
    442.93,  2839.80000,  1661.60000
    443.41,  2831.50000,  1659.30000
    443.88,  2844.50000,  1665.10000
    444.36,  2845.10000,  1656.00000
    444.83,  2847.00000,  1647.90000
    445.31,  2844.10000,  1648.50000
    445.78,  2817.60000,  1649.50000
    446.26,  2812.40000,  1652.10000
    446.74,  2813.30000,  1658.90000
    447.21,  2837.40000,  1657.60000
    447.69,  2856.80000,  1668.30000
    448.16,  2875.70000,  1672.00000
    448.64,  2853.10000,  1666.90000
    449.11,  2839.50000,  1665.40000
    449.59,  2840.50000,  1653.10000
    450.06,  2845.90000,  1641.00000
    450.54,  2844.80000,  1642.80000
    451.02,  2873.40000,  1644.80000
    451.49,  2875.60000,  1653.70000
    451.97,  2866.00000,  1678.70000
    452.44,  2859.90000,  1682.00000
    452.92,  2845.20000,  1679.50000
    453.39,  2835.50000,  1656.60000
    453.87,  2850.10000,  1642.80000
    454.34,  2856.20000,  1641.00000
    454.82,  2855.90000,  1654.90000
    455.29,  2862.20000,  1671.90000
    455.77,  2867.00000,  1670.90000
    456.24,  2844.60000,  1660.10000
    456.72,  2825.10000,  1657.40000
    457.19,  2826.40000,  1642.80000
    457.67,  2838.10000,  1638.20000
    458.14,  2867.80000,  1637.50000
    458.62,  2873.10000,  1633.90000
    459.09,  2856.10000,  1641.90000
    459.57,  2834.20000,  1645.50000
    460.04,  2838.40000,  1645.70000
    460.52,  2842.30000,  1644.40000
    460.99,  2845.00000,  1633.70000
    461.47,  2833.90000,  1670.10000
    461.94,  2819.10000,  1674.60000
    462.42,  2819.30000,  1671.10000
    462.89,  2831.60000,  1671.60000
    463.37,  2845.40000,  1658.10000
    463.84,  2848.90000,  1641.80000
    464.32,  2849.10000,  1660.50000
    464.79,  2849.10000,  1658.30000
    465.26,  2853.20000,  1648.10000
    465.74,  2846.00000,  1649.60000
    466.21,  2868.50000,  1647.70000
    466.69,  2874.20000,  1653.80000
    467.16,  2868.40000,  1662.80000
    467.64,  2849.00000,  1668.50000
    468.11,  2829.00000,  1660.70000
    468.59,  2827.60000,  1651.20000
    469.06,  2851.40000,  1640.00000
    469.54,  2877.10000,  1643.30000
    470.01,  2879.60000,  1645.90000
    470.48,  2847.70000,  1645.40000
    470.96,  2858.40000,  1661.50000
    471.43,  2878.70000,  1656.50000
    471.91,  2900.40000,  1651.70000
    472.38,  2931.30000,  1643.90000
    472.86,  2910.30000,  1621.40000
    473.33,  2856.50000,  1624.80000
    473.80,  2838.40000,  1651.30000
    474.28,  2831.80000,  1670.90000
    474.75,  2839.60000,  1683.30000
    475.23,  2875.40000,  1685.90000
    475.70,  2883.00000,  1659.20000
    476.17,  2871.30000,  1651.80000
    476.65,  2875.90000,  1640.40000
    477.12,  2870.50000,  1648.30000
    477.60,  2839.40000,  1646.10000
    478.07,  2843.90000,  1653.00000
    478.54,  2858.00000,  1652.50000
    479.02,  2874.00000,  1651.00000
    479.49,  2894.70000,  1655.80000
    479.97,  2891.60000,  1662.40000
    480.44,  2870.90000,  1660.60000
    480.91,  2842.90000,  1655.70000
    481.39,  2832.80000,  1661.90000
    481.86,  2834.60000,  1656.20000
    482.34,  2815.70000,  1664.00000
    482.81,  2833.30000,  1666.60000
    483.28,  2854.10000,  1670.70000
    483.76,  2848.50000,  1660.80000
    484.23,  2858.20000,  1666.60000
    484.70,  2849.90000,  1661.50000
    485.18,  2841.20000,  1656.80000
    485.65,  2851.20000,  1652.60000
    486.12,  2854.90000,  1659.30000
    486.60,  2839.50000,  1667.60000
    487.07,  2846.80000,  1669.70000
    487.55,  2866.40000,  1678.70000
    488.02,  2882.00000,  1681.10000
    488.49,  2887.50000,  1661.80000
    488.97,  2903.20000,  1650.50000
    489.44,  2892.00000,  1645.30000
    489.91,  2859.20000,  1641.70000
    490.39,  2838.20000,  1653.40000
    490.86,  2794.60000,  1664.60000
    491.33,  2768.50000,  1668.70000
    491.81,  2812.00000,  1660.10000
    492.28,  2855.00000,  1650.50000
    492.75,  2859.70000,  1642.10000
    493.23,  2901.10000,  1637.80000
    493.70,  2915.70000,  1630.60000
    494.17,  2908.70000,  1639.90000
    494.64,  2900.30000,  1640.40000
    495.12,  2871.10000,  1646.00000
    495.59,  2878.30000,  1644.00000
    496.06,  2903.60000,  1645.00000
    496.54,  2913.20000,  1640.00000
    497.01,  2892.30000,  1641.30000
    497.48,  2875.40000,  1644.30000
    497.96,  2858.00000,  1645.00000
    498.43,  2886.20000,  1639.50000
    498.90,  2887.30000,  1641.20000
    499.37,  2899.10000,  1643.10000
    499.85,  2879.40000,  1634.10000
    500.32,  2876.20000,  1633.50000
    500.79,  2867.30000,  1626.80000
    501.27,  2870.40000,  1624.60000
    501.74,  2858.80000,  1634.10000
    502.21,  2850.00000,  1643.60000
    502.68,  2840.00000,  1640.50000
    503.16,  2827.10000,  1637.20000
    503.63,  2825.30000,  1635.60000
    504.10,  2836.60000,  1627.30000
    504.57,  2834.60000,  1623.40000
    505.05,  2854.50000,  1617.80000
    505.52,  2873.80000,  1622.60000
    505.99,  2867.50000,  1623.10000
    506.46,  2857.20000,  1644.40000
    506.94,  2840.80000,  1648.90000
    507.41,  2826.40000,  1648.50000
    507.88,  2829.20000,  1639.30000
    508.35,  2829.30000,  1625.50000
    508.83,  2821.10000,  1622.20000
    509.30,  2849.00000,  1628.80000
    509.77,  2857.30000,  1638.00000
    510.24,  2859.50000,  1641.30000
    510.72,  2840.40000,  1652.40000
    511.19,  2828.80000,  1642.00000
    511.66,  2819.00000,  1650.10000
    512.13,  2845.70000,  1641.90000
    512.60,  2835.60000,  1638.30000
    513.08,  2838.60000,  1620.00000
    513.55,  2832.30000,  1619.90000
    514.02,  2817.40000,  1614.60000
    514.49,  2814.20000,  1614.40000
    514.97,  2823.30000,  1624.70000
    515.44,  2833.20000,  1632.00000
    515.91,  2837.00000,  1629.30000
    516.38,  2837.40000,  1625.20000
    516.85,  2801.00000,  1621.00000
    517.33,  2788.70000,  1607.90000
    517.80,  2791.80000,  1609.10000
    518.27,  2818.60000,  1608.90000
    518.74,  2861.60000,  1602.80000
    519.21,  2883.50000,  1599.80000
    519.68,  2857.30000,  1602.20000
    520.16,  2833.10000,  1612.40000
    520.63,  2810.60000,  1618.00000
    521.10,  2805.60000,  1624.40000
    521.57,  2835.70000,  1625.20000
    522.04,  2842.20000,  1630.10000
    522.52,  2842.90000,  1621.50000
    522.99,  2835.50000,  1618.00000
    523.46,  2841.20000,  1621.70000
    523.93,  2850.20000,  1622.50000
    524.40,  2871.50000,  1626.70000
    524.87,  2863.10000,  1631.60000
    525.34,  2859.30000,  1628.40000
    525.82,  2850.20000,  1629.30000
    526.29,  2846.40000,  1644.80000
    526.76,  2842.90000,  1647.00000
    527.23,  2857.70000,  1630.10000
    527.70,  2847.40000,  1625.30000
    528.17,  2851.10000,  1616.40000
    528.64,  2845.30000,  1621.40000
    529.12,  2843.90000,  1635.10000
    529.59,  2839.70000,  1649.00000
    530.06,  2845.30000,  1651.20000
    530.53,  2874.50000,  1657.20000
    531.00,  2849.60000,  1658.90000
    531.47,  2801.00000,  1667.70000
    531.94,  2793.90000,  1663.10000
    532.41,  2792.10000,  1669.40000
    532.89,  2821.20000,  1670.70000
    533.36,  2880.90000,  1669.50000
    533.83,  2865.00000,  1676.50000
    534.30,  2841.10000,  1694.30000
    534.77,  2852.70000,  1695.20000
    535.24,  2855.30000,  1703.50000
    535.71,  2859.40000,  1700.70000
    536.18,  2870.50000,  1702.00000
    536.65,  2861.40000,  1699.10000
    537.13,  2833.70000,  1707.40000
    537.60,  2817.90000,  1706.10000
    538.07,  2817.10000,  1705.40000
    538.54,  2809.60000,  1705.10000
    539.01,  2828.20000,  1721.00000
    539.48,  2862.90000,  1733.30000
    539.95,  2872.90000,  1748.00000
    540.42,  2877.80000,  1751.80000
    540.89,  2866.50000,  1746.40000
    541.36,  2847.10000,  1737.10000
    541.83,  2840.00000,  1744.00000
    542.30,  2841.10000,  1750.10000
    542.77,  2845.20000,  1771.60000
    543.25,  2863.80000,  1783.60000
    543.72,  2862.60000,  1793.30000
    544.19,  2855.90000,  1802.70000
    544.66,  2841.90000,  1804.40000
    545.13,  2835.20000,  1796.80000
    545.60,  2826.40000,  1801.00000
    546.07,  2854.30000,  1798.70000
    546.54,  2866.60000,  1801.70000
    547.01,  2866.10000,  1812.00000
    547.48,  2864.40000,  1823.80000
    547.95,  2844.80000,  1832.40000
    548.42,  2828.00000,  1841.20000
    548.89,  2857.50000,  1843.30000
    549.36,  2848.80000,  1848.20000
    549.83,  2845.20000,  1856.50000
    550.30,  2888.50000,  1866.30000
    550.77,  2889.80000,  1869.80000
    551.24,  2899.30000,  1867.80000
    551.71,  2910.60000,  1875.40000
    552.18,  2870.00000,  1880.00000
    552.65,  2816.20000,  1896.10000
    553.12,  2834.10000,  1903.90000
    553.59,  2841.90000,  1897.30000
    554.06,  2854.00000,  1882.70000
    554.53,  2867.20000,  1887.40000
    555.00,  2860.70000,  1891.10000
    555.47,  2850.00000,  1917.30000
    555.94,  2843.30000,  1940.30000
    556.41,  2833.50000,  1944.80000
    556.88,  2810.90000,  1942.70000
    557.35,  2809.70000,  1938.10000
    557.82,  2810.50000,  1936.30000
    558.29,  2830.70000,  1942.90000
    558.76,  2868.50000,  1948.80000
    559.23,  2877.30000,  1945.50000
    559.70,  2870.00000,  1949.00000
    560.17,  2859.90000,  1955.40000
    560.64,  2844.90000,  1965.70000
    561.11,  2834.10000,  1962.60000
    561.58,  2858.30000,  1950.80000
    562.05,  2855.70000,  1918.60000
    562.52,  2865.40000,  1910.30000
    562.99,  2861.30000,  1920.40000
    563.46,  2869.00000,  1930.90000
    563.93,  2856.60000,  1950.50000
    564.40,  2856.10000,  1966.70000
    564.87,  2870.50000,  1954.50000
    565.34,  2887.40000,  1951.00000
    565.81,  2877.80000,  1943.90000
    566.28,  2874.40000,  1941.90000
    566.74,  2847.20000,  1956.30000
    567.21,  2831.10000,  1972.20000
    567.68,  2838.10000,  1976.00000
    568.15,  2837.70000,  1966.00000
    568.62,  2836.20000,  1954.80000
    569.09,  2835.80000,  1946.50000
    569.56,  2833.70000,  1939.00000
    570.03,  2840.60000,  1935.90000
    570.50,  2868.40000,  1945.40000
    570.97,  2864.80000,  1952.20000
    571.44,  2856.50000,  1957.70000
    571.91,  2854.10000,  1968.60000
    572.38,  2849.90000,  1960.80000
    572.84,  2835.90000,  1956.60000
    573.31,  2847.70000,  1956.70000
    573.78,  2841.10000,  1955.00000
    574.25,  2831.70000,  1961.30000
    574.72,  2843.70000,  1967.10000
    575.19,  2846.60000,  1951.50000
    575.66,  2839.40000,  1947.20000
    576.13,  2837.60000,  1946.40000
    576.60,  2851.10000,  1941.80000
    577.07,  2873.80000,  1947.20000
    577.53,  2887.40000,  1939.90000
    578.00,  2881.60000,  1934.00000
    578.47,  2868.40000,  1923.00000
    578.94,  2841.10000,  1925.80000
    579.41,  2821.20000,  1924.20000
    579.88,  2833.40000,  1932.40000
    580.35,  2834.90000,  1938.30000
    580.82,  2846.90000,  1941.00000
    581.28,  2868.10000,  1938.50000
    581.75,  2864.90000,  1947.10000
    582.22,  2854.20000,  1942.60000
    582.69,  2855.60000,  1936.20000
    583.16,  2859.20000,  1918.10000
    583.63,  2859.20000,  1903.70000
    584.10,  2886.90000,  1905.20000
    584.56,  2896.80000,  1919.80000
    585.03,  2879.30000,  1931.30000
    585.50,  2866.00000,  1929.90000
    585.97,  2843.40000,  1915.60000
    586.44,  2833.60000,  1917.90000
    586.91,  2848.00000,  1922.60000
    587.37,  2855.30000,  1921.40000
    587.84,  2838.20000,  1916.50000
    588.31,  2825.70000,  1904.90000
    588.78,  2806.10000,  1894.00000
    589.25,  2831.20000,  1899.10000
    589.72,  2827.30000,  1904.40000
    590.18,  2859.00000,  1902.80000
    590.65,  2873.90000,  1906.90000
    591.12,  2865.10000,  1904.80000
    591.59,  2865.90000,  1903.40000
    592.06,  2851.70000,  1904.10000
    592.52,  2813.60000,  1904.60000
    592.99,  2835.40000,  1897.60000
    593.46,  2826.50000,  1903.40000
    593.93,  2793.10000,  1892.40000
    594.40,  2818.40000,  1880.50000
    594.86,  2838.50000,  1874.10000
    595.33,  2845.60000,  1875.30000
    595.80,  2866.20000,  1882.10000
    596.27,  2865.20000,  1897.30000
    596.74,  2846.80000,  1903.20000
    597.20,  2845.10000,  1894.70000
    597.67,  2855.00000,  1887.90000
    598.14,  2839.30000,  1882.00000
    598.61,  2837.50000,  1870.30000
    599.07,  2839.30000,  1862.30000
    599.54,  2828.80000,  1855.30000
    600.01,  2815.70000,  1863.00000
    600.48,  2860.80000,  1872.60000
    600.95,  2881.60000,  1882.70000
    601.41,  2893.40000,  1864.30000
    601.88,  2875.40000,  1849.40000
    602.35,  2827.50000,  1836.10000
    602.82,  2793.20000,  1835.90000
    603.28,  2809.50000,  1838.50000
    603.75,  2809.10000,  1842.70000
    604.22,  2828.90000,  1839.20000
    604.69,  2833.30000,  1836.60000
    605.15,  2837.80000,  1836.40000
    605.62,  2837.10000,  1831.80000
    606.09,  2839.20000,  1826.90000
    606.56,  2826.70000,  1811.90000
    607.02,  2824.00000,  1816.70000
    607.49,  2819.50000,  1805.90000
    607.96,  2836.30000,  1802.90000
    608.42,  2843.30000,  1798.80000
    608.89,  2899.90000,  1791.70000
    609.36,  2911.20000,  1789.60000
    609.83,  2889.30000,  1798.70000
    610.29,  2852.90000,  1802.20000
    610.76,  2825.90000,  1805.00000
    611.23,  2817.90000,  1797.30000
    611.69,  2845.70000,  1795.50000
    612.16,  2849.10000,  1786.40000
    612.63,  2847.80000,  1776.10000
    613.10,  2831.70000,  1768.60000
    613.56,  2817.00000,  1760.00000
    614.03,  2826.70000,  1750.30000
    614.50,  2828.30000,  1754.90000
    614.96,  2837.60000,  1745.30000
    615.43,  2849.40000,  1739.10000
    615.90,  2861.50000,  1735.50000
    616.36,  2855.90000,  1734.80000
    616.83,  2843.50000,  1738.60000
    617.30,  2837.50000,  1737.60000
    617.76,  2816.40000,  1729.80000
    618.23,  2802.80000,  1721.80000
    618.70,  2799.50000,  1725.50000
    619.16,  2805.00000,  1726.20000
    619.63,  2801.80000,  1735.30000
    620.10,  2807.70000,  1729.30000
    620.56,  2811.40000,  1716.10000
    621.03,  2836.30000,  1698.50000
    621.50,  2846.70000,  1688.10000
    621.96,  2850.80000,  1677.40000
    622.43,  2852.40000,  1670.90000
    622.90,  2848.50000,  1686.20000
    623.36,  2852.90000,  1691.90000
    623.83,  2856.20000,  1689.40000
    624.30,  2854.20000,  1679.10000
    624.76,  2849.80000,  1669.80000
    625.23,  2863.40000,  1650.30000
    625.70,  2871.80000,  1653.70000
    626.16,  2864.70000,  1657.20000
    626.63,  2835.90000,  1652.90000
    627.09,  2832.70000,  1645.00000
    627.56,  2838.90000,  1643.40000
    628.03,  2838.20000,  1640.50000
    628.49,  2846.90000,  1638.20000
    628.96,  2826.10000,  1648.90000
    629.43,  2822.10000,  1650.40000
    629.89,  2817.20000,  1646.20000
    630.36,  2825.20000,  1632.30000
    630.82,  2813.20000,  1625.80000
    631.29,  2815.30000,  1611.00000
    631.76,  2803.00000,  1602.50000
    632.22,  2798.10000,  1598.50000
    632.69,  2808.10000,  1590.40000
    633.15,  2826.90000,  1591.90000
    633.62,  2854.10000,  1594.60000
    634.09,  2863.90000,  1602.80000
    634.55,  2862.00000,  1596.70000
    635.02,  2837.20000,  1591.60000
    635.48,  2832.00000,  1581.00000
    635.95,  2822.30000,  1578.00000
    636.42,  2831.10000,  1576.60000
    636.88,  2818.00000,  1579.50000
    637.35,  2815.60000,  1572.70000
    637.81,  2827.20000,  1568.70000
    638.28,  2832.40000,  1570.90000
    638.74,  2843.80000,  1571.20000
    639.21,  2846.00000,  1578.20000
    639.68,  2826.00000,  1566.60000
    640.14,  2806.80000,  1557.30000
    640.61,  2820.20000,  1548.10000
    641.07,  2800.20000,  1548.20000
    641.54,  2818.00000,  1544.90000
    642.00,  2835.20000,  1530.10000
    642.47,  2844.10000,  1521.90000
    642.93,  2846.20000,  1518.30000
    643.40,  2849.60000,  1519.60000
    643.87,  2829.10000,  1527.50000
    644.33,  2830.30000,  1529.70000
    644.80,  2829.80000,  1524.20000
    645.26,  2815.40000,  1522.20000
    645.73,  2814.40000,  1508.10000
    646.19,  2814.50000,  1503.90000
    646.66,  2819.50000,  1498.80000
    647.12,  2819.20000,  1486.10000
    647.59,  2825.90000,  1484.60000
    648.05,  2824.30000,  1487.90000
    648.52,  2818.60000,  1482.70000
    648.98,  2810.20000,  1497.60000
    649.45,  2799.80000,  1504.10000
    649.91,  2791.30000,  1503.50000
    650.38,  2803.60000,  1501.50000
    650.84,  2836.30000,  1502.60000
    651.31,  2831.60000,  1490.30000
    651.77,  2828.50000,  1481.30000
    652.24,  2806.90000,  1475.70000
    652.70,  2791.30000,  1479.70000
    653.17,  2784.30000,  1484.00000
    653.63,  2806.70000,  1481.30000
    654.10,  2793.70000,  1482.60000
    654.56,  2807.20000,  1465.60000
    655.03,  2806.00000,  1452.40000
    655.49,  2819.30000,  1449.80000
    655.96,  2817.00000,  1454.50000
    656.42,  2813.80000,  1453.70000
    656.89,  2804.00000,  1460.40000
    657.35,  2853.10000,  1459.80000
    657.82,  2898.10000,  1451.20000
    658.28,  2929.60000,  1449.00000
    658.75,  2933.10000,  1443.20000
    659.21,  2887.60000,  1440.10000
    659.68,  2851.80000,  1441.40000
    660.14,  2833.60000,  1445.20000
    660.61,  2811.70000,  1437.00000
    661.07,  2845.30000,  1425.60000
    661.53,  2871.40000,  1409.50000
    662.00,  2890.70000,  1407.90000
    662.46,  2882.10000,  1415.00000
    662.93,  2860.00000,  1410.00000
    663.39,  2823.90000,  1410.60000
    663.86,  2843.50000,  1405.20000
    664.32,  2845.40000,  1395.90000
    664.79,  2876.70000,  1384.30000
    665.25,  2862.30000,  1382.60000
    665.71,  2844.50000,  1372.40000
    666.18,  2818.80000,  1377.40000
    666.64,  2839.30000,  1378.40000
    667.11,  2838.20000,  1376.70000
    667.57,  2860.60000,  1372.30000
    668.04,  2866.30000,  1370.70000
    668.50,  2851.40000,  1367.40000
    668.96,  2831.60000,  1369.20000
    669.43,  2851.50000,  1363.70000
    669.89,  2828.10000,  1353.60000
    670.36,  2810.60000,  1354.40000
    670.82,  2806.40000,  1356.50000
    671.28,  2808.30000,  1357.30000
    671.75,  2816.10000,  1356.60000
    672.21,  2844.00000,  1355.30000
    672.68,  2846.20000,  1349.80000
    673.14,  2862.90000,  1344.80000
    673.60,  2879.90000,  1340.10000
    674.07,  2860.70000,  1328.10000
    674.53,  2838.80000,  1318.80000
    675.00,  2824.10000,  1318.20000
    675.46,  2798.40000,  1325.80000
    675.92,  2799.90000,  1326.00000
    676.39,  2839.60000,  1312.60000
    676.85,  2841.70000,  1306.40000
    677.31,  2849.50000,  1309.30000
    677.78,  2855.30000,  1301.90000
    678.24,  2834.90000,  1299.20000
    678.70,  2812.20000,  1302.20000
    679.17,  2795.10000,  1297.40000
    679.63,  2770.20000,  1299.80000
    680.10,  2772.40000,  1303.40000
    680.56,  2797.40000,  1296.40000
    681.02,  2805.70000,  1288.40000
    681.49,  2837.40000,  1295.80000
    681.95,  2837.10000,  1291.40000
    682.41,  2830.60000,  1282.60000
    682.88,  2826.00000,  1271.00000
    683.34,  2815.70000,  1267.60000
    683.80,  2791.10000,  1267.50000
    684.27,  2811.20000,  1276.80000
    684.73,  2824.70000,  1266.80000
    685.19,  2848.10000,  1262.30000
    685.66,  2876.90000,  1253.60000
    686.12,  2870.80000,  1249.50000
    686.58,  2869.00000,  1257.20000
    687.05,  2854.10000,  1261.90000
    687.51,  2836.40000,  1256.60000
    687.97,  2827.00000,  1255.90000
    688.44,  2840.50000,  1250.10000
    688.90,  2844.50000,  1237.00000
    689.36,  2847.10000,  1236.10000
    689.83,  2848.40000,  1228.50000
    690.29,  2858.90000,  1234.90000
    690.75,  2863.00000,  1241.30000
    691.21,  2870.00000,  1245.00000
    691.68,  2853.90000,  1235.80000
    692.14,  2827.80000,  1226.20000
    692.60,  2838.10000,  1216.90000
    693.07,  2824.90000,  1218.70000
    693.53,  2837.50000,  1218.90000
    693.99,  2848.20000,  1223.20000
    694.45,  2850.90000,  1220.00000
    694.92,  2867.40000,  1201.30000
    695.38,  2876.90000,  1195.00000
    695.84,  2858.30000,  1180.50000
    696.31,  2848.50000,  1178.40000
    696.77,  2860.10000,  1175.60000
    697.23,  2852.70000,  1184.80000
    697.69,  2850.90000,  1183.20000
    698.16,  2827.70000,  1187.50000
    698.62,  2813.30000,  1173.30000
    699.08,  2792.10000,  1170.00000
    699.54,  2797.20000,  1161.00000
    700.01,  2789.80000,  1166.80000
    700.47,  2782.90000,  1165.10000
    700.93,  2783.30000,  1166.30000
    701.39,  2800.20000,  1154.30000
    701.86,  2810.90000,  1158.60000
    702.32,  2808.60000,  1160.60000
    702.78,  2815.40000,  1161.80000
    703.24,  2813.20000,  1152.90000
    703.71,  2817.70000,  1155.50000
    704.17,  2829.00000,  1153.10000
    704.63,  2827.10000,  1153.90000
    705.09,  2816.30000,  1150.40000
    705.56,  2838.00000,  1150.40000
    706.02,  2838.60000,  1139.90000
    706.48,  2822.30000,  1136.10000
    706.94,  2815.30000,  1134.60000
    707.40,  2798.60000,  1133.40000
    707.87,  2802.40000,  1124.10000
    708.33,  2817.70000,  1118.00000
    708.79,  2810.20000,  1104.60000
    709.25,  2792.10000,  1093.30000
    709.72,  2800.80000,  1101.80000
    710.18,  2811.40000,  1117.60000
    710.64,  2813.80000,  1113.20000
    711.10,  2807.10000,  1115.60000
    711.56,  2818.30000,  1112.70000
    712.03,  2835.00000,  1106.70000
    712.49,  2863.10000,  1105.30000
    712.95,  2882.50000,  1100.80000
    713.41,  2866.50000,  1085.00000
    713.87,  2857.60000,  1083.90000
    714.33,  2852.70000,  1089.30000
    714.80,  2839.00000,  1097.30000
    715.26,  2806.60000,  1099.20000
    715.72,  2808.20000,  1090.20000
    716.18,  2805.20000,  1080.20000
    716.64,  2814.60000,  1075.20000
    717.11,  2812.60000,  1070.30000
    717.57,  2807.40000,  1070.10000
    718.03,  2782.60000,  1077.80000
    718.49,  2800.70000,  1078.10000
    718.95,  2840.20000,  1085.70000
    719.41,  2840.30000,  1084.90000
    719.87,  2809.90000,  1077.10000
    720.34,  2808.50000,  1067.20000
    720.80,  2800.80000,  1063.40000
    721.26,  2803.40000,  1058.30000
    721.72,  2829.70000,  1064.70000
    722.18,  2812.80000,  1064.50000
    722.64,  2787.70000,  1069.00000
    723.10,  2803.90000,  1066.30000
    723.57,  2808.90000,  1066.40000
    724.03,  2824.50000,  1059.10000
    724.49,  2818.00000,  1061.40000
    724.95,  2789.40000,  1059.40000
    725.41,  2849.00000,  1053.30000
    725.87,  2897.90000,  1041.80000
    726.33,  2909.80000,  1046.50000
    726.80,  2913.30000,  1041.00000
    727.26,  2865.00000,  1041.10000
    727.72,  2789.50000,  1049.10000
    728.18,  2798.10000,  1045.90000
    728.64,  2792.40000,  1043.40000
    729.10,  2795.40000,  1050.00000
    729.56,  2816.20000,  1044.80000
    730.02,  2842.30000,  1044.30000
    730.48,  2839.30000,  1049.40000
    730.94,  2832.50000,  1045.50000
    731.41,  2822.40000,  1041.80000
    731.87,  2792.10000,  1033.70000
    732.33,  2783.20000,  1022.40000
    732.79,  2812.60000,  1020.00000
    733.25,  2811.10000,  1017.70000
    733.71,  2820.90000,  1031.90000
    734.17,  2832.50000,  1038.40000
    734.63,  2810.20000,  1039.90000
    735.09,  2795.60000,  1038.30000
    735.55,  2795.00000,  1035.80000
    736.01,  2785.00000,  1022.60000
    736.47,  2788.50000,  1026.40000
    736.94,  2793.00000,  1023.20000
    737.40,  2809.70000,  1012.40000
    737.86,  2807.00000,  1012.20000
    738.32,  2811.80000,  1021.10000
    738.78,  2825.00000,  1019.80000
    739.24,  2815.40000,  1024.30000
    739.70,  2815.20000,  1024.50000
    740.16,  2845.30000,  1010.40000
    740.62,  2861.90000,   999.00000
    741.08,  2869.70000,  1006.50000
    741.54,  2856.40000,  1001.60000
    742.00,  2830.90000,  1005.20000
    742.46,  2802.00000,  1007.50000
    742.92,  2778.70000,  1009.10000
    743.38,  2778.50000,  1013.00000
    743.84,  2773.50000,  1030.50000
    744.30,  2795.80000,  1020.30000
    744.76,  2810.70000,  1014.50000
    745.22,  2809.00000,  1007.90000
    745.68,  2787.40000,  1006.90000
    746.14,  2773.80000,  1006.40000
    746.60,  2779.30000,  1012.70000
    747.06,  2800.00000,  1004.90000
    747.52,  2787.50000,  1004.80000
    747.98,  2805.40000,   999.00000
    748.44,  2805.80000,   997.20000
    748.90,  2799.20000,   992.40000
    749.36,  2810.40000,   987.20000
    749.82,  2821.30000,   991.20000
    750.28,  2823.20000,   998.60000
    750.74,  2846.20000,  1002.30000
    751.20,  2842.30000,  1002.60000
    751.66,  2819.30000,  1008.20000
    752.12,  2805.50000,  1009.70000
    752.58,  2805.80000,  1017.40000
    753.04,  2826.60000,  1008.90000
    753.50,  2849.80000,  1012.10000
    753.96,  2833.20000,  1005.30000
    754.42,  2801.60000,  1006.20000
    754.88,  2785.70000,  1006.50000
    755.34,  2780.40000,  1008.50000
    755.80,  2806.50000,  1005.10000
    756.26,  2816.80000,  1004.00000
    756.72,  2819.60000,   998.40000
    757.18,  2813.70000,  1001.30000
    757.64,  2811.10000,   991.40000
    758.10,  2786.10000,   992.80000
    758.56,  2769.00000,   997.40000
    759.02,  2781.20000,   991.20000
    759.48,  2790.40000,   990.40000
    759.94,  2805.30000,   999.70000
    760.40,  2817.60000,   991.60000
    760.86,  2807.00000,   998.10000
    761.32,  2803.10000,  1000.00000
    761.78,  2821.90000,  1001.00000
    762.24,  2799.50000,  1001.60000
    762.70,  2800.00000,  1007.90000
    763.15,  2793.70000,  1003.20000
    763.61,  2796.20000,  1009.40000
    764.07,  2804.80000,  1011.90000
    764.53,  2808.50000,  1008.60000
    764.99,  2812.00000,  1008.30000
    765.45,  2832.00000,  1002.60000
    765.91,  2824.20000,   992.30000
    766.37,  2804.80000,   995.50000
    766.83,  2779.40000,   992.90000
    767.29,  2778.40000,   996.70000
    767.75,  2781.10000,  1000.00000
    768.21,  2805.30000,   996.10000
    768.66,  2819.30000,   996.00000
    769.12,  2822.30000,  1005.90000
    769.58,  2804.00000,   999.40000
    770.04,  2786.40000,  1005.10000
    770.50,  2757.00000,  1002.20000
    770.96,  2750.40000,   996.30000
    771.42,  2784.00000,   990.90000
    771.88,  2804.30000,   993.60000
    772.34,  2813.40000,   988.70000
    772.80,  2798.30000,   990.30000
    773.25,  2772.50000,  1004.10000
    773.71,  2767.20000,  1006.70000
    774.17,  2759.30000,  1005.10000
    774.63,  2773.30000,   999.50000
    775.09,  2793.60000,   985.40000
    775.55,  2787.80000,   982.10000
    776.01,  2768.00000,   993.60000
    776.47,  2769.00000,   998.70000
    776.92,  2746.40000,   992.40000
    777.38,  2768.90000,   990.00000
    777.84,  2778.70000,   981.00000
    778.30,  2770.70000,   989.60000
    778.76,  2756.90000,   996.40000
    779.22,  2773.90000,   998.90000
    779.68,  2783.20000,   988.60000
    780.13,  2793.80000,   997.90000
    780.59,  2782.20000,  1002.50000
    781.05,  2766.80000,  1011.70000
    781.51,  2767.40000,  1008.00000
    781.97,  2784.10000,  1002.80000
    782.43,  2801.10000,   990.50000
    782.88,  2809.60000,   995.40000
    783.34,  2803.10000,  1000.50000
    783.80,  2802.40000,  1005.50000
    784.26,  2815.30000,   997.60000
    784.72,  2794.90000,  1003.10000
    785.18,  2778.60000,  1007.90000
    785.63,  2765.90000,  1018.40000
    786.09,  2786.20000,  1017.00000
    786.55,  2817.70000,  1012.50000
    787.01,  2841.70000,   991.90000
    787.47,  2816.10000,   985.40000
    787.92,  2785.40000,   982.30000
    788.38,  2760.70000,   989.30000
    788.84,  2751.60000,  1000.40000
    789.30,  2763.60000,  1012.60000
    789.76,  2770.10000,  1024.70000
    790.21,  2770.30000,  1027.20000
    790.67,  2765.20000,  1014.20000
    791.13,  2765.90000,  1006.10000
    791.59,  2744.20000,  1002.80000
    792.05,  2750.50000,   997.20000
    792.50,  2769.70000,   999.70000
    792.96,  2794.70000,   994.10000
    793.42,  2782.40000,   980.00000
    793.88,  2792.60000,   978.10000
    794.33,  2762.40000,   985.50000
    794.79,  2757.60000,   993.90000
    795.25,  2766.20000,   999.60000
    795.71,  2783.60000,   990.40000
    796.17,  2781.10000,   984.00000
    796.62,  2785.30000,   984.20000
    797.08,  2756.40000,   985.60000
    797.54,  2749.50000,   994.60000
    798.00,  2745.50000,   997.80000
    798.45,  2762.60000,   989.60000
    798.91,  2771.70000,   988.10000
    799.37,  2782.10000,   975.80000
    799.83,  2779.60000,   986.80000
    800.28,  2764.50000,  1030.90000
    800.74,  2758.10000,  1048.90000
    801.20,  2770.30000,  1057.40000
    801.66,  2754.20000,  1039.40000
    802.11,  2772.20000,   992.70000
    802.57,  2787.90000,   968.90000
    803.03,  2764.40000,   972.80000
    803.48,  2750.60000,   966.50000
    803.94,  2794.80000,   976.10000
    804.40,  2807.80000,   981.10000
    804.86,  2836.30000,   972.40000
    805.31,  2822.60000,   969.00000
    805.77,  2771.10000,   971.90000
    806.23,  2721.80000,   969.70000
    806.69,  2747.60000,   968.60000
    807.14,  2752.60000,   977.20000
    807.60,  2777.00000,   971.30000
    808.06,  2784.00000,   958.90000
    808.51,  2779.90000,   954.30000
    808.97,  2757.50000,   950.90000
    809.43,  2758.40000,   955.70000
    809.88,  2751.10000,   965.70000
    810.34,  2746.20000,   966.20000
    810.80,  2765.30000,   960.20000
    811.26,  2777.10000,   953.30000
    811.71,  2770.30000,   951.40000
    812.17,  2781.50000,   956.80000
    812.63,  2776.80000,   948.00000
    813.08,  2753.30000,   953.00000
    813.54,  2756.20000,   953.90000
    814.00,  2762.60000,   947.20000
    814.45,  2763.70000,   948.20000
    814.91,  2774.10000,   950.30000
    815.37,  2765.10000,   940.00000
    815.82,  2750.10000,   939.90000
    816.28,  2742.40000,   937.00000
    816.74,  2739.90000,   943.20000
    817.19,  2721.80000,   951.00000
    817.65,  2737.30000,   949.60000
    818.11,  2763.30000,   952.30000
    818.56,  2764.60000,   948.40000
    819.02,  2754.10000,   954.90000
    819.48,  2751.80000,   960.90000
    819.93,  2723.90000,   951.20000
    820.39,  2745.50000,   937.50000
    820.84,  2777.20000,   935.90000
    821.30,  2788.80000,   925.90000
    821.76,  2787.30000,   933.30000
    822.21,  2795.50000,   930.10000
    822.67,  2772.10000,   924.00000
    823.13,  2743.40000,   923.20000
    823.58,  2776.10000,   925.50000
    824.04,  2796.40000,   926.30000
    824.49,  2793.40000,   932.20000
    824.95,  2802.50000,   926.90000
    825.41,  2792.70000,   928.10000
    825.86,  2771.90000,   920.20000
    826.32,  2806.20000,   908.60000
    826.78,  2783.40000,   913.10000
    827.23,  2755.00000,   917.30000
    827.69,  2731.60000,   924.10000
    828.14,  2730.80000,   924.40000
    828.60,  2753.10000,   915.20000
    829.06,  2776.10000,   905.50000
    829.51,  2768.30000,   906.30000
    829.97,  2775.10000,   903.70000
    830.42,  2768.40000,   913.00000
    830.88,  2763.00000,   909.90000
    831.34,  2771.30000,   893.70000
    831.79,  2792.40000,   884.50000
    832.25,  2792.30000,   879.00000
    832.70,  2778.90000,   884.60000
    833.16,  2775.40000,   896.40000
    833.61,  2762.30000,   907.40000
    834.07,  2761.10000,   896.90000
    834.53,  2764.60000,   891.10000
    834.98,  2757.70000,   882.20000
    835.44,  2733.80000,   882.80000
    835.89,  2747.10000,   877.40000
    836.35,  2765.60000,   879.00000
    836.80,  2795.10000,   876.00000
    837.26,  2785.70000,   874.60000
    837.71,  2769.20000,   860.70000
    838.17,  2753.90000,   862.90000
    838.63,  2746.40000,   867.70000
    839.08,  2743.90000,   870.90000
    839.54,  2761.20000,   881.20000
    839.99,  2761.10000,   879.40000
    840.45,  2770.10000,   869.80000
    840.90,  2782.70000,   874.50000
    841.36,  2787.40000,   876.00000
    841.81,  2774.40000,   874.30000
    842.27,  2758.90000,   878.60000
    842.72,  2746.10000,   873.40000
    843.18,  2749.80000,   866.50000
    843.63,  2735.40000,   862.40000
    844.09,  2738.00000,   861.70000
    844.55,  2730.50000,   861.40000
    845.00,  2719.60000,   864.30000
    845.46,  2730.80000,   870.60000
    845.91,  2744.20000,   875.10000
    846.37,  2764.80000,   867.10000
    846.82,  2786.20000,   865.50000
    847.28,  2787.20000,   857.20000
    847.73,  2739.50000,   858.10000
    848.19,  2765.30000,   853.30000
    848.64,  2768.20000,   862.20000
    849.10,  2794.10000,   862.10000
    849.55,  2799.70000,   859.30000
    850.01,  2785.80000,   858.60000
    850.46,  2739.60000,   860.90000
    850.92,  2764.80000,   850.90000
    851.37,  2768.90000,   846.60000
    851.83,  2775.90000,   838.80000
    852.28,  2777.80000,   826.00000
    852.73,  2756.80000,   833.60000
    853.19,  2729.40000,   845.80000
    853.64,  2731.50000,   843.00000
    854.10,  2735.70000,   841.00000
    854.55,  2742.90000,   837.80000
    855.01,  2749.30000,   835.40000
    855.46,  2729.60000,   834.60000
    855.92,  2719.60000,   843.60000
    856.37,  2720.00000,   838.70000
    856.83,  2720.80000,   835.30000
    857.28,  2742.00000,   835.40000
    857.74,  2750.30000,   827.90000
    858.19,  2752.20000,   826.00000
    858.64,  2766.70000,   835.90000
    859.10,  2754.90000,   837.50000
    859.55,  2739.20000,   836.30000
    860.01,  2787.00000,   837.60000
    860.46,  2812.40000,   824.50000
    860.92,  2806.30000,   830.10000
    861.37,  2799.20000,   837.20000
    861.83,  2786.70000,   838.80000
    862.28,  2757.30000,   848.70000
    862.73,  2769.50000,   851.90000
    863.19,  2755.30000,   854.80000
    863.64,  2737.90000,   850.10000
    864.10,  2734.90000,   844.00000
    864.55,  2757.60000,   843.20000
    865.01,  2759.80000,   839.90000
    865.46,  2770.90000,   842.30000
    865.91,  2750.40000,   845.80000
    866.37,  2739.40000,   840.20000
    866.82,  2728.10000,   838.40000
    867.28,  2721.70000,   837.50000
    867.73,  2719.90000,   830.50000
    868.18,  2746.10000,   835.40000
    868.64,  2757.70000,   830.90000
    869.09,  2787.70000,   832.20000
    869.55,  2800.60000,   836.30000
    870.00,  2784.10000,   835.80000
    870.45,  2765.40000,   838.40000
    870.91,  2733.70000,   832.20000
    871.36,  2711.80000,   832.60000
    871.81,  2738.40000,   834.10000
    872.27,  2762.60000,   840.50000
    872.72,  2761.20000,   848.80000
    873.18,  2757.90000,   849.70000
    873.63,  2736.90000,   842.60000
    874.08,  2729.90000,   848.50000
    874.54,  2745.90000,   846.80000
    874.99,  2743.20000,   845.30000
    875.44,  2721.00000,   842.70000
    875.90,  2699.30000,   843.20000
    876.35,  2701.80000,   846.40000
    876.81,  2739.50000,   848.80000
    877.26,  2772.10000,   851.00000
    877.71,  2761.30000,   850.10000
    878.17,  2738.00000,   846.50000
    878.62,  2751.70000,   846.90000
    879.07,  2775.80000,   842.00000
    879.53,  2801.30000,   836.10000
    879.98,  2793.50000,   839.20000
    880.43,  2773.20000,   842.90000
    880.89,  2753.10000,   849.40000
    881.34,  2752.10000,   857.60000
    881.79,  2758.80000,   863.20000
    882.25,  2748.50000,   858.40000
    882.70,  2730.90000,   844.60000
    883.15,  2727.20000,   833.00000
    883.61,  2745.50000,   825.70000
    884.06,  2730.70000,   834.60000
    884.51,  2744.70000,   849.50000
    884.97,  2730.50000,   854.90000
    885.42,  2739.80000,   850.10000
    885.87,  2741.30000,   844.60000
    886.32,  2755.10000,   839.80000
    886.78,  2728.60000,   842.50000
    887.23,  2733.70000,   853.00000
    887.68,  2723.20000,   860.50000
    888.14,  2730.70000,   864.00000
    888.59,  2722.60000,   858.60000
    889.04,  2701.40000,   859.60000
    889.50,  2682.50000,   846.30000
    889.95,  2709.60000,   839.90000
    890.40,  2736.00000,   840.90000
    890.85,  2755.50000,   843.40000
    891.31,  2741.90000,   854.80000
    891.76,  2722.70000,   874.00000
    892.21,  2709.30000,   877.50000
    892.67,  2724.10000,   870.40000
    893.12,  2722.10000,   865.70000
    893.57,  2744.30000,   850.30000
    894.02,  2754.70000,   845.10000
    894.48,  2767.10000,   844.30000
    894.93,  2767.20000,   847.00000
    895.38,  2760.70000,   853.90000
    895.83,  2737.00000,   855.00000
    896.29,  2739.20000,   852.60000
    896.74,  2736.50000,   856.30000
    897.19,  2750.90000,   865.60000
    897.64,  2759.00000,   870.40000
    898.10,  2757.70000,   874.00000
    898.55,  2739.90000,   872.10000
    899.00,  2729.30000,   868.70000
    899.45,  2700.10000,   868.70000
    899.91,  2691.20000,   874.90000
    900.36,  2679.40000,   872.70000
    900.81,  2711.70000,   861.50000
    901.26,  2728.60000,   863.00000
    901.72,  2746.30000,   868.70000
    902.17,  2737.60000,   869.40000
    902.62,  2740.20000,   874.20000
    903.07,  2709.90000,   874.80000
    903.52,  2722.50000,   872.20000
    903.98,  2733.90000,   869.60000
    904.43,  2741.80000,   871.50000
    904.88,  2725.40000,   874.90000
    905.33,  2729.90000,   875.00000
    905.79,  2707.00000,   882.30000
    906.24,  2717.20000,   883.60000
    906.69,  2734.80000,   883.40000
    907.14,  2734.70000,   888.10000
    907.59,  2703.30000,   898.40000
    908.05,  2693.30000,   895.10000
    908.50,  2681.10000,   895.30000
    908.95,  2698.50000,   889.60000
    909.40,  2708.20000,   883.00000
    909.85,  2706.10000,   887.20000
    910.31,  2706.90000,   880.70000
    910.76,  2693.70000,   876.60000
    911.21,  2681.80000,   879.40000
    911.66,  2681.20000,   892.90000
    912.11,  2679.70000,   903.60000
    912.56,  2702.30000,   915.90000
    913.02,  2724.00000,   909.50000
    913.47,  2719.70000,   910.50000
    913.92,  2713.00000,   916.80000
    914.37,  2703.20000,   926.30000
    914.82,  2707.70000,   935.90000
    915.27,  2721.30000,   944.70000
    915.73,  2739.20000,   944.60000
    916.18,  2729.10000,   952.10000
    916.63,  2711.70000,   961.50000
    917.08,  2683.50000,   972.90000
    917.53,  2703.10000,   990.00000
    917.98,  2628.70000,  1009.50000
    918.44,  2960.00000,  1017.40000
    918.89,  3124.00000,  1032.00000
    919.34,  3162.40000,  1042.90000
    919.79,  3067.00000,  1052.50000
    920.24,  2896.50000,  1061.80000
    920.69,  2621.50000,  1077.00000
    921.14,  2743.00000,  1091.30000
    921.59,  2723.90000,  1121.10000
    922.05,  2714.40000,  1152.50000
    922.50,  2713.80000,  1180.90000
    922.95,  2739.70000,  1212.30000
    923.40,  2753.70000,  1262.70000
    923.85,  2765.20000,  1317.80000
    924.30,  2762.10000,  1394.90000
    924.75,  2747.30000,  1479.50000
    925.20,  2726.80000,  1577.10000
    925.66,  2719.20000,  1694.30000
    926.11,  2715.30000,  1854.30000
    926.56,  2718.80000,  2057.20000
    927.01,  2730.50000,  2306.30000
    927.46,  2721.70000,  2558.60000
    927.91,  2689.30000,  2824.90000
    928.36,  2667.70000,  3105.20000
    928.81,  2674.90000,  3413.50000
    929.26,  2689.90000,  3759.00000
    929.71,  2727.60000,  4122.60000
    930.16,  2756.00000,  4450.70000
    930.62,  2733.20000,  4758.60000
    931.07,  2718.60000,  5030.80000
    931.52,  2711.10000,  5293.60000
    931.97,  2715.40000,  5586.90000
    932.42,  2731.00000,  5910.50000
    932.87,  2742.30000,  6247.20000
    933.32,  2724.90000,  6535.00000
    933.77,  2737.10000,  6698.60000
    934.22,  2730.50000,  6780.70000
    934.67,  2740.30000,  6839.60000
    935.12,  2732.40000,  6918.30000
    935.57,  2705.90000,  6997.50000
    936.02,  2679.90000,  7051.00000
    936.47,  2697.20000,  7034.90000
    936.93,  2681.50000,  7013.60000
    937.38,  2692.80000,  7070.10000
    937.83,  2706.10000,  7227.60000
    938.28,  2697.20000,  7401.00000
    938.73,  2695.60000,  7525.20000
    939.18,  2714.40000,  7647.30000
    939.63,  2710.40000,  7837.00000
    940.08,  2721.60000,  8086.20000
    940.53,  2739.00000,  8341.90000
    940.98,  2730.30000,  8513.30000
    941.43,  2709.20000,  8582.50000
    941.88,  2712.40000,  8665.10000
    942.33,  2718.00000,  8745.10000
    942.78,  2719.40000,  8785.80000
    943.23,  2735.10000,  8805.10000
    943.68,  2731.00000,  8828.70000
    944.13,  2730.50000,  8953.30000
    944.58,  2745.60000,  9171.10000
    945.03,  2736.40000,  9339.70000
    945.48,  2710.90000,  9374.40000
    945.93,  2711.70000,  9339.10000
    946.38,  2717.90000,  9321.30000
    946.83,  2746.40000,  9355.90000
    947.28,  2753.50000,  9381.50000
    947.73,  2737.00000,  9354.10000
    948.18,  2709.40000,  9286.10000
    948.63,  2696.90000,  9293.60000
    949.08,  2695.50000,  9314.80000
    949.53,  2686.70000,  9364.90000
    949.98,  2673.00000,  9420.10000
    950.43,  2680.50000,  9434.00000
    950.88,  2697.20000,  9436.00000
    951.33,  2723.00000,  9455.00000
    951.78,  2748.60000,  9354.60000
    952.23,  2743.70000,  9180.50000
    952.68,  2721.20000,  9044.90000
    953.13,  2718.00000,  8952.20000
    953.58,  2719.80000,  8850.60000
    954.03,  2715.20000,  8759.90000
    954.48,  2704.50000,  8626.60000
    954.93,  2694.80000,  8411.90000
    955.38,  2686.90000,  8245.50000
    955.83,  2699.00000,  8196.00000
    956.28,  2708.70000,  8123.20000
    956.73,  2720.00000,  8027.80000
    957.18,  2715.90000,  7872.70000
    957.62,  2705.60000,  7630.70000
    958.07,  2712.60000,  7378.90000
    958.52,  2705.20000,  7183.80000
    958.97,  2700.00000,  7009.00000
    959.42,  2698.10000,  6889.60000
    959.87,  2682.30000,  6808.20000
    960.32,  2684.70000,  6711.10000
    960.77,  2714.90000,  6552.50000
    961.22,  2760.80000,  6331.00000
    961.67,  2786.40000,  6089.90000
    962.12,  2767.00000,  5883.60000
    962.57,  2734.30000,  5686.70000
    963.02,  2730.10000,  5532.50000
    963.47,  2706.60000,  5387.00000
    963.92,  2721.90000,  5243.90000
    964.36,  2722.80000,  5147.80000
    964.81,  2719.70000,  5081.80000
    965.26,  2724.50000,  4985.30000
    965.71,  2737.60000,  4881.40000
    966.16,  2722.30000,  4776.10000
    966.61,  2703.10000,  4691.90000
    967.06,  2695.50000,  4605.90000
    967.51,  2717.20000,  4532.20000
    967.96,  2729.80000,  4432.30000
    968.41,  2742.50000,  4312.20000
    968.85,  2743.90000,  4196.50000
    969.30,  2721.20000,  4094.80000
    969.75,  2725.40000,  3952.30000
    970.20,  2725.20000,  3815.20000
    970.65,  2727.40000,  3653.50000
    971.10,  2722.50000,  3500.20000
    971.55,  2725.30000,  3350.00000
    972.00,  2704.70000,  3223.60000
    972.44,  2696.40000,  3108.60000
    972.89,  2715.40000,  3017.30000
    973.34,  2733.70000,  2944.70000
    973.79,  2739.40000,  2869.10000
    974.24,  2748.80000,  2788.50000
    974.69,  2719.20000,  2727.30000
    975.14,  2688.30000,  2669.70000
    975.59,  2685.50000,  2629.00000
    976.03,  2672.50000,  2598.10000
    976.48,  2669.90000,  2575.10000
    976.93,  2673.70000,  2577.20000
    977.38,  2677.80000,  2590.40000
    977.83,  2681.90000,  2595.50000
    978.28,  2688.20000,  2599.50000
    978.72,  2697.30000,  2565.80000
    979.17,  2707.30000,  2526.30000
    979.62,  2719.50000,  2484.10000
    980.07,  2732.20000,  2438.20000
    980.52,  2719.70000,  2435.80000
    980.97,  2698.10000,  2456.80000
    981.41,  2658.10000,  2495.70000
    981.86,  2633.90000,  2543.80000
    982.31,  2653.00000,  2575.30000
    982.76,  2681.20000,  2578.00000
    983.21,  2704.50000,  2590.90000
    983.66,  2710.20000,  2560.70000
    984.10,  2683.00000,  2544.60000
    984.55,  2658.20000,  2517.70000
    985.00,  2649.00000,  2460.60000
    985.45,  2637.80000,  2373.70000
    985.90,  2657.50000,  2276.00000
    986.34,  2677.70000,  2167.10000
    986.79,  2678.50000,  2096.80000
    987.24,  2675.00000,  2045.60000
    987.69,  2654.90000,  1998.70000
    988.14,  2646.50000,  1952.20000
    988.58,  2662.20000,  1894.10000
    989.03,  2677.90000,  1834.30000
    989.48,  2681.40000,  1791.30000
    989.93,  2679.10000,  1742.90000
    990.38,  2667.40000,  1694.00000
    990.82,  2675.00000,  1655.70000
    991.27,  2689.80000,  1613.70000
    991.72,  2707.20000,  1574.90000
    992.17,  2691.70000,  1547.10000
    992.61,  2694.60000,  1502.80000
    993.06,  2676.80000,  1471.50000
    993.51,  2697.70000,  1452.70000
    993.96,  2702.00000,  1426.50000
    994.41,  2677.60000,  1427.70000
    994.85,  2709.40000,  1362.40000
    995.30,  2754.10000,  1303.50000
    995.75,  2755.30000,  1278.70000
    996.20,  2776.90000,  1270.70000
    996.64,  2727.70000,  1277.40000
    997.09,  2646.20000,  1318.20000
    997.54,  2651.70000,  1288.70000
    997.99,  2647.20000,  1270.50000
    998.43,  2647.80000,  1252.90000
    998.88,  2664.90000,  1221.50000
    999.33,  2673.30000,  1201.80000
    999.77,  2696.80000,  1194.40000
   1000.22,  2713.90000,  1179.10000
   1000.67,  2719.40000,  1168.40000
   1001.12,  2715.20000,  1156.90000
   1001.56,  2680.00000,  1156.70000
   1002.01,  2659.70000,  1168.80000
   1002.46,  2667.70000,  1179.50000
   1002.91,  2657.40000,  1167.60000
   1003.35,  2665.80000,  1162.20000
   1003.80,  2667.30000,  1139.10000
   1004.25,  2665.70000,  1140.30000
   1004.69,  2664.50000,  1147.40000
   1005.14,  2658.70000,  1150.10000
   1005.59,  2662.50000,  1151.30000
   1006.04,  2687.70000,  1150.90000
   1006.48,  2705.30000,  1141.20000
   1006.93,  2728.10000,  1142.80000
   1007.38,  2708.40000,  1146.00000
   1007.82,  2669.50000,  1142.30000
   1008.27,  2645.80000,  1141.00000
   1008.72,  2641.80000,  1134.00000
   1009.16,  2644.40000,  1128.70000
   1009.61,  2656.30000,  1126.00000
   1010.06,  2661.70000,  1125.80000
   1010.50,  2683.70000,  1130.20000
   1010.95,  2704.70000,  1134.50000
   1011.40,  2712.10000,  1142.10000
   1011.85,  2694.50000,  1140.20000
   1012.29,  2686.90000,  1131.20000
   1012.74,  2661.30000,  1129.10000
   1013.19,  2653.70000,  1136.20000
   1013.63,  2691.10000,  1138.40000
   1014.08,  2708.70000,  1141.50000
   1014.53,  2702.70000,  1143.20000
   1014.97,  2702.00000,  1133.90000
   1015.42,  2671.40000,  1135.30000
   1015.86,  2640.00000,  1141.80000
   1016.31,  2660.40000,  1137.10000
   1016.76,  2675.70000,  1138.40000
   1017.20,  2658.10000,  1141.20000
   1017.65,  2647.40000,  1129.50000
   1018.10,  2649.60000,  1121.90000
   1018.54,  2648.00000,  1116.40000
   1018.99,  2676.60000,  1113.60000
   1019.44,  2681.90000,  1115.60000
   1019.88,  2664.70000,  1128.80000
   1020.33,  2655.70000,  1131.50000
   1020.78,  2662.60000,  1128.00000
   1021.22,  2672.50000,  1129.20000
   1021.67,  2677.40000,  1131.70000
   1022.11,  2673.40000,  1127.70000
   1022.56,  2668.50000,  1138.50000
   1023.01,  2654.90000,  1143.90000
   1023.45,  2643.20000,  1138.40000
   1023.90,  2643.60000,  1133.50000
   1024.34,  2626.60000,  1138.40000
   1024.79,  2638.70000,  1137.50000
   1025.24,  2657.80000,  1145.50000
   1025.68,  2653.00000,  1146.20000
   1026.13,  2653.60000,  1145.30000
   1026.58,  2662.10000,  1142.90000
   1027.02,  2675.10000,  1143.70000
   1027.47,  2678.60000,  1153.80000
   1027.91,  2677.10000,  1156.40000
   1028.36,  2653.70000,  1145.10000
   1028.80,  2640.10000,  1150.40000
   1029.25,  2625.30000,  1152.20000
   1029.70,  2634.80000,  1148.50000
   1030.14,  2625.20000,  1160.90000
   1030.59,  2621.10000,  1158.60000
   1031.03,  2622.40000,  1158.50000
   1031.48,  2643.30000,  1158.00000
   1031.93,  2671.10000,  1156.20000
   1032.37,  2701.80000,  1152.90000
   1032.82,  2704.40000,  1156.70000
   1033.26,  2701.90000,  1166.80000
   1033.71,  2675.10000,  1181.00000
   1034.15,  2659.60000,  1182.20000
   1034.60,  2657.60000,  1182.50000
   1035.05,  2667.40000,  1183.90000
   1035.49,  2656.80000,  1179.90000
   1035.94,  2655.20000,  1175.40000
   1036.38,  2626.90000,  1173.60000
   1036.83,  2601.50000,  1177.90000
   1037.27,  2591.40000,  1180.50000
   1037.72,  2599.20000,  1193.00000
   1038.16,  2692.10000,  1198.60000
   1038.61,  2763.10000,  1194.00000
   1039.05,  2776.20000,  1198.70000
   1039.50,  2764.10000,  1197.80000
   1039.95,  2710.60000,  1196.60000
   1040.39,  2651.30000,  1200.10000
   1040.84,  2661.50000,  1203.50000
   1041.28,  2660.50000,  1208.40000
   1041.73,  2660.60000,  1215.40000
   1042.17,  2659.90000,  1222.10000
   1042.62,  2654.20000,  1226.00000
   1043.06,  2658.70000,  1225.00000
   1043.51,  2640.00000,  1225.20000
   1043.95,  2646.40000,  1232.20000
   1044.40,  2648.30000,  1237.10000
   1044.84,  2636.40000,  1238.50000
   1045.29,  2626.30000,  1252.80000
   1045.73,  2633.60000,  1251.80000
   1046.18,  2620.40000,  1249.20000
   1046.62,  2617.50000,  1249.40000
   1047.07,  2611.90000,  1255.00000
   1047.51,  2610.30000,  1242.80000
   1047.96,  2637.70000,  1257.40000
   1048.40,  2681.40000,  1254.30000
   1048.85,  2695.50000,  1255.20000
   1049.29,  2671.70000,  1267.60000
   1049.74,  2626.70000,  1277.60000
   1050.18,  2594.60000,  1276.10000
   1050.63,  2590.80000,  1282.60000
   1051.07,  2603.70000,  1289.20000
   1051.52,  2627.50000,  1289.70000
   1051.96,  2612.80000,  1296.70000
   1052.41,  2602.10000,  1289.60000
   1052.85,  2604.20000,  1287.30000
   1053.30,  2595.00000,  1290.30000
   1053.74,  2597.80000,  1295.70000
   1054.18,  2610.60000,  1300.30000
   1054.63,  2589.80000,  1311.00000
   1055.07,  2580.70000,  1313.40000
   1055.52,  2574.80000,  1314.50000
   1055.96,  2566.40000,  1315.10000
   1056.41,  2565.20000,  1307.80000
   1056.85,  2561.30000,  1313.10000
   1057.30,  2562.30000,  1317.30000
   1057.74,  2555.90000,  1327.70000
   1058.18,  2557.90000,  1328.20000
   1058.63,  2535.90000,  1329.60000
   1059.07,  2540.10000,  1339.30000
   1059.52,  2555.30000,  1337.50000
   1059.96,  2563.30000,  1341.80000
   1060.41,  2563.50000,  1344.80000
   1060.85,  2568.50000,  1352.10000
   1061.30,  2547.70000,  1361.20000
   1061.74,  2537.50000,  1370.90000
   1062.18,  2530.70000,  1378.30000
   1062.63,  2509.70000,  1384.90000
   1063.07,  2510.60000,  1378.30000
   1063.52,  2517.00000,  1380.50000
   1063.96,  2534.40000,  1390.20000
   1064.40,  2534.40000,  1386.60000
   1064.85,  2527.80000,  1388.80000
   1065.29,  2508.20000,  1390.80000
   1065.74,  2494.30000,  1389.70000
   1066.18,  2472.80000,  1387.00000
