2D Measure spectrum data V5.74

<< MEASURE 1 >>
Data count = 2048
Exposure time = 30000 msec
Average = 10
Inspected time = 2020/10/19 19:11

Wave-dcm-1,Dark spec.  ,Spectrum
    108.17,  2239.60000,   668.00000
    108.66,  2246.50000,   664.20000
    109.15,  2258.30000,   654.20000
    109.65,  2288.20000,   636.50000
    110.14,  2298.70000,   622.00000
    110.63,  2307.60000,   614.80000
    111.13,  2318.20000,   612.30000
    111.62,  2304.30000,   617.10000
    112.11,  2313.40000,   613.70000
    112.60,  2340.00000,   605.30000
    113.10,  2330.50000,   604.30000
    113.59,  2354.80000,   598.70000
    114.08,  2366.50000,   603.00000
    114.58,  2351.10000,   613.80000
    115.07,  2386.30000,   617.60000
    115.56,  2405.10000,   613.60000
    116.06,  2398.20000,   616.90000
    116.55,  2406.90000,   604.60000
    117.04,  2392.80000,   606.90000
    117.53,  2369.90000,   603.00000
    118.03,  2402.50000,   611.20000
    118.52,  2411.80000,   611.90000
    119.01,  2407.60000,   619.10000
    119.51,  2493.80000,   632.10000
    120.00,  2579.90000,   647.50000
    120.49,  2615.20000,   659.50000
    120.98,  2616.30000,   673.50000
    121.48,  2538.50000,   679.20000
    121.97,  2436.80000,   689.20000
    122.46,  2420.20000,   708.60000
    122.95,  2447.20000,   719.60000
    123.45,  2477.60000,   748.50000
    123.94,  2487.40000,   755.90000
    124.43,  2512.10000,   772.20000
    124.92,  2542.00000,   795.50000
    125.42,  2538.90000,   811.60000
    125.91,  2558.60000,   830.10000
    126.40,  2550.20000,   848.50000
    126.89,  2527.20000,   856.00000
    127.39,  2519.60000,   857.00000
    127.88,  2511.00000,   871.10000
    128.37,  2505.80000,   879.70000
    128.86,  2528.00000,   899.20000
    129.35,  2519.50000,   927.80000
    129.85,  2529.10000,   955.40000
    130.34,  2521.80000,   973.60000
    130.83,  2528.60000,   992.50000
    131.32,  2546.10000,   989.70000
    131.81,  2554.90000,   996.30000
    132.31,  2546.30000,  1011.90000
    132.80,  2546.10000,  1012.40000
    133.29,  2519.50000,  1023.60000
    133.78,  2525.80000,  1034.90000
    134.27,  2544.70000,  1034.10000
    134.77,  2554.50000,  1053.50000
    135.26,  2576.00000,  1068.90000
    135.75,  2571.10000,  1075.50000
    136.24,  2582.60000,  1089.30000
    136.73,  2572.90000,  1094.20000
    137.23,  2592.40000,  1093.90000
    137.72,  2588.80000,  1102.70000
    138.21,  2588.10000,  1107.10000
    138.70,  2571.40000,  1106.30000
    139.19,  2605.40000,  1106.50000
    139.68,  2594.20000,  1113.10000
    140.18,  2601.10000,  1114.80000
    140.67,  2610.90000,  1135.10000
    141.16,  2610.60000,  1143.60000
    141.65,  2593.70000,  1159.10000
    142.14,  2589.80000,  1161.50000
    142.63,  2603.00000,  1182.10000
    143.13,  2607.60000,  1186.10000
    143.62,  2647.80000,  1202.00000
    144.11,  2650.50000,  1206.20000
    144.60,  2614.10000,  1217.60000
    145.09,  2605.20000,  1214.90000
    145.58,  2659.50000,  1218.00000
    146.07,  2676.00000,  1232.20000
    146.56,  2684.90000,  1245.20000
    147.06,  2666.80000,  1272.80000
    147.55,  2634.30000,  1279.30000
    148.04,  2597.70000,  1289.40000
    148.53,  2629.40000,  1296.40000
    149.02,  2604.80000,  1321.10000
    149.51,  2681.80000,  1340.30000
    150.00,  2735.10000,  1376.00000
    150.49,  2761.80000,  1391.10000
    150.99,  2758.20000,  1417.80000
    151.48,  2736.30000,  1439.80000
    151.97,  2653.50000,  1462.70000
    152.46,  2657.40000,  1484.50000
    152.95,  2642.30000,  1487.50000
    153.44,  2641.20000,  1492.20000
    153.93,  2658.60000,  1491.30000
    154.42,  2679.70000,  1495.10000
    154.91,  2661.30000,  1503.40000
    155.40,  2641.00000,  1521.10000
    155.89,  2624.50000,  1523.70000
    156.39,  2640.20000,  1535.30000
    156.88,  2616.20000,  1538.40000
    157.37,  2633.40000,  1544.50000
    157.86,  2645.10000,  1564.00000
    158.35,  2651.80000,  1593.90000
    158.84,  2664.80000,  1626.30000
    159.33,  2711.60000,  1649.50000
    159.82,  2713.20000,  1669.40000
    160.31,  2727.10000,  1677.50000
    160.80,  2763.20000,  1702.40000
    161.29,  2720.80000,  1710.80000
    161.78,  2691.10000,  1708.30000
    162.27,  2662.40000,  1702.10000
    162.76,  2658.10000,  1701.20000
    163.25,  2663.70000,  1718.50000
    163.74,  2691.20000,  1753.30000
    164.23,  2699.20000,  1766.00000
    164.72,  2723.20000,  1781.10000
    165.21,  2700.20000,  1794.40000
    165.70,  2688.40000,  1806.50000
    166.20,  2724.40000,  1828.80000
    166.69,  2739.90000,  1849.20000
    167.18,  2751.50000,  1856.10000
    167.67,  2746.30000,  1854.90000
    168.16,  2716.10000,  1844.30000
    168.65,  2665.90000,  1832.40000
    169.14,  2697.20000,  1817.90000
    169.63,  2697.20000,  1818.10000
    170.12,  2687.20000,  1821.30000
    170.61,  2680.60000,  1813.50000
    171.10,  2739.50000,  1800.00000
    171.59,  2735.40000,  1795.70000
    172.08,  2750.40000,  1786.30000
    172.57,  2745.00000,  1786.70000
    173.06,  2738.30000,  1788.10000
    173.55,  2728.50000,  1787.30000
    174.04,  2718.70000,  1785.50000
    174.53,  2709.40000,  1791.20000
    175.02,  2704.50000,  1793.00000
    175.50,  2728.20000,  1802.60000
    175.99,  2759.40000,  1807.20000
    176.48,  2791.10000,  1796.10000
    176.97,  2765.30000,  1785.20000
    177.46,  2769.20000,  1765.40000
    177.95,  2734.30000,  1757.00000
    178.44,  2722.00000,  1744.80000
    178.93,  2702.60000,  1749.80000
    179.42,  2721.90000,  1744.30000
    179.91,  2733.60000,  1735.60000
    180.40,  2745.70000,  1745.60000
    180.89,  2749.30000,  1758.40000
    181.38,  2734.70000,  1771.20000
    181.87,  2720.00000,  1795.10000
    182.36,  2712.50000,  1813.30000
    182.85,  2687.30000,  1810.20000
    183.34,  2712.80000,  1816.00000
    183.83,  2724.10000,  1807.00000
    184.32,  2720.70000,  1798.60000
    184.81,  2762.50000,  1776.40000
    185.29,  2767.00000,  1768.60000
    185.78,  2743.70000,  1760.00000
    186.27,  2753.20000,  1756.90000
    186.76,  2738.70000,  1754.90000
    187.25,  2707.10000,  1749.60000
    187.74,  2774.30000,  1746.20000
    188.23,  2810.50000,  1743.50000
    188.72,  2826.00000,  1755.90000
    189.21,  2810.90000,  1763.70000
    189.70,  2782.70000,  1765.20000
    190.19,  2739.70000,  1776.10000
    190.67,  2732.10000,  1779.70000
    191.16,  2736.80000,  1778.90000
    191.65,  2731.60000,  1788.00000
    192.14,  2720.00000,  1780.30000
    192.63,  2747.00000,  1775.40000
    193.12,  2756.90000,  1779.00000
    193.61,  2742.70000,  1779.90000
    194.10,  2757.20000,  1781.00000
    194.59,  2749.20000,  1773.60000
    195.07,  2749.20000,  1774.10000
    195.56,  2765.80000,  1776.40000
    196.05,  2745.60000,  1774.80000
    196.54,  2731.60000,  1786.30000
    197.03,  2747.80000,  1785.30000
    197.52,  2794.50000,  1762.10000
    198.01,  2808.90000,  1749.80000
    198.49,  2807.40000,  1734.80000
    198.98,  2799.60000,  1715.80000
    199.47,  2757.00000,  1717.10000
    199.96,  2744.90000,  1722.50000
    200.45,  2761.30000,  1722.40000
    200.94,  2743.50000,  1717.30000
    201.43,  2739.60000,  1720.90000
    201.91,  2736.60000,  1708.70000
    202.40,  2726.90000,  1705.20000
    202.89,  2733.00000,  1699.60000
    203.38,  2747.50000,  1705.30000
    203.87,  2742.00000,  1703.30000
    204.36,  2731.00000,  1698.70000
    204.84,  2730.80000,  1694.00000
    205.33,  2753.50000,  1688.60000
    205.82,  2771.90000,  1687.50000
    206.31,  2764.30000,  1698.50000
    206.80,  2752.30000,  1707.60000
    207.28,  2758.70000,  1700.60000
    207.77,  2763.00000,  1708.80000
    208.26,  2779.40000,  1709.20000
    208.75,  2781.30000,  1712.50000
    209.24,  2758.60000,  1714.20000
    209.72,  2768.80000,  1713.20000
    210.21,  2784.40000,  1710.40000
    210.70,  2766.90000,  1719.70000
    211.19,  2786.10000,  1730.10000
    211.68,  2796.50000,  1733.20000
    212.16,  2807.70000,  1732.80000
    212.65,  2818.90000,  1731.80000
    213.14,  2799.60000,  1743.90000
    213.63,  2779.40000,  1749.00000
    214.12,  2750.30000,  1764.00000
    214.60,  2764.90000,  1759.10000
    215.09,  2789.20000,  1756.40000
    215.58,  2793.70000,  1756.10000
    216.07,  2788.00000,  1774.90000
    216.55,  2791.90000,  1793.00000
    217.04,  2725.90000,  1825.00000
    217.53,  2722.50000,  1837.60000
    218.02,  2724.10000,  1843.10000
    218.50,  2736.90000,  1847.30000
    218.99,  2757.20000,  1862.20000
    219.48,  2780.30000,  1887.40000
    219.97,  2743.50000,  1926.80000
    220.45,  2746.40000,  1965.50000
    220.94,  2742.10000,  1981.40000
    221.43,  2758.50000,  2005.20000
    221.92,  2785.00000,  2021.40000
    222.40,  2790.70000,  2036.80000
    222.89,  2785.50000,  2053.20000
    223.38,  2810.00000,  2060.00000
    223.86,  2832.10000,  2066.00000
    224.35,  2849.70000,  2093.20000
    224.84,  2854.40000,  2113.90000
    225.33,  2832.20000,  2134.10000
    225.81,  2794.90000,  2148.00000
    226.30,  2774.60000,  2149.40000
    226.79,  2774.60000,  2144.30000
    227.27,  2768.40000,  2139.00000
    227.76,  2776.40000,  2120.70000
    228.25,  2796.10000,  2111.30000
    228.74,  2807.90000,  2093.60000
    229.22,  2828.90000,  2067.80000
    229.71,  2828.00000,  2028.00000
    230.20,  2813.80000,  1996.90000
    230.68,  2802.20000,  1963.20000
    231.17,  2779.50000,  1946.80000
    231.66,  2746.20000,  1918.00000
    232.14,  2740.60000,  1893.40000
    232.63,  2734.60000,  1861.30000
    233.12,  2762.20000,  1834.10000
    233.60,  2788.80000,  1801.10000
    234.09,  2767.00000,  1776.10000
    234.58,  2750.90000,  1748.10000
    235.06,  2754.80000,  1726.60000
    235.55,  2745.10000,  1711.00000
    236.04,  2743.20000,  1694.10000
    236.52,  2759.00000,  1683.60000
    237.01,  2738.60000,  1662.00000
    237.50,  2773.10000,  1644.10000
    237.98,  2767.90000,  1625.70000
    238.47,  2822.30000,  1609.70000
    238.96,  2828.50000,  1601.20000
    239.44,  2823.90000,  1597.60000
    239.93,  2817.90000,  1594.20000
    240.41,  2777.60000,  1585.80000
    240.90,  2709.30000,  1573.30000
    241.39,  2740.80000,  1558.40000
    241.87,  2781.90000,  1556.90000
    242.36,  2806.50000,  1544.30000
    242.85,  2842.20000,  1549.50000
    243.33,  2830.00000,  1530.70000
    243.82,  2799.40000,  1523.30000
    244.30,  2771.30000,  1518.80000
    244.79,  2778.70000,  1526.10000
    245.28,  2766.10000,  1522.80000
    245.76,  2761.50000,  1530.50000
    246.25,  2749.30000,  1521.90000
    246.74,  2767.50000,  1525.00000
    247.22,  2795.00000,  1520.90000
    247.71,  2793.60000,  1525.10000
    248.19,  2781.60000,  1531.50000
    248.68,  2778.00000,  1533.40000
    249.16,  2748.30000,  1525.00000
    249.65,  2783.60000,  1512.20000
    250.14,  2801.30000,  1511.70000
    250.62,  2779.30000,  1499.00000
    251.11,  2756.80000,  1499.90000
    251.59,  2742.40000,  1486.50000
    252.08,  2737.20000,  1476.10000
    252.57,  2752.90000,  1470.50000
    253.05,  2752.60000,  1479.20000
    253.54,  2780.30000,  1479.80000
    254.02,  2806.50000,  1475.80000
    254.51,  2813.40000,  1478.00000
    254.99,  2812.00000,  1477.60000
    255.48,  2779.90000,  1484.50000
    255.96,  2749.10000,  1481.50000
    256.45,  2767.00000,  1488.80000
    256.94,  2769.50000,  1482.60000
    257.42,  2768.30000,  1489.40000
    257.91,  2775.60000,  1490.10000
    258.39,  2776.10000,  1489.80000
    258.88,  2765.80000,  1475.90000
    259.36,  2791.60000,  1466.20000
    259.85,  2789.40000,  1468.50000
    260.33,  2802.80000,  1471.00000
    260.82,  2818.60000,  1482.20000
    261.30,  2825.20000,  1484.70000
    261.79,  2802.80000,  1477.80000
    262.27,  2790.20000,  1469.50000
    262.76,  2774.70000,  1474.70000
    263.24,  2770.10000,  1472.50000
    263.73,  2786.80000,  1483.70000
    264.22,  2778.70000,  1483.60000
    264.70,  2840.80000,  1477.70000
    265.19,  2869.30000,  1478.10000
    265.67,  2874.70000,  1482.80000
    266.16,  2852.50000,  1481.60000
    266.64,  2830.70000,  1480.20000
    267.13,  2761.10000,  1485.60000
    267.61,  2762.60000,  1490.80000
    268.10,  2778.70000,  1496.10000
    268.58,  2782.60000,  1501.80000
    269.06,  2788.20000,  1502.50000
    269.55,  2811.30000,  1498.30000
    270.03,  2814.90000,  1512.90000
    270.52,  2809.30000,  1528.10000
    271.00,  2817.80000,  1539.70000
    271.49,  2815.90000,  1539.90000
    271.97,  2815.00000,  1543.00000
    272.46,  2826.30000,  1544.40000
    272.94,  2826.40000,  1543.70000
    273.43,  2817.10000,  1557.50000
    273.91,  2788.10000,  1556.50000
    274.40,  2776.40000,  1561.70000
    274.88,  2764.10000,  1566.90000
    275.37,  2767.00000,  1581.30000
    275.85,  2764.00000,  1592.60000
    276.33,  2768.50000,  1609.40000
    276.82,  2782.00000,  1605.20000
    277.30,  2793.70000,  1617.00000
    277.79,  2790.40000,  1614.90000
    278.27,  2798.10000,  1625.60000
    278.76,  2805.50000,  1639.60000
    279.24,  2812.20000,  1641.80000
    279.73,  2815.20000,  1638.50000
    280.21,  2806.80000,  1640.20000
    280.69,  2779.60000,  1658.70000
    281.18,  2777.80000,  1670.30000
    281.66,  2789.90000,  1693.40000
    282.15,  2827.40000,  1700.50000
    282.63,  2824.50000,  1705.60000
    283.11,  2820.90000,  1699.50000
    283.60,  2815.80000,  1716.20000
    284.08,  2821.20000,  1725.10000
    284.57,  2799.50000,  1731.20000
    285.05,  2802.80000,  1727.50000
    285.53,  2780.10000,  1722.20000
    286.02,  2755.00000,  1710.90000
    286.50,  2775.60000,  1713.10000
    286.99,  2787.50000,  1734.60000
    287.47,  2778.20000,  1735.10000
    287.95,  2775.70000,  1733.90000
    288.44,  2768.80000,  1732.40000
    288.92,  2764.60000,  1725.10000
    289.41,  2780.30000,  1713.60000
    289.89,  2806.30000,  1708.60000
    290.37,  2807.90000,  1705.50000
    290.86,  2828.90000,  1696.40000
    291.34,  2792.20000,  1697.30000
    291.82,  2781.20000,  1685.30000
    292.31,  2762.80000,  1667.60000
    292.79,  2780.40000,  1655.30000
    293.28,  2773.70000,  1652.10000
    293.76,  2789.70000,  1644.30000
    294.24,  2786.00000,  1647.10000
    294.73,  2812.40000,  1628.80000
    295.21,  2821.80000,  1624.70000
    295.69,  2825.80000,  1626.10000
    296.18,  2796.20000,  1612.20000
    296.66,  2763.00000,  1595.30000
    297.14,  2757.80000,  1584.30000
    297.63,  2771.30000,  1571.00000
    298.11,  2787.40000,  1568.70000
    298.59,  2813.50000,  1568.40000
    299.08,  2816.00000,  1563.30000
    299.56,  2818.00000,  1544.60000
    300.04,  2835.70000,  1528.90000
    300.53,  2843.90000,  1512.30000
    301.01,  2841.40000,  1500.00000
    301.49,  2834.60000,  1487.00000
    301.98,  2801.20000,  1480.10000
    302.46,  2778.20000,  1471.40000
    302.94,  2771.20000,  1471.20000
    303.42,  2773.10000,  1454.00000
    303.91,  2757.30000,  1453.30000
    304.39,  2744.70000,  1439.50000
    304.87,  2749.30000,  1426.40000
    305.36,  2770.50000,  1416.10000
    305.84,  2800.10000,  1411.90000
    306.32,  2836.30000,  1403.60000
    306.81,  2822.90000,  1395.80000
    307.29,  2800.40000,  1383.80000
    307.77,  2789.40000,  1382.60000
    308.25,  2789.40000,  1373.10000
    308.74,  2812.40000,  1357.50000
    309.22,  2810.30000,  1353.50000
    309.70,  2796.60000,  1340.90000
    310.18,  2780.40000,  1336.60000
    310.67,  2784.20000,  1345.00000
    311.15,  2792.90000,  1346.60000
    311.63,  2813.40000,  1336.60000
    312.12,  2816.70000,  1329.10000
    312.60,  2791.40000,  1319.50000
    313.08,  2764.70000,  1313.50000
    313.56,  2751.60000,  1310.30000
    314.05,  2750.40000,  1300.00000
    314.53,  2774.50000,  1290.00000
    315.01,  2832.90000,  1279.70000
    315.49,  2832.70000,  1279.30000
    315.98,  2833.20000,  1283.50000
    316.46,  2802.00000,  1294.10000
    316.94,  2762.90000,  1286.80000
    317.42,  2749.60000,  1282.50000
    317.90,  2756.80000,  1270.90000
    318.39,  2741.50000,  1268.50000
    318.87,  2788.30000,  1276.20000
    319.35,  2804.50000,  1292.40000
    319.83,  2812.60000,  1290.40000
    320.32,  2829.30000,  1275.70000
    320.80,  2841.50000,  1262.10000
    321.28,  2804.10000,  1250.10000
    321.76,  2834.60000,  1250.90000
    322.24,  2829.00000,  1259.50000
    322.73,  2842.10000,  1258.80000
    323.21,  2847.60000,  1254.50000
    323.69,  2853.70000,  1259.10000
    324.17,  2807.10000,  1253.60000
    324.65,  2773.10000,  1250.60000
    325.14,  2771.20000,  1255.00000
    325.62,  2777.30000,  1260.60000
    326.10,  2817.30000,  1265.20000
    326.58,  2844.60000,  1260.00000
    327.06,  2813.00000,  1251.30000
    327.55,  2826.30000,  1244.80000
    328.03,  2855.00000,  1241.80000
    328.51,  2858.80000,  1249.70000
    328.99,  2874.60000,  1248.60000
    329.47,  2868.10000,  1242.70000
    329.95,  2798.00000,  1239.70000
    330.44,  2804.90000,  1245.20000
    330.92,  2772.90000,  1245.50000
    331.40,  2753.60000,  1252.20000
    331.88,  2748.50000,  1243.00000
    332.36,  2757.70000,  1242.80000
    332.84,  2791.50000,  1226.30000
    333.33,  2829.90000,  1230.20000
    333.81,  2830.40000,  1228.80000
    334.29,  2830.80000,  1231.70000
    334.77,  2825.70000,  1223.60000
    335.25,  2808.20000,  1230.90000
    335.73,  2825.20000,  1230.00000
    336.21,  2821.20000,  1233.30000
    336.69,  2810.90000,  1226.10000
    337.18,  2804.60000,  1210.40000
    337.66,  2787.50000,  1196.30000
    338.14,  2766.90000,  1189.10000
    338.62,  2756.70000,  1197.00000
    339.10,  2782.00000,  1196.10000
    339.58,  2820.60000,  1194.00000
    340.06,  2837.50000,  1179.50000
    340.54,  2844.00000,  1172.20000
    341.03,  2829.60000,  1176.00000
    341.51,  2793.60000,  1190.60000
    341.99,  2786.90000,  1207.70000
    342.47,  2796.90000,  1204.90000
    342.95,  2791.30000,  1194.80000
    343.43,  2795.40000,  1191.40000
    343.91,  2793.00000,  1190.80000
    344.39,  2774.00000,  1187.60000
    344.87,  2756.20000,  1195.70000
    345.35,  2781.10000,  1179.30000
    345.84,  2788.70000,  1179.30000
    346.32,  2835.20000,  1181.90000
    346.80,  2847.70000,  1187.40000
    347.28,  2841.80000,  1191.60000
    347.76,  2810.90000,  1201.30000
    348.24,  2809.10000,  1200.60000
    348.72,  2828.40000,  1201.60000
    349.20,  2856.80000,  1193.20000
    349.68,  2838.40000,  1188.80000
    350.16,  2804.50000,  1184.60000
    350.64,  2761.70000,  1183.50000
    351.12,  2752.60000,  1183.00000
    351.60,  2814.10000,  1181.20000
    352.08,  2862.20000,  1174.60000
    352.56,  2882.00000,  1168.70000
    353.04,  2868.50000,  1179.80000
    353.53,  2839.80000,  1186.60000
    354.01,  2815.80000,  1188.20000
    354.49,  2832.00000,  1194.10000
    354.97,  2832.90000,  1190.90000
    355.45,  2831.20000,  1191.60000
    355.93,  2803.80000,  1199.30000
    356.41,  2815.30000,  1197.80000
    356.89,  2800.70000,  1185.00000
    357.37,  2821.00000,  1183.00000
    357.85,  2804.60000,  1176.80000
    358.33,  2794.70000,  1183.60000
    358.81,  2768.20000,  1190.90000
    359.29,  2778.50000,  1189.40000
    359.77,  2796.40000,  1184.10000
    360.25,  2822.30000,  1183.10000
    360.73,  2819.90000,  1182.20000
    361.21,  2804.70000,  1184.80000
    361.69,  2805.50000,  1189.80000
    362.17,  2803.60000,  1182.10000
    362.65,  2816.60000,  1189.60000
    363.13,  2826.10000,  1190.90000
    363.61,  2833.70000,  1201.10000
    364.09,  2804.90000,  1192.70000
    364.57,  2806.60000,  1186.50000
    365.05,  2805.00000,  1173.40000
    365.53,  2781.60000,  1188.40000
    366.01,  2796.70000,  1192.40000
    366.49,  2831.20000,  1201.00000
    366.97,  2799.30000,  1194.30000
    367.45,  2819.40000,  1187.50000
    367.93,  2849.90000,  1181.70000
    368.41,  2835.90000,  1189.90000
    368.89,  2834.40000,  1188.50000
    369.37,  2834.80000,  1188.30000
    369.85,  2784.20000,  1188.80000
    370.33,  2796.00000,  1200.70000
    370.80,  2816.00000,  1210.10000
    371.28,  2826.40000,  1211.50000
    371.76,  2807.80000,  1210.10000
    372.24,  2790.50000,  1201.70000
    372.72,  2787.90000,  1194.90000
    373.20,  2799.10000,  1200.40000
    373.68,  2825.90000,  1191.60000
    374.16,  2853.70000,  1191.50000
    374.64,  2831.10000,  1198.50000
    375.12,  2795.50000,  1215.80000
    375.60,  2823.20000,  1221.90000
    376.08,  2799.30000,  1228.00000
    376.56,  2801.90000,  1211.90000
    377.04,  2803.30000,  1204.30000
    377.52,  2810.60000,  1200.30000
    377.99,  2800.90000,  1210.90000
    378.47,  2824.70000,  1219.60000
    378.95,  2800.20000,  1239.60000
    379.43,  2815.80000,  1246.20000
    379.91,  2816.00000,  1247.00000
    380.39,  2867.00000,  1243.00000
    380.87,  2898.70000,  1228.30000
    381.35,  2889.40000,  1218.70000
    381.83,  2861.20000,  1218.50000
    382.31,  2822.50000,  1230.50000
    382.79,  2779.80000,  1236.30000
    383.26,  2795.40000,  1240.10000
    383.74,  2799.90000,  1234.70000
    384.22,  2794.70000,  1239.50000
    384.70,  2801.10000,  1245.50000
    385.18,  2776.90000,  1258.90000
    385.66,  2783.60000,  1266.90000
    386.14,  2795.40000,  1257.90000
    386.62,  2809.90000,  1248.60000
    387.09,  2825.40000,  1252.90000
    387.57,  2836.80000,  1260.10000
    388.05,  2832.30000,  1263.50000
    388.53,  2825.50000,  1275.00000
    389.01,  2826.00000,  1270.60000
    389.49,  2841.60000,  1272.30000
    389.97,  2834.00000,  1280.10000
    390.44,  2824.30000,  1289.30000
    390.92,  2810.90000,  1294.60000
    391.40,  2794.50000,  1288.60000
    391.88,  2799.40000,  1282.90000
    392.36,  2808.10000,  1273.70000
    392.84,  2805.30000,  1267.90000
    393.32,  2815.50000,  1274.70000
    393.79,  2808.90000,  1278.80000
    394.27,  2857.40000,  1275.70000
    394.75,  2865.90000,  1278.30000
    395.23,  2864.70000,  1274.00000
    395.71,  2848.20000,  1270.50000
    396.18,  2841.90000,  1280.20000
    396.66,  2848.80000,  1277.90000
    397.14,  2873.30000,  1283.30000
    397.62,  2836.60000,  1292.20000
    398.10,  2824.40000,  1299.40000
    398.58,  2807.50000,  1304.90000
    399.05,  2815.80000,  1303.90000
    399.53,  2831.20000,  1291.70000
    400.01,  2829.00000,  1288.70000
    400.49,  2805.60000,  1287.10000
    400.97,  2788.50000,  1284.80000
    401.44,  2756.50000,  1289.10000
    401.92,  2778.30000,  1291.70000
    402.40,  2783.30000,  1286.80000
    402.88,  2816.40000,  1279.90000
    403.36,  2827.30000,  1280.20000
    403.83,  2848.20000,  1268.50000
    404.31,  2809.90000,  1272.50000
    404.79,  2822.80000,  1272.20000
    405.27,  2803.40000,  1275.80000
    405.74,  2794.00000,  1269.00000
    406.22,  2811.20000,  1278.60000
    406.70,  2840.30000,  1271.30000
    407.18,  2816.10000,  1276.40000
    407.65,  2804.10000,  1272.30000
    408.13,  2772.60000,  1272.00000
    408.61,  2776.70000,  1272.00000
    409.09,  2793.70000,  1272.60000
    409.56,  2809.70000,  1257.50000
    410.04,  2821.60000,  1245.00000
    410.52,  2813.50000,  1234.60000
    411.00,  2795.50000,  1214.20000
    411.47,  2788.00000,  1219.40000
    411.95,  2773.80000,  1221.10000
    412.43,  2778.00000,  1225.30000
    412.91,  2783.00000,  1229.90000
    413.38,  2797.50000,  1235.10000
    413.86,  2814.40000,  1219.40000
    414.34,  2810.20000,  1218.40000
    414.82,  2814.10000,  1206.30000
    415.29,  2812.80000,  1200.00000
    415.77,  2817.90000,  1210.60000
    416.25,  2814.70000,  1212.70000
    416.72,  2818.80000,  1213.00000
    417.20,  2811.70000,  1209.50000
    417.68,  2779.20000,  1197.40000
    418.16,  2775.20000,  1182.30000
    418.63,  2797.00000,  1179.60000
    419.11,  2801.40000,  1165.80000
    419.59,  2819.80000,  1156.40000
    420.06,  2798.40000,  1149.40000
    420.54,  2764.30000,  1154.00000
    421.02,  2777.00000,  1168.60000
    421.50,  2797.80000,  1171.70000
    421.97,  2804.70000,  1180.90000
    422.45,  2801.10000,  1176.90000
    422.93,  2785.70000,  1178.50000
    423.40,  2764.90000,  1180.10000
    423.88,  2764.10000,  1179.60000
    424.36,  2778.70000,  1169.00000
    424.83,  2793.50000,  1166.10000
    425.31,  2816.20000,  1160.60000
    425.79,  2863.80000,  1161.10000
    426.26,  2891.70000,  1171.00000
    426.74,  2863.30000,  1174.30000
    427.22,  2849.10000,  1174.80000
    427.69,  2833.40000,  1162.80000
    428.17,  2817.40000,  1156.70000
    428.65,  2803.80000,  1148.70000
    429.12,  2833.10000,  1155.50000
    429.60,  2806.40000,  1164.70000
    430.08,  2811.00000,  1170.40000
    430.55,  2820.70000,  1155.70000
    431.03,  2823.40000,  1152.20000
    431.50,  2817.60000,  1147.40000
    431.98,  2816.30000,  1144.10000
    432.46,  2815.90000,  1154.50000
    432.93,  2799.50000,  1157.20000
    433.41,  2787.20000,  1149.90000
    433.89,  2783.10000,  1151.50000
    434.36,  2788.50000,  1152.30000
    434.84,  2782.30000,  1148.80000
    435.31,  2801.40000,  1152.70000
    435.79,  2797.20000,  1148.90000
    436.27,  2786.70000,  1152.00000
    436.74,  2782.50000,  1156.70000
    437.22,  2789.40000,  1155.90000
    437.70,  2795.80000,  1143.50000
    438.17,  2801.20000,  1127.60000
    438.65,  2796.10000,  1127.60000
    439.12,  2803.50000,  1129.50000
    439.60,  2799.80000,  1146.40000
    440.08,  2804.30000,  1156.00000
    440.55,  2788.90000,  1155.10000
    441.03,  2801.60000,  1154.00000
    441.50,  2799.10000,  1154.20000
    441.98,  2813.00000,  1145.50000
    442.45,  2808.90000,  1143.70000
    442.93,  2811.80000,  1134.10000
    443.41,  2799.00000,  1125.60000
    443.88,  2799.80000,  1096.10000
    444.36,  2787.50000,  1236.60000
    444.83,  2780.40000,  1381.20000
    445.31,  2780.20000,  1437.70000
    445.78,  2759.90000,  1412.90000
    446.26,  2763.90000,  1298.80000
    446.74,  2762.40000,  1129.10000
    447.21,  2787.90000,  1132.80000
    447.69,  2812.80000,  1142.20000
    448.16,  2831.00000,  1144.80000
    448.64,  2809.10000,  1150.40000
    449.11,  2791.40000,  1143.20000
    449.59,  2789.00000,  1144.10000
    450.06,  2788.50000,  1145.90000
    450.54,  2788.00000,  1139.40000
    451.02,  2811.40000,  1142.70000
    451.49,  2824.30000,  1148.00000
    451.97,  2823.50000,  1146.30000
    452.44,  2819.10000,  1147.20000
    452.92,  2804.90000,  1143.30000
    453.39,  2791.70000,  1127.40000
    453.87,  2801.40000,  1115.30000
    454.34,  2808.20000,  1119.90000
    454.82,  2813.20000,  1125.70000
    455.29,  2819.60000,  1136.30000
    455.77,  2821.30000,  1141.10000
    456.24,  2794.90000,  1137.90000
    456.72,  2767.80000,  1136.00000
    457.19,  2763.50000,  1139.40000
    457.67,  2778.90000,  1142.40000
    458.14,  2812.10000,  1144.70000
    458.62,  2825.30000,  1139.70000
    459.09,  2817.40000,  1134.40000
    459.57,  2786.40000,  1134.30000
    460.04,  2788.50000,  1138.60000
    460.52,  2785.20000,  1145.80000
    460.99,  2779.30000,  1148.70000
    461.47,  2779.50000,  1148.30000
    461.94,  2764.60000,  1139.90000
    462.42,  2759.60000,  1133.00000
    462.89,  2778.20000,  1132.70000
    463.37,  2795.20000,  1136.90000
    463.84,  2802.40000,  1143.10000
    464.32,  2807.80000,  1153.00000
    464.79,  2807.10000,  1149.50000
    465.26,  2812.50000,  1140.00000
    465.74,  2793.80000,  1137.00000
    466.21,  2812.60000,  1129.80000
    466.69,  2820.30000,  1130.50000
    467.16,  2814.50000,  1140.10000
    467.64,  2800.50000,  1139.10000
    468.11,  2784.90000,  1134.10000
    468.59,  2776.60000,  1136.80000
    469.06,  2795.30000,  1129.70000
    469.54,  2822.50000,  1128.10000
    470.01,  2820.90000,  1134.70000
    470.48,  2785.10000,  1145.70000
    470.96,  2799.40000,  1146.70000
    471.43,  2820.30000,  1153.90000
    471.91,  2841.40000,  1140.30000
    472.38,  2877.50000,  1127.40000
    472.86,  2856.90000,  1122.00000
    473.33,  2800.70000,  1138.60000
    473.80,  2791.70000,  1150.10000
    474.28,  2798.40000,  1155.40000
    474.75,  2809.80000,  1150.40000
    475.23,  2847.90000,  1142.80000
    475.70,  2846.80000,  1139.00000
    476.17,  2815.10000,  1144.20000
    476.65,  2807.70000,  1148.50000
    477.12,  2810.70000,  1140.30000
    477.60,  2770.80000,  1140.10000
    478.07,  2772.20000,  1144.30000
    478.54,  2788.50000,  1142.60000
    479.02,  2804.20000,  1138.60000
    479.49,  2839.30000,  1132.90000
    479.97,  2845.80000,  1131.20000
    480.44,  2827.00000,  1135.80000
    480.91,  2788.90000,  1153.70000
    481.39,  2780.40000,  1152.90000
    481.86,  2780.90000,  1164.30000
    482.34,  2769.20000,  1157.10000
    482.81,  2785.50000,  1146.60000
    483.28,  2814.30000,  1133.70000
    483.76,  2799.50000,  1135.50000
    484.23,  2820.50000,  1139.40000
    484.70,  2805.80000,  1156.40000
    485.18,  2800.70000,  1153.20000
    485.65,  2806.20000,  1141.70000
    486.12,  2807.00000,  1138.60000
    486.60,  2787.10000,  1129.70000
    487.07,  2786.70000,  1139.50000
    487.55,  2802.40000,  1153.30000
    488.02,  2828.10000,  1158.10000
    488.49,  2834.80000,  1147.30000
    488.97,  2849.40000,  1147.40000
    489.44,  2844.90000,  1136.10000
    489.91,  2803.70000,  1136.30000
    490.39,  2791.70000,  1144.90000
    490.86,  2747.40000,  1152.60000
    491.33,  2709.00000,  1158.60000
    491.81,  2749.80000,  1154.90000
    492.28,  2795.30000,  1153.40000
    492.75,  2798.60000,  1139.80000
    493.23,  2859.70000,  1133.40000
    493.70,  2880.80000,  1125.60000
    494.17,  2868.50000,  1140.20000
    494.64,  2850.90000,  1152.50000
    495.12,  2808.20000,  1166.50000
    495.59,  2807.90000,  1162.60000
    496.06,  2845.60000,  1154.20000
    496.54,  2867.90000,  1131.90000
    497.01,  2850.90000,  1117.80000
    497.48,  2826.30000,  1117.20000
    497.96,  2805.40000,  1123.80000
    498.43,  2835.30000,  1133.10000
    498.90,  2840.00000,  1140.60000
    499.37,  2861.60000,  1138.30000
    499.85,  2833.80000,  1133.10000
    500.32,  2825.30000,  1134.20000
    500.79,  2806.10000,  1140.50000
    501.27,  2809.00000,  1142.00000
    501.74,  2799.60000,  1145.70000
    502.21,  2799.00000,  1141.50000
    502.68,  2792.20000,  1138.10000
    503.16,  2783.70000,  1133.30000
    503.63,  2776.30000,  1135.20000
    504.10,  2791.40000,  1133.60000
    504.57,  2778.60000,  1139.50000
    505.05,  2795.30000,  1129.70000
    505.52,  2817.80000,  1119.50000
    505.99,  2822.80000,  1101.70000
    506.46,  2816.60000,  1105.40000
    506.94,  2809.90000,  1106.60000
    507.41,  2787.50000,  1123.90000
    507.88,  2791.80000,  1122.60000
    508.35,  2786.70000,  1120.90000
    508.83,  2783.60000,  1109.90000
    509.30,  2812.10000,  1103.10000
    509.77,  2818.70000,  1097.60000
    510.24,  2813.80000,  1106.30000
    510.72,  2802.60000,  1104.10000
    511.19,  2784.60000,  1111.80000
    511.66,  2780.60000,  1118.00000
    512.13,  2806.70000,  1120.90000
    512.60,  2788.00000,  1134.20000
    513.08,  2786.00000,  1128.50000
    513.55,  2785.40000,  1117.70000
    514.02,  2770.90000,  1110.20000
    514.49,  2773.90000,  1111.00000
    514.97,  2777.70000,  1117.60000
    515.44,  2787.50000,  1128.30000
    515.91,  2786.00000,  1118.10000
    516.38,  2788.50000,  1108.20000
    516.85,  2756.70000,  1101.20000
    517.33,  2740.70000,  1099.70000
    517.80,  2742.20000,  1097.80000
    518.27,  2765.60000,  1111.70000
    518.74,  2803.30000,  1114.70000
    519.21,  2831.70000,  1117.30000
    519.68,  2818.90000,  1118.40000
    520.16,  2800.10000,  1116.00000
    520.63,  2789.00000,  1103.00000
    521.10,  2778.00000,  1104.60000
    521.57,  2801.00000,  1104.30000
    522.04,  2800.20000,  1113.00000
    522.52,  2792.60000,  1119.20000
    522.99,  2776.60000,  1119.10000
    523.46,  2790.20000,  1114.30000
    523.93,  2796.20000,  1115.40000
    524.40,  2827.60000,  1118.70000
    524.87,  2822.40000,  1116.90000
    525.34,  2813.30000,  1111.80000
    525.82,  2803.40000,  1105.40000
    526.29,  2809.70000,  1106.30000
    526.76,  2801.70000,  1114.70000
    527.23,  2807.50000,  1129.50000
    527.70,  2786.80000,  1123.60000
    528.17,  2783.20000,  1118.20000
    528.64,  2783.90000,  1112.60000
    529.12,  2793.10000,  1114.70000
    529.59,  2792.80000,  1117.90000
    530.06,  2790.60000,  1134.60000
    530.53,  2823.00000,  1138.30000
    531.00,  2803.10000,  1135.20000
    531.47,  2767.70000,  1125.00000
    531.94,  2759.90000,  1130.30000
    532.41,  2751.90000,  1131.60000
    532.89,  2769.60000,  1138.60000
    533.36,  2825.60000,  1149.20000
    533.83,  2812.30000,  1156.00000
    534.30,  2798.30000,  1160.20000
    534.77,  2807.40000,  1173.10000
    535.24,  2815.40000,  1168.90000
    535.71,  2809.70000,  1167.70000
    536.18,  2818.30000,  1161.10000
    536.65,  2814.90000,  1158.90000
    537.13,  2794.80000,  1151.50000
    537.60,  2771.90000,  1160.00000
    538.07,  2776.90000,  1153.40000
    538.54,  2762.60000,  1159.50000
    539.01,  2782.40000,  1166.30000
    539.48,  2817.50000,  1181.20000
    539.95,  2825.30000,  1193.10000
    540.42,  2827.00000,  1202.30000
    540.89,  2811.80000,  1196.80000
    541.36,  2790.00000,  1191.30000
    541.83,  2791.00000,  1198.80000
    542.30,  2793.30000,  1200.50000
    542.77,  2796.10000,  1212.50000
    543.25,  2825.90000,  1206.50000
    543.72,  2820.20000,  1209.10000
    544.19,  2813.10000,  1215.50000
    544.66,  2791.60000,  1233.80000
    545.13,  2779.10000,  1237.60000
    545.60,  2762.70000,  1246.60000
    546.07,  2789.50000,  1248.30000
    546.54,  2801.30000,  1247.30000
    547.01,  2804.80000,  1250.40000
    547.48,  2807.30000,  1243.60000
    547.95,  2800.00000,  1236.40000
    548.42,  2777.50000,  1248.30000
    548.89,  2798.40000,  1260.60000
    549.36,  2785.10000,  1270.80000
    549.83,  2774.90000,  1272.70000
    550.30,  2833.10000,  1260.60000
    550.77,  2837.40000,  1264.40000
    551.24,  2838.80000,  1273.10000
    551.71,  2854.90000,  1274.80000
    552.18,  2815.50000,  1282.90000
    552.65,  2762.90000,  1276.90000
    553.12,  2788.60000,  1276.20000
    553.59,  2790.10000,  1280.90000
    554.06,  2794.50000,  1283.30000
    554.53,  2814.20000,  1284.40000
    555.00,  2807.00000,  1282.20000
    555.47,  2798.50000,  1284.90000
    555.94,  2792.20000,  1291.50000
    556.41,  2787.10000,  1297.00000
    556.88,  2761.60000,  1308.40000
    557.35,  2756.30000,  1313.10000
    557.82,  2741.30000,  1313.90000
    558.29,  2754.10000,  1316.30000
    558.76,  2801.40000,  1310.90000
    559.23,  2820.40000,  1316.10000
    559.70,  2832.50000,  1316.00000
    560.17,  2828.80000,  1316.20000
    560.64,  2813.70000,  1319.70000
    561.11,  2793.50000,  1316.10000
    561.58,  2816.80000,  1315.10000
    562.05,  2800.10000,  1311.40000
    562.52,  2816.60000,  1304.00000
    562.99,  2811.40000,  1307.50000
    563.46,  2817.50000,  1316.80000
    563.93,  2797.90000,  1320.40000
    564.40,  2797.00000,  1326.20000
    564.87,  2807.70000,  1307.80000
    565.34,  2837.40000,  1301.20000
    565.81,  2828.40000,  1306.70000
    566.28,  2830.30000,  1303.30000
    566.74,  2801.10000,  1304.00000
    567.21,  2783.00000,  1309.20000
    567.68,  2798.60000,  1299.00000
    568.15,  2800.10000,  1293.00000
    568.62,  2794.30000,  1297.80000
    569.09,  2796.90000,  1294.20000
    569.56,  2790.10000,  1304.70000
    570.03,  2785.00000,  1315.20000
    570.50,  2818.60000,  1319.80000
    570.97,  2820.10000,  1305.90000
    571.44,  2808.70000,  1307.50000
    571.91,  2805.10000,  1312.50000
    572.38,  2790.60000,  1325.30000
    572.84,  2765.10000,  1327.40000
    573.31,  2777.90000,  1329.80000
    573.78,  2783.30000,  1312.00000
    574.25,  2778.30000,  1314.10000
    574.72,  2800.20000,  1310.20000
    575.19,  2796.70000,  1308.20000
    575.66,  2791.40000,  1304.10000
    576.13,  2789.30000,  1297.80000
    576.60,  2796.40000,  1292.40000
    577.07,  2822.30000,  1297.60000
    577.53,  2851.10000,  1293.20000
    578.00,  2846.80000,  1287.60000
    578.47,  2832.30000,  1290.00000
    578.94,  2804.80000,  1285.50000
    579.41,  2767.90000,  1288.20000
    579.88,  2788.30000,  1284.60000
    580.35,  2797.50000,  1286.20000
    580.82,  2803.00000,  1301.00000
    581.28,  2821.20000,  1312.20000
    581.75,  2820.10000,  1314.70000
    582.22,  2804.70000,  1304.10000
    582.69,  2816.50000,  1277.20000
    583.16,  2814.60000,  1268.10000
    583.63,  2804.60000,  1270.60000
    584.10,  2836.00000,  1270.90000
    584.56,  2851.10000,  1277.80000
    585.03,  2835.60000,  1285.00000
    585.50,  2822.40000,  1279.50000
    585.97,  2788.00000,  1286.70000
    586.44,  2778.40000,  1288.60000
    586.91,  2803.60000,  1289.60000
    587.37,  2804.20000,  1292.50000
    587.84,  2789.40000,  1291.10000
    588.31,  2772.00000,  1284.10000
    588.78,  2745.20000,  1280.70000
    589.25,  2775.90000,  1289.10000
    589.72,  2777.20000,  1292.90000
    590.18,  2807.00000,  1280.60000
    590.65,  2840.20000,  1259.30000
    591.12,  2826.10000,  1256.00000
    591.59,  2823.90000,  1254.10000
    592.06,  2801.60000,  1261.00000
    592.52,  2751.00000,  1272.50000
    592.99,  2771.80000,  1272.10000
    593.46,  2770.40000,  1279.00000
    593.93,  2739.70000,  1277.00000
    594.40,  2768.80000,  1272.30000
    594.86,  2795.50000,  1257.00000
    595.33,  2806.00000,  1249.60000
    595.80,  2828.80000,  1245.80000
    596.27,  2818.40000,  1262.70000
    596.74,  2796.00000,  1263.70000
    597.20,  2781.90000,  1271.40000
    597.67,  2795.00000,  1279.10000
    598.14,  2779.10000,  1273.80000
    598.61,  2779.90000,  1266.60000
    599.07,  2776.90000,  1269.40000
    599.54,  2766.30000,  1271.30000
    600.01,  2751.20000,  1268.30000
    600.48,  2813.20000,  1260.40000
    600.95,  2843.90000,  1253.40000
    601.41,  2857.20000,  1243.30000
    601.88,  2836.50000,  1239.10000
    602.35,  2778.10000,  1240.10000
    602.82,  2724.60000,  1245.20000
    603.28,  2746.70000,  1234.80000
    603.75,  2747.80000,  1239.80000
    604.22,  2775.80000,  1232.30000
    604.69,  2787.50000,  1234.20000
    605.15,  2797.60000,  1230.80000
    605.62,  2787.90000,  1238.10000
    606.09,  2779.80000,  1241.90000
    606.56,  2761.80000,  1238.80000
    607.02,  2770.60000,  1219.30000
    607.49,  2770.30000,  1208.60000
    607.96,  2800.10000,  1192.80000
    608.42,  2794.90000,  1196.10000
    608.89,  2839.10000,  1207.70000
    609.36,  2848.20000,  1209.50000
    609.83,  2833.80000,  1212.60000
    610.29,  2804.90000,  1212.40000
    610.76,  2779.00000,  1209.40000
    611.23,  2769.90000,  1206.90000
    611.69,  2797.00000,  1206.20000
    612.16,  2797.70000,  1195.60000
    612.63,  2796.70000,  1191.90000
    613.10,  2776.00000,  1195.20000
    613.56,  2755.40000,  1200.60000
    614.03,  2769.90000,  1197.50000
    614.50,  2779.80000,  1198.90000
    614.96,  2791.50000,  1191.70000
    615.43,  2802.90000,  1185.40000
    615.90,  2812.10000,  1179.80000
    616.36,  2808.60000,  1173.40000
    616.83,  2790.60000,  1171.10000
    617.30,  2788.60000,  1167.70000
    617.76,  2760.30000,  1178.40000
    618.23,  2748.80000,  1180.80000
    618.70,  2746.90000,  1174.50000
    619.16,  2758.90000,  1168.30000
    619.63,  2755.30000,  1166.60000
    620.10,  2762.10000,  1161.20000
    620.56,  2763.30000,  1157.40000
    621.03,  2790.60000,  1150.10000
    621.50,  2798.00000,  1142.60000
    621.96,  2806.40000,  1132.70000
    622.43,  2798.40000,  1137.00000
    622.90,  2804.80000,  1135.30000
    623.36,  2817.90000,  1125.20000
    623.83,  2821.40000,  1128.00000
    624.30,  2813.30000,  1127.40000
    624.76,  2812.40000,  1122.20000
    625.23,  2806.10000,  1133.10000
    625.70,  2815.60000,  1136.50000
    626.16,  2814.80000,  1139.40000
    626.63,  2781.70000,  1133.60000
    627.09,  2774.20000,  1128.70000
    627.56,  2789.80000,  1121.20000
    628.03,  2782.50000,  1115.90000
    628.49,  2790.60000,  1112.60000
    628.96,  2776.30000,  1113.00000
    629.43,  2770.30000,  1106.30000
    629.89,  2767.80000,  1106.80000
    630.36,  2784.50000,  1104.50000
    630.82,  2772.60000,  1102.60000
    631.29,  2773.00000,  1097.10000
    631.76,  2755.90000,  1099.50000
    632.22,  2740.20000,  1105.80000
    632.69,  2742.30000,  1102.70000
    633.15,  2771.00000,  1089.30000
    633.62,  2797.10000,  1087.60000
    634.09,  2814.40000,  1083.10000
    634.55,  2816.70000,  1093.30000
    635.02,  2790.40000,  1099.20000
    635.48,  2780.00000,  1101.10000
    635.95,  2777.70000,  1089.90000
    636.42,  2776.10000,  1085.50000
    636.88,  2760.50000,  1084.70000
    637.35,  2749.90000,  1090.40000
    637.81,  2764.30000,  1078.60000
    638.28,  2777.70000,  1068.40000
    638.74,  2805.40000,  1051.90000
    639.21,  2819.00000,  1043.30000
    639.68,  2801.60000,  1046.10000
    640.14,  2767.30000,  1048.70000
    640.61,  2777.90000,  1047.40000
    641.07,  2754.70000,  1041.50000
    641.54,  2776.80000,  1029.40000
    642.00,  2793.40000,  1029.90000
    642.47,  2807.10000,  1036.50000
    642.93,  2802.00000,  1041.10000
    643.40,  2801.50000,  1049.20000
    643.87,  2780.80000,  1050.20000
    644.33,  2786.70000,  1036.60000
    644.80,  2788.20000,  1039.40000
    645.26,  2777.60000,  1040.70000
    645.73,  2772.00000,  1039.80000
    646.19,  2765.00000,  1043.20000
    646.66,  2774.50000,  1036.00000
    647.12,  2770.60000,  1023.30000
    647.59,  2780.30000,  1028.00000
    648.05,  2788.20000,  1029.10000
    648.52,  2784.50000,  1026.60000
    648.98,  2779.70000,  1026.60000
    649.45,  2771.30000,  1018.40000
    649.91,  2749.80000,  1014.40000
    650.38,  2752.20000,  1023.80000
    650.84,  2792.90000,  1022.30000
    651.31,  2785.80000,  1024.30000
    651.77,  2791.70000,  1020.40000
    652.24,  2768.30000,  1014.10000
    652.70,  2748.20000,  1011.30000
    653.17,  2736.50000,  1020.70000
    653.63,  2762.70000,  1020.60000
    654.10,  2753.40000,  1027.40000
    654.56,  2776.00000,  1017.90000
    655.03,  2773.90000,  1009.20000
    655.49,  2777.30000,  1011.90000
    655.96,  2772.10000,  1016.50000
    656.42,  2763.40000,  1018.00000
    656.89,  2753.40000,  1014.20000
    657.35,  2818.20000,  1000.00000
    657.82,  2861.60000,   994.80000
    658.28,  2885.20000,  1005.10000
    658.75,  2891.10000,  1006.30000
    659.21,  2845.20000,  1004.60000
    659.68,  2808.30000,  1001.30000
    660.14,  2802.50000,  1001.20000
    660.61,  2763.80000,  1002.60000
    661.07,  2788.70000,  1008.90000
    661.53,  2808.40000,   999.80000
    662.00,  2834.00000,   994.10000
    662.46,  2825.70000,   990.30000
    662.93,  2807.60000,   993.20000
    663.39,  2777.60000,   985.20000
    663.86,  2807.90000,   975.00000
    664.32,  2810.10000,   963.90000
    664.79,  2834.30000,   963.40000
    665.25,  2815.10000,   965.50000
    665.71,  2792.90000,   973.00000
    666.18,  2752.00000,   974.90000
    666.64,  2778.30000,   973.40000
    667.11,  2774.80000,   975.20000
    667.57,  2792.90000,   976.00000
    668.04,  2815.80000,   966.20000
    668.50,  2809.30000,   960.10000
    668.96,  2778.10000,   961.20000
    669.43,  2811.40000,   945.80000
    669.89,  2783.90000,   941.70000
    670.36,  2770.00000,   941.90000
    670.82,  2770.20000,   936.10000
    671.28,  2768.10000,   936.60000
    671.75,  2764.20000,   944.40000
    672.21,  2796.40000,   941.30000
    672.68,  2793.30000,   951.50000
    673.14,  2807.00000,   959.80000
    673.60,  2824.60000,   952.70000
    674.07,  2799.10000,   949.00000
    674.53,  2772.90000,   940.40000
    675.00,  2766.80000,   935.60000
    675.46,  2753.00000,   938.60000
    675.92,  2751.60000,   940.30000
    676.39,  2791.60000,   936.20000
    676.85,  2786.90000,   934.50000
    677.31,  2795.60000,   925.00000
    677.78,  2799.40000,   923.20000
    678.24,  2786.50000,   921.40000
    678.70,  2768.40000,   924.40000
    679.17,  2754.40000,   930.50000
    679.63,  2729.10000,   925.30000
    680.10,  2729.30000,   921.00000
    680.56,  2757.40000,   915.40000
    681.02,  2764.70000,   902.10000
    681.49,  2794.30000,   900.40000
    681.95,  2791.70000,   897.50000
    682.41,  2776.30000,   896.50000
    682.88,  2764.40000,   896.20000
    683.34,  2761.10000,   897.40000
    683.80,  2742.30000,   889.60000
    684.27,  2760.50000,   887.80000
    684.73,  2775.30000,   875.30000
    685.19,  2794.90000,   874.20000
    685.66,  2822.70000,   875.70000
    686.12,  2813.80000,   885.90000
    686.58,  2828.50000,   888.80000
    687.05,  2827.10000,   886.50000
    687.51,  2816.00000,   871.80000
    687.97,  2802.50000,   869.30000
    688.44,  2805.90000,   870.10000
    688.90,  2794.90000,   876.00000
    689.36,  2800.00000,   878.90000
    689.83,  2802.20000,   880.20000
    690.29,  2813.60000,   882.80000
    690.75,  2816.20000,   886.80000
    691.21,  2825.70000,   876.30000
    691.68,  2812.40000,   862.90000
    692.14,  2789.50000,   851.70000
    692.60,  2804.10000,   844.80000
    693.07,  2791.00000,   854.80000
    693.53,  2802.90000,   865.90000
    693.99,  2815.50000,   864.70000
    694.45,  2811.00000,   862.00000
    694.92,  2825.20000,   856.30000
    695.38,  2834.10000,   853.60000
    695.84,  2809.80000,   857.70000
    696.31,  2796.50000,   858.80000
    696.77,  2809.10000,   858.80000
    697.23,  2806.30000,   859.80000
    697.69,  2811.20000,   854.10000
    698.16,  2799.10000,   853.30000
    698.62,  2784.90000,   846.20000
    699.08,  2758.70000,   844.90000
    699.54,  2762.40000,   834.60000
    700.01,  2744.50000,   836.60000
    700.47,  2727.90000,   839.10000
    700.93,  2732.50000,   831.60000
    701.39,  2745.70000,   828.60000
    701.86,  2756.40000,   842.90000
    702.32,  2762.20000,   836.40000
    702.78,  2768.70000,   845.50000
    703.24,  2767.70000,   847.00000
    703.71,  2774.30000,   839.00000
    704.17,  2801.80000,   827.70000
    704.63,  2804.90000,   816.90000
    705.09,  2792.20000,   806.10000
    705.56,  2823.30000,   800.70000
    706.02,  2815.70000,   804.90000
    706.48,  2786.30000,   814.70000
    706.94,  2782.60000,   821.10000
    707.40,  2758.20000,   822.20000
    707.87,  2749.30000,   822.90000
    708.33,  2769.40000,   815.50000
    708.79,  2755.50000,   816.30000
    709.25,  2729.20000,   810.60000
    709.72,  2738.30000,   813.00000
    710.18,  2751.90000,   819.60000
    710.64,  2752.60000,   817.50000
    711.10,  2744.40000,   820.40000
    711.56,  2754.50000,   826.70000
    712.03,  2773.40000,   819.80000
    712.49,  2804.00000,   807.00000
    712.95,  2825.70000,   808.50000
    713.41,  2803.50000,   807.90000
    713.87,  2792.80000,   811.80000
    714.33,  2790.30000,   817.90000
    714.80,  2781.70000,   819.00000
    715.26,  2743.10000,   814.80000
    715.72,  2743.70000,   814.60000
    716.18,  2732.80000,   816.50000
    716.64,  2752.80000,   808.50000
    717.11,  2757.70000,   795.50000
    717.57,  2759.70000,   794.90000
    718.03,  2730.40000,   790.90000
    718.49,  2741.00000,   787.80000
    718.95,  2784.90000,   790.60000
    719.41,  2794.90000,   795.00000
    719.87,  2762.60000,   793.70000
    720.34,  2759.30000,   797.10000
    720.80,  2747.20000,   788.90000
    721.26,  2737.90000,   789.40000
    721.72,  2777.60000,   787.50000
    722.18,  2768.40000,   792.50000
    722.64,  2740.60000,   789.20000
    723.10,  2755.60000,   787.70000
    723.57,  2764.90000,   782.40000
    724.03,  2776.60000,   773.70000
    724.49,  2773.70000,   774.70000
    724.95,  2732.80000,   786.80000
    725.41,  2790.60000,   784.20000
    725.87,  2839.40000,   782.70000
    726.33,  2862.90000,   779.80000
    726.80,  2870.80000,   775.80000
    727.26,  2823.60000,   778.40000
    727.72,  2738.80000,   786.80000
    728.18,  2748.10000,   783.40000
    728.64,  2741.50000,   769.70000
    729.10,  2750.50000,   766.80000
    729.56,  2771.40000,   772.00000
    730.02,  2797.40000,   771.60000
    730.48,  2793.30000,   779.00000
    730.94,  2780.00000,   780.50000
    731.41,  2769.30000,   776.50000
    731.87,  2740.20000,   775.60000
    732.33,  2724.50000,   770.40000
    732.79,  2753.10000,   768.20000
    733.25,  2751.40000,   772.50000
    733.71,  2769.40000,   762.70000
    734.17,  2783.50000,   766.60000
    734.63,  2763.30000,   766.90000
    735.09,  2746.40000,   762.60000
    735.55,  2748.40000,   756.80000
    736.01,  2738.30000,   748.50000
    736.47,  2752.80000,   738.40000
    736.94,  2757.40000,   740.20000
    737.40,  2767.70000,   749.70000
    737.86,  2765.70000,   749.40000
    738.32,  2777.60000,   744.40000
    738.78,  2788.10000,   744.20000
    739.24,  2777.00000,   752.20000
    739.70,  2769.30000,   752.30000
    740.16,  2790.10000,   756.70000
    740.62,  2798.90000,   752.90000
    741.08,  2822.90000,   753.10000
    741.54,  2808.10000,   756.70000
    742.00,  2785.30000,   754.70000
    742.46,  2751.10000,   755.30000
    742.92,  2727.90000,   749.40000
    743.38,  2723.30000,   745.60000
    743.84,  2730.40000,   747.90000
    744.30,  2747.90000,   750.70000
    744.76,  2769.80000,   748.00000
    745.22,  2768.60000,   754.80000
    745.68,  2748.50000,   761.00000
    746.14,  2726.00000,   765.90000
    746.60,  2728.00000,   763.90000
    747.06,  2740.40000,   769.40000
    747.52,  2724.00000,   775.40000
    747.98,  2746.40000,   775.50000
    748.44,  2751.80000,   782.90000
    748.90,  2744.30000,   774.40000
    749.36,  2761.70000,   752.00000
    749.82,  2776.50000,   746.00000
    750.28,  2780.60000,   746.00000
    750.74,  2806.60000,   747.00000
    751.20,  2800.90000,   757.30000
    751.66,  2778.60000,   756.10000
    752.12,  2757.60000,   757.30000
    752.58,  2758.40000,   762.00000
    753.04,  2769.70000,   760.00000
    753.50,  2799.40000,   753.50000
    753.96,  2784.70000,   752.70000
    754.42,  2753.00000,   752.90000
    754.88,  2735.40000,   749.90000
    755.34,  2730.90000,   758.20000
    755.80,  2752.30000,   756.30000
    756.26,  2769.90000,   758.70000
    756.72,  2779.50000,   753.90000
    757.18,  2777.20000,   752.00000
    757.64,  2776.00000,   740.90000
    758.10,  2739.50000,   756.30000
    758.56,  2716.20000,   756.80000
    759.02,  2720.50000,   763.50000
    759.48,  2732.80000,   752.80000
    759.94,  2751.10000,   749.60000
    760.40,  2762.80000,   745.60000
    760.86,  2756.30000,   750.50000
    761.32,  2762.80000,   741.30000
    761.78,  2789.50000,   750.90000
    762.24,  2771.70000,   747.80000
    762.70,  2770.20000,   758.00000
    763.15,  2749.20000,   770.10000
    763.61,  2751.50000,   772.40000
    764.07,  2764.00000,   766.30000
    764.53,  2764.70000,   769.90000
    764.99,  2771.40000,   761.10000
    765.45,  2792.60000,   753.00000
    765.91,  2774.00000,   754.20000
    766.37,  2761.60000,   749.30000
    766.83,  2735.50000,   751.60000
    767.29,  2730.50000,   753.00000
    767.75,  2737.80000,   752.10000
    768.21,  2757.40000,   752.20000
    768.66,  2763.00000,   755.80000
    769.12,  2769.30000,   759.50000
    769.58,  2749.90000,   759.70000
    770.04,  2736.80000,   759.00000
    770.50,  2720.80000,   749.40000
    770.96,  2708.40000,   754.30000
    771.42,  2738.00000,   752.10000
    771.88,  2752.90000,   759.50000
    772.34,  2763.00000,   755.80000
    772.80,  2749.70000,   758.40000
    773.25,  2732.60000,   752.50000
    773.71,  2724.60000,   749.20000
    774.17,  2716.80000,   743.00000
    774.63,  2728.90000,   745.80000
    775.09,  2742.70000,   748.70000
    775.55,  2727.00000,   755.80000
    776.01,  2702.50000,   760.10000
    776.47,  2704.00000,   762.70000
    776.92,  2683.10000,   759.30000
    777.38,  2718.60000,   751.20000
    777.84,  2733.30000,   737.20000
    778.30,  2732.90000,   736.10000
    778.76,  2722.70000,   738.70000
    779.22,  2742.10000,   746.80000
    779.68,  2740.30000,   756.60000
    780.13,  2751.70000,   760.40000
    780.59,  2732.50000,   755.60000
    781.05,  2712.60000,   765.90000
    781.51,  2710.80000,   766.00000
    781.97,  2729.90000,   762.30000
    782.43,  2741.10000,   759.60000
    782.88,  2761.60000,   753.30000
    783.34,  2755.20000,   749.80000
    783.80,  2761.50000,   747.50000
    784.26,  2770.90000,   748.00000
    784.72,  2748.50000,   753.30000
    785.18,  2730.90000,   754.20000
    785.63,  2722.50000,   751.80000
    786.09,  2736.90000,   746.70000
    786.55,  2777.10000,   749.30000
    787.01,  2797.50000,   750.70000
    787.47,  2768.30000,   754.20000
    787.92,  2737.30000,   755.60000
    788.38,  2719.10000,   747.90000
    788.84,  2707.00000,   746.00000
    789.30,  2721.50000,   753.60000
    789.76,  2735.30000,   755.20000
    790.21,  2732.30000,   751.00000
    790.67,  2721.50000,   751.30000
    791.13,  2728.00000,   743.70000
    791.59,  2697.90000,   751.40000
    792.05,  2699.20000,   749.80000
    792.50,  2716.70000,   751.20000
    792.96,  2736.80000,   752.70000
    793.42,  2716.10000,   757.60000
    793.88,  2733.70000,   747.10000
    794.33,  2708.90000,   741.20000
    794.79,  2717.70000,   738.80000
    795.25,  2723.10000,   740.80000
    795.71,  2737.90000,   743.20000
    796.17,  2740.30000,   741.60000
    796.62,  2746.50000,   736.00000
    797.08,  2720.20000,   731.20000
    797.54,  2715.70000,   739.90000
    798.00,  2698.00000,   749.70000
    798.45,  2701.90000,   753.50000
    798.91,  2716.20000,   742.50000
    799.37,  2720.00000,   745.60000
    799.83,  2717.80000,   746.80000
    800.28,  2708.10000,   741.30000
    800.74,  2702.90000,   742.00000
    801.20,  2720.80000,   744.70000
    801.66,  2704.40000,   739.10000
    802.11,  2708.70000,   744.90000
    802.57,  2728.10000,   743.80000
    803.03,  2711.40000,   738.20000
    803.48,  2698.30000,   737.10000
    803.94,  2750.40000,   738.50000
    804.40,  2763.80000,   736.10000
    804.86,  2776.50000,   730.10000
    805.31,  2770.10000,   725.70000
    805.77,  2732.40000,   721.20000
    806.23,  2687.10000,   715.90000
    806.69,  2714.30000,   720.20000
    807.14,  2712.90000,   730.90000
    807.60,  2716.10000,   744.00000
    808.06,  2710.40000,   757.20000
    808.51,  2713.40000,   755.50000
    808.97,  2692.40000,   745.50000
    809.43,  2701.80000,   740.90000
    809.88,  2700.80000,   742.80000
    810.34,  2694.50000,   742.00000
    810.80,  2716.80000,   731.30000
    811.26,  2735.30000,   722.60000
    811.71,  2720.30000,   712.70000
    812.17,  2734.20000,   715.70000
    812.63,  2725.00000,   720.80000
    813.08,  2693.10000,   732.00000
    813.54,  2700.10000,   736.00000
    814.00,  2716.80000,   730.20000
    814.45,  2716.90000,   723.30000
    814.91,  2735.30000,   721.40000
    815.37,  2718.40000,   722.40000
    815.82,  2703.40000,   725.20000
    816.28,  2690.60000,   734.70000
    816.74,  2703.80000,   726.70000
    817.19,  2677.40000,   725.30000
    817.65,  2690.80000,   729.30000
    818.11,  2710.20000,   734.70000
    818.56,  2720.50000,   729.40000
    819.02,  2704.30000,   730.40000
    819.48,  2707.50000,   729.40000
    819.93,  2667.70000,   723.20000
    820.39,  2689.70000,   719.70000
    820.84,  2727.40000,   718.60000
    821.30,  2745.20000,   713.30000
    821.76,  2741.30000,   714.00000
    822.21,  2748.10000,   717.90000
    822.67,  2726.90000,   714.10000
    823.13,  2695.80000,   703.90000
    823.58,  2733.70000,   699.00000
    824.04,  2758.90000,   688.20000
    824.49,  2753.80000,   693.90000
    824.95,  2764.40000,   697.00000
    825.41,  2760.90000,   706.50000
    825.86,  2731.20000,   700.00000
    826.32,  2755.50000,   698.70000
    826.78,  2739.20000,   683.40000
    827.23,  2715.20000,   677.10000
    827.69,  2699.30000,   674.80000
    828.14,  2704.70000,   683.30000
    828.60,  2724.60000,   685.90000
    829.06,  2743.40000,   694.70000
    829.51,  2731.80000,   695.40000
    829.97,  2734.80000,   695.30000
    830.42,  2723.80000,   696.00000
    830.88,  2706.50000,   698.60000
    831.34,  2708.40000,   687.40000
    831.79,  2728.90000,   689.60000
    832.25,  2729.30000,   694.70000
    832.70,  2725.90000,   689.10000
    833.16,  2735.10000,   687.90000
    833.61,  2727.90000,   685.30000
    834.07,  2727.40000,   676.10000
    834.53,  2715.80000,   688.20000
    834.98,  2699.00000,   698.00000
    835.44,  2685.30000,   686.40000
    835.89,  2700.60000,   688.00000
    836.35,  2720.80000,   688.00000
    836.80,  2753.20000,   682.50000
    837.26,  2737.40000,   673.10000
    837.71,  2711.10000,   670.60000
    838.17,  2697.50000,   667.20000
    838.63,  2686.60000,   672.00000
    839.08,  2680.50000,   684.20000
    839.54,  2708.40000,   681.50000
    839.99,  2704.20000,   677.40000
    840.45,  2720.30000,   674.10000
    840.90,  2737.50000,   674.70000
    841.36,  2753.80000,   664.20000
    841.81,  2739.40000,   665.20000
    842.27,  2728.50000,   664.90000
    842.72,  2699.70000,   671.80000
    843.18,  2708.50000,   657.80000
    843.63,  2696.50000,   650.70000
    844.09,  2704.20000,   638.40000
    844.55,  2695.40000,   634.80000
    845.00,  2683.70000,   648.00000
    845.46,  2692.10000,   658.40000
    845.91,  2703.00000,   656.50000
    846.37,  2721.10000,   653.40000
    846.82,  2746.00000,   651.70000
    847.28,  2754.00000,   651.00000
    847.73,  2696.20000,   667.50000
    848.19,  2704.90000,   690.20000
    848.64,  2755.60000,   649.40000
    849.10,  2806.40000,   616.00000
    849.55,  2821.40000,   601.80000
    850.01,  2809.50000,   599.30000
    850.46,  2724.70000,   619.40000
    850.92,  2706.30000,   659.30000
    851.37,  2730.20000,   651.30000
    851.83,  2723.10000,   659.30000
    852.28,  2724.00000,   661.00000
    852.73,  2701.70000,   671.60000
    853.19,  2676.00000,   665.10000
    853.64,  2685.30000,   658.90000
    854.10,  2694.00000,   654.90000
    854.55,  2698.30000,   655.10000
    855.01,  2711.90000,   648.30000
    855.46,  2684.60000,   661.60000
    855.92,  2671.00000,   663.00000
    856.37,  2668.70000,   663.70000
    856.83,  2665.50000,   660.00000
    857.28,  2690.90000,   657.10000
    857.74,  2697.70000,   645.70000
    858.19,  2707.00000,   633.90000
    858.64,  2723.60000,   630.30000
    859.10,  2709.20000,   641.00000
    859.55,  2678.60000,   651.30000
    860.01,  2737.10000,   651.00000
    860.46,  2760.00000,   652.40000
    860.92,  2758.00000,   651.70000
    861.37,  2756.00000,   644.60000
    861.83,  2745.30000,   647.00000
    862.28,  2711.20000,   649.40000
    862.73,  2735.80000,   647.50000
    863.19,  2721.50000,   658.10000
    863.64,  2692.60000,   674.30000
    864.10,  2681.20000,   668.70000
    864.55,  2707.60000,   660.90000
    865.01,  2702.90000,   664.70000
    865.46,  2720.00000,   663.00000
    865.91,  2703.90000,   661.50000
    866.37,  2690.30000,   666.70000
    866.82,  2683.90000,   656.60000
    867.28,  2685.10000,   647.70000
    867.73,  2677.20000,   649.60000
    868.18,  2711.70000,   658.50000
    868.64,  2719.50000,   658.30000
    869.09,  2738.50000,   666.20000
    869.55,  2747.50000,   660.60000
    870.00,  2726.20000,   658.20000
    870.45,  2708.70000,   654.20000
    870.91,  2683.10000,   653.80000
    871.36,  2661.80000,   661.60000
    871.81,  2685.10000,   662.80000
    872.27,  2713.60000,   659.00000
    872.72,  2717.80000,   659.00000
    873.18,  2717.60000,   654.00000
    873.63,  2692.90000,   646.90000
    874.08,  2684.10000,   661.50000
    874.54,  2701.60000,   663.00000
    874.99,  2704.10000,   660.40000
    875.44,  2683.30000,   656.10000
    875.90,  2664.20000,   651.70000
    876.35,  2668.20000,   652.60000
    876.81,  2701.50000,   664.40000
    877.26,  2725.90000,   673.50000
    877.71,  2708.20000,   678.70000
    878.17,  2677.20000,   677.40000
    878.62,  2696.00000,   675.30000
    879.07,  2726.10000,   669.20000
    879.53,  2754.20000,   662.40000
    879.98,  2742.00000,   665.20000
    880.43,  2717.50000,   670.90000
    880.89,  2705.20000,   664.20000
    881.34,  2708.40000,   667.50000
    881.79,  2721.40000,   663.20000
    882.25,  2714.50000,   656.00000
    882.70,  2684.90000,   665.10000
    883.15,  2671.20000,   666.70000
    883.61,  2685.50000,   664.80000
    884.06,  2668.60000,   669.40000
    884.51,  2691.20000,   670.10000
    884.97,  2686.10000,   664.50000
    885.42,  2699.20000,   660.50000
    885.87,  2697.20000,   653.20000
    886.32,  2711.50000,   653.80000
    886.78,  2683.90000,   656.80000
    887.23,  2691.80000,   668.90000
    887.68,  2681.00000,   679.10000
    888.14,  2694.40000,   677.00000
    888.59,  2678.20000,   671.30000
    889.04,  2664.50000,   670.90000
    889.50,  2627.10000,   674.10000
    889.95,  2649.60000,   670.10000
    890.40,  2669.80000,   679.10000
    890.85,  2696.70000,   677.60000
    891.31,  2694.90000,   672.60000
    891.76,  2696.20000,   679.20000
    892.21,  2671.90000,   687.10000
    892.67,  2690.10000,   676.80000
    893.12,  2680.30000,   688.60000
    893.57,  2688.70000,   693.60000
    894.02,  2692.90000,   688.90000
    894.48,  2713.00000,   686.50000
    894.93,  2707.70000,   685.20000
    895.38,  2708.00000,   682.20000
    895.83,  2684.40000,   688.70000
    896.29,  2685.00000,   694.20000
    896.74,  2678.90000,   694.50000
    897.19,  2701.50000,   692.60000
    897.64,  2708.70000,   696.40000
    898.10,  2712.50000,   690.70000
    898.55,  2695.50000,   685.80000
    899.00,  2687.70000,   690.10000
    899.45,  2651.70000,   698.20000
    899.91,  2645.00000,   699.20000
    900.36,  2625.00000,   708.60000
    900.81,  2658.20000,   698.30000
    901.26,  2678.70000,   684.60000
    901.72,  2703.10000,   683.80000
    902.17,  2698.10000,   684.20000
    902.62,  2708.80000,   684.80000
    903.07,  2666.90000,   701.80000
    903.52,  2675.60000,   702.20000
    903.98,  2682.20000,   695.20000
    904.43,  2694.10000,   695.30000
    904.88,  2689.80000,   692.50000
    905.33,  2699.20000,   691.40000
    905.79,  2676.60000,   696.40000
    906.24,  2678.90000,   700.40000
    906.69,  2691.10000,   704.80000
    907.14,  2684.60000,   712.50000
    907.59,  2657.60000,   717.40000
    908.05,  2643.90000,   712.40000
    908.50,  2633.20000,   707.00000
    908.95,  2650.50000,   702.60000
    909.40,  2668.60000,   698.80000
    909.85,  2662.10000,   703.10000
    910.31,  2663.60000,   704.20000
    910.76,  2647.20000,   707.90000
    911.21,  2626.90000,   719.50000
    911.66,  2632.40000,   716.60000
    912.11,  2632.10000,   722.50000
    912.56,  2659.70000,   725.10000
    913.02,  2682.50000,   728.20000
    913.47,  2676.10000,   745.50000
    913.92,  2664.90000,   760.70000
    914.37,  2656.80000,   768.90000
    914.82,  2656.50000,   786.00000
    915.27,  2679.50000,   786.80000
    915.73,  2699.30000,   793.00000
    916.18,  2684.60000,   800.00000
    916.63,  2667.70000,   808.20000
    917.08,  2630.70000,   818.40000
    917.53,  2660.70000,   834.30000
    917.98,  2551.90000,   850.10000
    918.44,  2901.30000,   866.70000
    918.89,  3081.00000,   881.70000
    919.34,  3131.90000,   903.40000
    919.79,  3037.30000,   918.40000
    920.24,  2877.10000,   941.30000
    920.69,  2564.20000,   961.20000
    921.14,  2701.10000,   978.30000
    921.59,  2688.20000,  1015.00000
    922.05,  2676.10000,  1057.80000
    922.50,  2665.40000,  1122.10000
    922.95,  2682.40000,  1206.60000
    923.40,  2706.50000,  1285.70000
    923.85,  2718.40000,  1373.30000
    924.30,  2726.80000,  1489.60000
    924.75,  2709.30000,  1640.50000
    925.20,  2685.70000,  1815.30000
    925.66,  2671.30000,  2004.50000
    926.11,  2671.80000,  2218.70000
    926.56,  2672.60000,  2462.10000
    927.01,  2690.30000,  2727.80000
    927.46,  2676.40000,  3030.10000
    927.91,  2646.10000,  3349.50000
    928.36,  2622.40000,  3701.10000
    928.81,  2637.60000,  4066.40000
    929.26,  2654.90000,  4407.00000
    929.71,  2688.90000,  4722.60000
    930.16,  2711.00000,  5025.80000
    930.62,  2684.80000,  5308.00000
    931.07,  2665.60000,  5566.60000
    931.52,  2666.90000,  5766.60000
    931.97,  2674.90000,  5911.20000
    932.42,  2678.70000,  6047.40000
    932.87,  2690.70000,  6177.70000
    933.32,  2673.60000,  6288.80000
    933.77,  2692.90000,  6375.30000
    934.22,  2691.70000,  6441.60000
    934.67,  2703.00000,  6527.20000
    935.12,  2687.00000,  6641.60000
    935.57,  2662.70000,  6735.90000
    936.02,  2630.60000,  6767.50000
    936.47,  2654.90000,  6719.50000
    936.93,  2638.00000,  6635.10000
    937.38,  2640.50000,  6613.80000
    937.83,  2653.90000,  6694.90000
    938.28,  2650.80000,  6875.40000
    938.73,  2642.20000,  7156.30000
    939.18,  2667.70000,  7443.20000
    939.63,  2674.70000,  7675.50000
    940.08,  2687.60000,  7859.80000
    940.53,  2707.50000,  8013.80000
    940.98,  2698.60000,  8137.00000
    941.43,  2666.00000,  8236.40000
    941.88,  2657.20000,  8340.90000
    942.33,  2666.30000,  8400.40000
    942.78,  2668.10000,  8458.80000
    943.23,  2683.80000,  8557.10000
    943.68,  2680.70000,  8599.20000
    944.13,  2682.10000,  8549.90000
    944.58,  2694.40000,  8505.10000
    945.03,  2685.90000,  8510.20000
    945.48,  2659.20000,  8550.50000
    945.93,  2656.90000,  8626.30000
    946.38,  2658.30000,  8649.20000
    946.83,  2687.60000,  8607.60000
    947.28,  2707.30000,  8602.80000
    947.73,  2702.00000,  8653.30000
    948.18,  2676.60000,  8688.80000
    948.63,  2660.30000,  8719.10000
    949.08,  2652.80000,  8715.80000
    949.53,  2642.80000,  8617.40000
    949.98,  2629.70000,  8546.60000
    950.43,  2641.30000,  8472.30000
    950.88,  2649.90000,  8355.80000
    951.33,  2661.70000,  8221.70000
    951.78,  2694.40000,  8109.20000
    952.23,  2695.70000,  7993.40000
    952.68,  2675.30000,  7933.70000
    953.13,  2678.90000,  7907.20000
    953.58,  2681.40000,  7868.80000
    954.03,  2667.90000,  7809.80000
    954.48,  2659.80000,  7776.80000
    954.93,  2647.50000,  7734.80000
    955.38,  2636.40000,  7625.30000
    955.83,  2650.70000,  7454.20000
    956.28,  2653.60000,  7257.90000
    956.73,  2667.00000,  7030.80000
    957.18,  2667.90000,  6832.60000
    957.62,  2659.70000,  6647.70000
    958.07,  2669.60000,  6452.90000
    958.52,  2663.60000,  6304.70000
    958.97,  2647.60000,  6185.80000
    959.42,  2645.00000,  6046.80000
    959.87,  2635.70000,  5906.30000
    960.32,  2636.60000,  5718.90000
    960.77,  2664.60000,  5521.30000
    961.22,  2706.40000,  5344.10000
    961.67,  2722.90000,  5173.50000
    962.12,  2700.30000,  5014.00000
    962.57,  2670.90000,  4885.80000
    963.02,  2671.80000,  4771.80000
    963.47,  2665.40000,  4687.40000
    963.92,  2688.50000,  4621.20000
    964.36,  2688.50000,  4547.00000
    964.81,  2676.00000,  4469.50000
    965.26,  2673.70000,  4397.70000
    965.71,  2682.30000,  4340.90000
    966.16,  2680.20000,  4269.70000
    966.61,  2666.20000,  4181.50000
    967.06,  2653.50000,  4064.50000
    967.51,  2666.60000,  3910.60000
    967.96,  2681.00000,  3759.20000
    968.41,  2689.00000,  3621.50000
    968.85,  2692.70000,  3478.20000
    969.30,  2673.90000,  3332.10000
    969.75,  2683.20000,  3185.50000
    970.20,  2688.60000,  3035.80000
    970.65,  2699.90000,  2908.20000
    971.10,  2691.40000,  2805.00000
    971.55,  2687.20000,  2713.40000
    972.00,  2662.70000,  2627.80000
    972.44,  2654.80000,  2544.20000
    972.89,  2673.80000,  2488.30000
    973.34,  2697.30000,  2423.00000
    973.79,  2700.40000,  2363.50000
    974.24,  2709.20000,  2315.60000
    974.69,  2679.70000,  2280.50000
    975.14,  2641.60000,  2272.80000
    975.59,  2636.90000,  2285.90000
    976.03,  2621.80000,  2283.70000
    976.48,  2620.10000,  2285.80000
    976.93,  2628.80000,  2289.30000
    977.38,  2632.80000,  2288.10000
    977.83,  2628.20000,  2290.70000
    978.28,  2640.00000,  2282.70000
    978.72,  2650.10000,  2283.00000
    979.17,  2664.60000,  2276.10000
    979.62,  2674.40000,  2259.80000
    980.07,  2684.20000,  2217.60000
    980.52,  2681.40000,  2179.60000
    980.97,  2669.20000,  2169.50000
    981.41,  2631.20000,  2195.10000
    981.86,  2601.70000,  2225.00000
    982.31,  2606.20000,  2231.00000
    982.76,  2619.40000,  2197.60000
    983.21,  2656.10000,  2129.50000
    983.66,  2665.20000,  2043.70000
    984.10,  2642.00000,  1950.60000
    984.55,  2624.70000,  1865.10000
    985.00,  2620.10000,  1775.60000
    985.45,  2600.90000,  1708.00000
    985.90,  2619.30000,  1640.50000
    986.34,  2637.90000,  1586.80000
    986.79,  2633.30000,  1543.10000
    987.24,  2635.70000,  1518.90000
    987.69,  2616.20000,  1488.50000
    988.14,  2602.10000,  1459.00000
    988.58,  2611.50000,  1421.70000
    989.03,  2627.00000,  1375.00000
    989.48,  2633.10000,  1321.70000
    989.93,  2636.20000,  1278.60000
    990.38,  2612.70000,  1245.60000
    990.82,  2620.70000,  1212.00000
    991.27,  2634.60000,  1195.80000
    991.72,  2663.80000,  1172.70000
    992.17,  2655.20000,  1150.40000
    992.61,  2656.20000,  1125.00000
    993.06,  2626.30000,  1117.00000
    993.51,  2646.50000,  1098.00000
    993.96,  2648.70000,  1084.10000
    994.41,  2643.10000,  1067.20000
    994.85,  2623.60000,  1047.50000
    995.30,  2633.30000,  1025.90000
    995.75,  2627.50000,  1016.10000
    996.20,  2671.60000,   988.40000
    996.64,  2667.10000,   964.30000
    997.09,  2638.60000,   947.30000
    997.54,  2623.70000,   943.20000
    997.99,  2606.20000,   936.20000
    998.43,  2600.30000,   933.90000
    998.88,  2605.50000,   921.90000
    999.33,  2608.10000,   916.70000
    999.77,  2635.70000,   901.70000
   1000.22,  2653.90000,   897.60000
   1000.67,  2667.80000,   888.70000
   1001.12,  2678.30000,   884.20000
   1001.56,  2650.00000,   884.40000
   1002.01,  2624.20000,   884.90000
   1002.46,  2638.30000,   870.70000
   1002.91,  2620.50000,   860.60000
   1003.35,  2635.20000,   856.70000
   1003.80,  2628.00000,   861.10000
   1004.25,  2627.80000,   868.40000
   1004.69,  2619.10000,   874.60000
   1005.14,  2604.60000,   875.10000
   1005.59,  2604.90000,   869.90000
   1006.04,  2641.80000,   860.90000
   1006.48,  2661.20000,   858.60000
   1006.93,  2695.20000,   852.40000
   1007.38,  2681.90000,   857.40000
   1007.82,  2628.90000,   870.20000
   1008.27,  2601.20000,   880.30000
   1008.72,  2587.20000,   889.00000
   1009.16,  2587.20000,   888.40000
   1009.61,  2602.70000,   880.60000
   1010.06,  2611.10000,   863.00000
   1010.50,  2643.60000,   850.80000
   1010.95,  2670.50000,   841.10000
   1011.40,  2681.70000,   841.00000
   1011.85,  2656.80000,   847.30000
   1012.29,  2643.80000,   859.50000
   1012.74,  2618.00000,   855.30000
   1013.19,  2614.40000,   850.50000
   1013.63,  2650.60000,   846.60000
   1014.08,  2673.80000,   843.10000
   1014.53,  2664.00000,   853.70000
   1014.97,  2654.00000,   864.60000
   1015.42,  2631.30000,   862.40000
   1015.86,  2597.30000,   857.90000
   1016.31,  2615.40000,   856.30000
   1016.76,  2635.30000,   854.60000
   1017.20,  2621.60000,   860.90000
   1017.65,  2601.90000,   870.40000
   1018.10,  2606.00000,   866.90000
   1018.54,  2589.00000,   869.10000
   1018.99,  2619.40000,   864.00000
   1019.44,  2630.80000,   862.20000
   1019.88,  2620.90000,   859.80000
   1020.33,  2611.20000,   867.20000
   1020.78,  2617.30000,   866.70000
   1021.22,  2615.70000,   880.60000
   1021.67,  2624.60000,   877.60000
   1022.11,  2617.60000,   873.60000
   1022.56,  2614.90000,   872.90000
   1023.01,  2602.80000,   874.40000
   1023.45,  2586.50000,   870.10000
   1023.90,  2590.10000,   865.60000
   1024.34,  2577.40000,   859.10000
   1024.79,  2591.70000,   852.10000
   1025.24,  2619.50000,   849.80000
   1025.68,  2615.60000,   857.50000
   1026.13,  2611.20000,   860.30000
   1026.58,  2617.80000,   855.80000
   1027.02,  2625.20000,   864.40000
   1027.47,  2628.10000,   867.00000
   1027.91,  2628.70000,   867.20000
   1028.36,  2595.00000,   879.60000
   1028.80,  2583.50000,   879.40000
   1029.25,  2572.40000,   875.00000
   1029.70,  2582.00000,   875.70000
   1030.14,  2582.90000,   871.90000
   1030.59,  2581.50000,   877.30000
   1031.03,  2580.40000,   883.50000
   1031.48,  2593.60000,   883.40000
   1031.93,  2626.30000,   870.30000
   1032.37,  2654.40000,   861.70000
   1032.82,  2664.60000,   860.70000
   1033.26,  2665.30000,   872.20000
   1033.71,  2639.90000,   880.80000
   1034.15,  2620.70000,   888.40000
   1034.60,  2619.00000,   889.90000
   1035.05,  2624.80000,   893.80000
   1035.49,  2617.20000,   893.80000
   1035.94,  2608.30000,   901.10000
   1036.38,  2574.20000,   902.20000
   1036.83,  2552.40000,   902.40000
   1037.27,  2544.80000,   908.00000
   1037.72,  2544.60000,   912.60000
   1038.16,  2655.60000,   907.70000
   1038.61,  2730.50000,   906.30000
   1039.05,  2743.70000,   904.90000
   1039.50,  2736.90000,   893.60000
   1039.95,  2680.30000,   890.40000
   1040.39,  2605.00000,   895.00000
   1040.84,  2614.80000,   897.60000
   1041.28,  2608.80000,   903.70000
   1041.73,  2604.20000,   907.20000
   1042.17,  2613.40000,   906.10000
   1042.62,  2614.60000,   906.20000
   1043.06,  2627.90000,   908.50000
   1043.51,  2604.20000,   913.10000
   1043.95,  2610.80000,   914.10000
   1044.40,  2615.00000,   908.60000
   1044.84,  2599.10000,   911.10000
   1045.29,  2589.60000,   913.50000
   1045.73,  2595.00000,   921.10000
   1046.18,  2574.50000,   935.80000
   1046.62,  2571.70000,   935.00000
   1047.07,  2569.00000,   931.30000
   1047.51,  2551.30000,   924.50000
   1047.96,  2584.50000,   921.50000
   1048.40,  2631.90000,   920.00000
   1048.85,  2652.40000,   923.60000
   1049.29,  2637.40000,   928.10000
   1049.74,  2594.00000,   931.70000
   1050.18,  2557.80000,   933.60000
   1050.63,  2561.70000,   945.60000
   1051.07,  2570.50000,   957.20000
   1051.52,  2587.50000,   958.90000
   1051.96,  2571.50000,   960.70000
   1052.41,  2557.10000,   947.30000
   1052.85,  2565.00000,   939.30000
   1053.30,  2563.20000,   943.30000
   1053.74,  2560.00000,   955.80000
   1054.18,  2561.50000,   965.20000
   1054.63,  2538.70000,   978.70000
   1055.07,  2530.10000,   984.50000
   1055.52,  2534.00000,   984.00000
   1055.96,  2533.50000,   983.30000
   1056.41,  2527.80000,   981.10000
   1056.85,  2522.30000,   975.10000
   1057.30,  2521.20000,   976.10000
   1057.74,  2521.70000,   977.80000
   1058.18,  2525.20000,   975.80000
   1058.63,  2499.50000,   978.60000
   1059.07,  2496.10000,   979.00000
   1059.52,  2503.20000,   980.20000
   1059.96,  2505.90000,   988.80000
   1060.41,  2508.10000,   990.60000
   1060.85,  2525.30000,   989.90000
   1061.30,  2516.90000,   989.00000
   1061.74,  2513.80000,   997.30000
   1062.18,  2508.60000,   998.50000
   1062.63,  2476.70000,  1015.80000
   1063.07,  2463.20000,  1027.30000
   1063.52,  2467.80000,  1026.20000
   1063.96,  2489.10000,  1025.10000
   1064.40,  2495.60000,  1021.70000
   1064.85,  2493.20000,  1009.60000
   1065.29,  2470.20000,  1014.30000
   1065.74,  2454.60000,  1020.00000
   1066.18,  2426.00000,  1022.20000
