2D Measure spectrum data V5.74

<< MEASURE 1 >>
Data count = 2048
Exposure time = 30000 msec
Average = 10
Inspected time = 2020/10/19 17:59

Wave-dcm-1,Dark spec.  ,Spectrum
    108.17,  2242.90000,   673.30000
    108.66,  2246.10000,   676.60000
    109.15,  2254.90000,   670.20000
    109.65,  2276.90000,   658.10000
    110.14,  2284.40000,   656.00000
    110.63,  2292.30000,   653.40000
    111.13,  2311.40000,   638.90000
    111.62,  2296.90000,   638.90000
    112.11,  2310.70000,   629.80000
    112.60,  2331.30000,   617.50000
    113.10,  2322.50000,   622.70000
    113.59,  2341.70000,   627.60000
    114.08,  2363.50000,   630.90000
    114.58,  2355.90000,   633.10000
    115.07,  2399.50000,   633.10000
    115.56,  2409.60000,   630.10000
    116.06,  2403.80000,   629.50000
    116.55,  2404.00000,   628.80000
    117.04,  2392.00000,   630.70000
    117.53,  2366.50000,   629.60000
    118.03,  2393.00000,   636.80000
    118.52,  2399.50000,   642.50000
    119.01,  2400.30000,   644.80000
    119.51,  2492.80000,   647.50000
    120.00,  2589.60000,   649.00000
    120.49,  2626.20000,   654.80000
    120.98,  2618.40000,   674.60000
    121.48,  2538.00000,   690.70000
    121.97,  2430.00000,   708.70000
    122.46,  2420.60000,   722.90000
    122.95,  2451.40000,   742.20000
    123.45,  2488.10000,   770.80000
    123.94,  2489.00000,   803.30000
    124.43,  2507.50000,   824.00000
    124.92,  2536.00000,   841.20000
    125.42,  2533.20000,   855.40000
    125.91,  2552.20000,   855.70000
    126.40,  2543.90000,   877.20000
    126.89,  2520.90000,   886.60000
    127.39,  2509.80000,   900.10000
    127.88,  2507.40000,   912.10000
    128.37,  2504.20000,   924.90000
    128.86,  2528.70000,   933.60000
    129.35,  2526.10000,   951.90000
    129.85,  2536.10000,   962.80000
    130.34,  2530.00000,   977.90000
    130.83,  2533.80000,   990.30000
    131.32,  2533.60000,  1002.70000
    131.81,  2537.20000,  1021.10000
    132.31,  2533.00000,  1032.10000
    132.80,  2531.30000,  1040.50000
    133.29,  2517.90000,  1048.60000
    133.78,  2530.60000,  1052.40000
    134.27,  2544.90000,  1060.50000
    134.77,  2561.30000,  1072.50000
    135.26,  2581.70000,  1090.50000
    135.75,  2579.90000,  1105.80000
    136.24,  2590.90000,  1125.50000
    136.73,  2577.20000,  1128.80000
    137.23,  2587.20000,  1134.90000
    137.72,  2582.10000,  1137.40000
    138.21,  2578.50000,  1141.70000
    138.70,  2568.90000,  1139.30000
    139.19,  2602.00000,  1146.50000
    139.68,  2589.70000,  1151.20000
    140.18,  2594.50000,  1157.60000
    140.67,  2602.50000,  1169.90000
    141.16,  2608.30000,  1177.10000
    141.65,  2600.10000,  1183.70000
    142.14,  2599.70000,  1201.80000
    142.63,  2615.90000,  1217.90000
    143.13,  2617.80000,  1228.30000
    143.62,  2650.50000,  1237.60000
    144.11,  2651.80000,  1247.50000
    144.60,  2614.70000,  1254.60000
    145.09,  2601.20000,  1260.20000
    145.58,  2650.60000,  1272.80000
    146.07,  2666.10000,  1286.60000
    146.56,  2675.60000,  1301.60000
    147.06,  2667.40000,  1316.90000
    147.55,  2641.90000,  1315.30000
    148.04,  2609.20000,  1319.40000
    148.53,  2640.70000,  1335.80000
    149.02,  2617.10000,  1355.10000
    149.51,  2685.40000,  1380.60000
    150.00,  2737.20000,  1408.70000
    150.49,  2760.60000,  1426.30000
    150.99,  2754.50000,  1463.50000
    151.48,  2730.90000,  1499.20000
    151.97,  2647.00000,  1526.70000
    152.46,  2658.70000,  1536.80000
    152.95,  2639.30000,  1549.70000
    153.44,  2644.80000,  1544.10000
    153.93,  2661.00000,  1546.20000
    154.42,  2686.00000,  1545.80000
    154.91,  2659.10000,  1554.00000
    155.40,  2650.50000,  1543.80000
    155.89,  2627.00000,  1545.10000
    156.39,  2645.80000,  1541.50000
    156.88,  2618.10000,  1553.20000
    157.37,  2630.30000,  1583.50000
    157.86,  2627.30000,  1622.70000
    158.35,  2640.90000,  1648.20000
    158.84,  2660.10000,  1667.50000
    159.33,  2715.10000,  1676.10000
    159.82,  2723.70000,  1683.60000
    160.31,  2737.30000,  1694.00000
    160.80,  2765.00000,  1709.80000
    161.29,  2715.80000,  1719.80000
    161.78,  2684.20000,  1723.00000
    162.27,  2658.30000,  1722.90000
    162.76,  2654.50000,  1728.50000
    163.25,  2670.10000,  1726.20000
    163.74,  2702.60000,  1750.10000
    164.23,  2703.10000,  1774.20000
    164.72,  2725.50000,  1800.10000
    165.21,  2702.70000,  1810.80000
    165.70,  2684.40000,  1829.40000
    166.20,  2720.20000,  1838.90000
    166.69,  2737.30000,  1848.90000
    167.18,  2750.20000,  1862.60000
    167.67,  2755.30000,  1853.50000
    168.16,  2726.50000,  1843.40000
    168.65,  2678.10000,  1829.20000
    169.14,  2695.30000,  1832.00000
    169.63,  2693.30000,  1817.10000
    170.12,  2695.00000,  1805.60000
    170.61,  2694.20000,  1779.40000
    171.10,  2746.00000,  1779.40000
    171.59,  2738.20000,  1775.20000
    172.08,  2746.10000,  1788.50000
    172.57,  2747.80000,  1778.20000
    173.06,  2748.10000,  1772.60000
    173.55,  2734.10000,  1773.70000
    174.04,  2720.60000,  1775.60000
    174.53,  2704.50000,  1783.50000
    175.02,  2707.20000,  1779.10000
    175.50,  2729.00000,  1783.80000
    175.99,  2762.20000,  1777.70000
    176.48,  2788.80000,  1775.40000
    176.97,  2765.40000,  1765.00000
    177.46,  2766.00000,  1754.60000
    177.95,  2740.60000,  1732.70000
    178.44,  2721.20000,  1730.50000
    178.93,  2703.20000,  1732.40000
    179.42,  2715.50000,  1739.80000
    179.91,  2726.80000,  1744.80000
    180.40,  2739.20000,  1758.40000
    180.89,  2744.50000,  1780.70000
    181.38,  2739.50000,  1787.90000
    181.87,  2733.90000,  1815.50000
    182.36,  2731.00000,  1824.80000
    182.85,  2700.10000,  1818.70000
    183.34,  2714.00000,  1815.10000
    183.83,  2718.80000,  1818.10000
    184.32,  2716.70000,  1809.40000
    184.81,  2763.10000,  1793.70000
    185.29,  2760.80000,  1781.80000
    185.78,  2734.30000,  1765.70000
    186.27,  2744.20000,  1750.30000
    186.76,  2732.20000,  1752.00000
    187.25,  2701.00000,  1772.60000
    187.74,  2772.30000,  1777.10000
    188.23,  2794.90000,  1793.80000
    188.72,  2818.30000,  1802.30000
    189.21,  2805.50000,  1814.90000
    189.70,  2772.80000,  1828.70000
    190.19,  2739.90000,  1846.60000
    190.67,  2732.00000,  1847.70000
    191.16,  2735.70000,  1843.50000
    191.65,  2740.60000,  1834.00000
    192.14,  2722.80000,  1834.80000
    192.63,  2746.40000,  1835.00000
    193.12,  2762.20000,  1831.30000
    193.61,  2743.30000,  1829.80000
    194.10,  2760.10000,  1827.20000
    194.59,  2750.70000,  1819.50000
    195.07,  2742.60000,  1809.50000
    195.56,  2762.40000,  1806.40000
    196.05,  2744.10000,  1810.80000
    196.54,  2730.10000,  1822.90000
    197.03,  2747.30000,  1825.90000
    197.52,  2787.00000,  1807.50000
    198.01,  2797.00000,  1796.00000
    198.49,  2812.50000,  1778.40000
    198.98,  2800.80000,  1784.50000
    199.47,  2757.70000,  1783.60000
    199.96,  2745.10000,  1775.60000
    200.45,  2758.60000,  1764.20000
    200.94,  2734.20000,  1753.50000
    201.43,  2742.00000,  1739.80000
    201.91,  2727.60000,  1744.20000
    202.40,  2718.10000,  1744.20000
    202.89,  2725.20000,  1739.40000
    203.38,  2746.50000,  1753.10000
    203.87,  2746.90000,  1758.90000
    204.36,  2736.00000,  1770.10000
    204.84,  2731.70000,  1768.80000
    205.33,  2747.50000,  1770.70000
    205.82,  2764.70000,  1765.10000
    206.31,  2760.90000,  1786.00000
    206.80,  2758.20000,  1803.80000
    207.28,  2762.50000,  1811.20000
    207.77,  2771.50000,  1806.60000
    208.26,  2784.50000,  1809.80000
    208.75,  2792.50000,  1808.90000
    209.24,  2768.20000,  1832.90000
    209.72,  2772.20000,  1850.30000
    210.21,  2783.90000,  1859.10000
    210.70,  2767.00000,  1864.40000
    211.19,  2784.80000,  1870.30000
    211.68,  2794.90000,  1876.20000
    212.16,  2800.70000,  1891.10000
    212.65,  2806.10000,  1909.50000
    213.14,  2795.50000,  1922.80000
    213.63,  2785.60000,  1938.30000
    214.12,  2761.80000,  1948.30000
    214.60,  2778.40000,  1952.30000
    215.09,  2798.80000,  1960.50000
    215.58,  2806.30000,  1967.10000
    216.07,  2804.30000,  1980.40000
    216.55,  2808.20000,  2008.60000
    217.04,  2736.50000,  2033.90000
    217.53,  2725.90000,  2058.40000
    218.02,  2717.90000,  2090.90000
    218.50,  2733.60000,  2098.20000
    218.99,  2749.60000,  2113.50000
    219.48,  2778.90000,  2123.70000
    219.97,  2746.10000,  2129.40000
    220.45,  2747.80000,  2151.40000
    220.94,  2749.50000,  2163.80000
    221.43,  2770.10000,  2161.70000
    221.92,  2786.90000,  2182.50000
    222.40,  2792.60000,  2190.90000
    222.89,  2786.20000,  2191.80000
    223.38,  2801.50000,  2207.10000
    223.86,  2821.50000,  2200.90000
    224.35,  2841.80000,  2185.70000
    224.84,  2849.10000,  2167.80000
    225.33,  2829.10000,  2156.50000
    225.81,  2802.30000,  2141.00000
    226.30,  2787.30000,  2130.90000
    226.79,  2778.30000,  2125.50000
    227.27,  2768.80000,  2113.60000
    227.76,  2772.90000,  2083.50000
    228.25,  2790.50000,  2060.40000
    228.74,  2810.90000,  2029.40000
    229.22,  2841.30000,  1992.00000
    229.71,  2831.70000,  1976.10000
    230.20,  2813.00000,  1949.10000
    230.68,  2793.00000,  1926.80000
    231.17,  2779.70000,  1896.40000
    231.66,  2755.40000,  1865.50000
    232.14,  2758.50000,  1836.40000
    232.63,  2746.60000,  1822.80000
    233.12,  2767.10000,  1802.00000
    233.60,  2782.80000,  1789.00000
    234.09,  2758.70000,  1781.20000
    234.58,  2745.60000,  1770.40000
    235.06,  2748.20000,  1757.60000
    235.55,  2744.80000,  1744.50000
    236.04,  2738.10000,  1724.70000
    236.52,  2758.40000,  1694.80000
    237.01,  2735.60000,  1682.70000
    237.50,  2775.30000,  1666.90000
    237.98,  2766.70000,  1656.20000
    238.47,  2827.00000,  1640.70000
    238.96,  2831.90000,  1630.90000
    239.44,  2830.80000,  1620.00000
    239.93,  2828.80000,  1614.20000
    240.41,  2792.90000,  1602.20000
    240.90,  2719.40000,  1613.20000
    241.39,  2740.80000,  1611.90000
    241.87,  2777.90000,  1608.10000
    242.36,  2793.60000,  1611.70000
    242.85,  2839.70000,  1607.60000
    243.33,  2831.00000,  1598.60000
    243.82,  2805.30000,  1601.90000
    244.30,  2781.80000,  1591.70000
    244.79,  2790.70000,  1577.70000
    245.28,  2773.10000,  1572.40000
    245.76,  2775.10000,  1570.80000
    246.25,  2759.70000,  1576.50000
    246.74,  2778.00000,  1586.60000
    247.22,  2801.30000,  1589.10000
    247.71,  2790.10000,  1595.10000
    248.19,  2775.10000,  1592.60000
    248.68,  2774.90000,  1584.10000
    249.16,  2740.90000,  1581.30000
    249.65,  2773.30000,  1584.00000
    250.14,  2791.40000,  1579.20000
    250.62,  2773.40000,  1571.70000
    251.11,  2751.10000,  1564.10000
    251.59,  2731.10000,  1563.80000
    252.08,  2714.00000,  1565.10000
    252.57,  2728.50000,  1570.20000
    253.05,  2732.70000,  1575.50000
    253.54,  2779.20000,  1567.70000
    254.02,  2808.20000,  1563.90000
    254.51,  2820.80000,  1564.20000
    254.99,  2816.10000,  1557.90000
    255.48,  2787.60000,  1553.30000
    255.96,  2750.10000,  1557.70000
    256.45,  2775.70000,  1562.50000
    256.94,  2781.40000,  1570.00000
    257.42,  2779.60000,  1581.00000
    257.91,  2786.60000,  1582.60000
    258.39,  2786.60000,  1581.90000
    258.88,  2769.00000,  1579.80000
    259.36,  2787.50000,  1581.00000
    259.85,  2782.00000,  1583.70000
    260.33,  2785.80000,  1592.70000
    260.82,  2812.60000,  1584.70000
    261.30,  2825.50000,  1583.90000
    261.79,  2804.60000,  1591.40000
    262.27,  2787.60000,  1597.00000
    262.76,  2766.00000,  1609.70000
    263.24,  2757.60000,  1626.50000
    263.73,  2782.50000,  1621.30000
    264.22,  2783.70000,  1621.20000
    264.70,  2848.80000,  1627.50000
    265.19,  2882.00000,  1619.80000
    265.67,  2880.70000,  1629.10000
    266.16,  2857.40000,  1638.70000
    266.64,  2832.10000,  1633.10000
    267.13,  2768.30000,  1626.30000
    267.61,  2770.20000,  1629.90000
    268.10,  2791.60000,  1635.70000
    268.58,  2786.30000,  1656.40000
    269.06,  2785.70000,  1671.90000
    269.55,  2794.90000,  1687.60000
    270.03,  2798.30000,  1697.60000
    270.52,  2798.30000,  1704.30000
    271.00,  2816.70000,  1704.20000
    271.49,  2819.00000,  1691.60000
    271.97,  2818.30000,  1700.30000
    272.46,  2817.60000,  1721.00000
    272.94,  2816.50000,  1732.90000
    273.43,  2815.00000,  1731.90000
    273.91,  2792.70000,  1728.90000
    274.40,  2783.60000,  1721.90000
    274.88,  2763.40000,  1738.40000
    275.37,  2758.30000,  1756.50000
    275.85,  2762.90000,  1752.20000
    276.33,  2769.90000,  1756.40000
    276.82,  2791.60000,  1754.10000
    277.30,  2808.80000,  1761.10000
    277.79,  2803.40000,  1758.90000
    278.27,  2807.60000,  1770.80000
    278.76,  2826.20000,  1763.70000
    279.24,  2824.60000,  1779.80000
    279.73,  2822.90000,  1785.60000
    280.21,  2806.30000,  1799.80000
    280.69,  2778.50000,  1801.80000
    281.18,  2776.40000,  1806.00000
    281.66,  2795.00000,  1798.90000
    282.15,  2836.70000,  1799.50000
    282.63,  2835.20000,  1801.70000
    283.11,  2824.30000,  1789.70000
    283.60,  2820.00000,  1792.30000
    284.08,  2824.90000,  1796.20000
    284.57,  2791.20000,  1800.40000
    285.05,  2794.50000,  1794.90000
    285.53,  2782.50000,  1782.50000
    286.02,  2764.60000,  1754.60000
    286.50,  2794.20000,  1740.60000
    286.99,  2812.90000,  1739.60000
    287.47,  2796.00000,  1743.10000
    287.95,  2783.00000,  1742.50000
    288.44,  2779.30000,  1737.00000
    288.92,  2769.90000,  1727.10000
    289.41,  2782.20000,  1718.90000
    289.89,  2803.60000,  1719.50000
    290.37,  2806.10000,  1717.00000
    290.86,  2824.80000,  1717.80000
    291.34,  2798.70000,  1706.80000
    291.82,  2786.30000,  1688.80000
    292.31,  2765.00000,  1682.20000
    292.79,  2779.70000,  1666.10000
    293.28,  2773.90000,  1651.60000
    293.76,  2786.40000,  1633.00000
    294.24,  2787.60000,  1621.00000
    294.73,  2806.50000,  1616.40000
    295.21,  2811.40000,  1616.30000
    295.69,  2821.70000,  1610.60000
    296.18,  2786.10000,  1607.10000
    296.66,  2750.50000,  1591.00000
    297.14,  2754.50000,  1578.00000
    297.63,  2771.10000,  1564.50000
    298.11,  2788.60000,  1550.90000
    298.59,  2824.40000,  1545.70000
    299.08,  2827.30000,  1531.90000
    299.56,  2824.50000,  1526.00000
    300.04,  2846.10000,  1514.60000
    300.53,  2844.70000,  1511.20000
    301.01,  2834.90000,  1502.60000
    301.49,  2828.20000,  1495.60000
    301.98,  2801.00000,  1478.10000
    302.46,  2778.80000,  1469.50000
    302.94,  2784.60000,  1454.80000
    303.42,  2780.70000,  1446.90000
    303.91,  2762.30000,  1436.30000
    304.39,  2744.90000,  1427.00000
    304.87,  2749.40000,  1417.10000
    305.36,  2773.30000,  1411.40000
    305.84,  2807.80000,  1407.30000
    306.32,  2843.00000,  1406.30000
    306.81,  2824.10000,  1400.80000
    307.29,  2801.80000,  1389.80000
    307.77,  2791.50000,  1379.80000
    308.25,  2798.20000,  1365.00000
    308.74,  2810.20000,  1364.30000
    309.22,  2805.70000,  1367.30000
    309.70,  2786.30000,  1365.80000
    310.18,  2772.60000,  1365.70000
    310.67,  2780.60000,  1360.40000
    311.15,  2799.20000,  1337.40000
    311.63,  2818.90000,  1320.20000
    312.12,  2825.60000,  1310.60000
    312.60,  2795.30000,  1315.90000
    313.08,  2764.70000,  1322.50000
    313.56,  2754.80000,  1326.60000
    314.05,  2749.20000,  1316.40000
    314.53,  2779.20000,  1301.30000
    315.01,  2841.70000,  1288.60000
    315.49,  2842.00000,  1292.60000
    315.98,  2839.60000,  1289.40000
    316.46,  2812.20000,  1289.80000
    316.94,  2773.90000,  1285.30000
    317.42,  2757.80000,  1280.90000
    317.90,  2763.70000,  1278.00000
    318.39,  2740.50000,  1287.00000
    318.87,  2781.90000,  1291.20000
    319.35,  2802.40000,  1294.10000
    319.83,  2823.90000,  1285.60000
    320.32,  2838.70000,  1276.20000
    320.80,  2849.30000,  1266.50000
    321.28,  2799.00000,  1267.30000
    321.76,  2827.20000,  1268.30000
    322.24,  2823.50000,  1274.60000
    322.73,  2841.70000,  1273.10000
    323.21,  2853.10000,  1265.70000
    323.69,  2864.70000,  1261.10000
    324.17,  2813.40000,  1256.50000
    324.65,  2780.90000,  1253.60000
    325.14,  2785.60000,  1258.60000
    325.62,  2793.80000,  1253.10000
    326.10,  2833.60000,  1256.20000
    326.58,  2845.60000,  1266.50000
    327.06,  2807.20000,  1266.20000
    327.55,  2817.50000,  1279.60000
    328.03,  2855.40000,  1283.20000
    328.51,  2863.10000,  1277.00000
    328.99,  2875.30000,  1274.70000
    329.47,  2860.90000,  1274.00000
    329.95,  2792.40000,  1255.90000
    330.44,  2797.90000,  1255.40000
    330.92,  2772.20000,  1249.60000
    331.40,  2753.90000,  1251.10000
    331.88,  2745.80000,  1244.90000
    332.36,  2759.60000,  1246.50000
    332.84,  2780.90000,  1238.30000
    333.33,  2821.80000,  1233.00000
    333.81,  2827.00000,  1234.50000
    334.29,  2838.50000,  1232.10000
    334.77,  2841.30000,  1228.20000
    335.25,  2826.80000,  1227.60000
    335.73,  2839.10000,  1222.50000
    336.21,  2835.20000,  1209.70000
    336.69,  2816.40000,  1215.30000
    337.18,  2799.20000,  1213.00000
    337.66,  2778.60000,  1216.40000
    338.14,  2755.30000,  1221.80000
    338.62,  2752.70000,  1218.80000
    339.10,  2777.90000,  1212.60000
    339.58,  2815.20000,  1225.20000
    340.06,  2828.20000,  1224.40000
    340.54,  2838.90000,  1222.10000
    341.03,  2831.50000,  1215.60000
    341.51,  2804.00000,  1203.70000
    341.99,  2800.60000,  1194.50000
    342.47,  2802.90000,  1197.30000
    342.95,  2801.50000,  1187.80000
    343.43,  2795.10000,  1192.70000
    343.91,  2804.20000,  1191.90000
    344.39,  2781.10000,  1201.80000
    344.87,  2761.30000,  1209.20000
    345.35,  2771.70000,  1213.70000
    345.84,  2781.20000,  1208.40000
    346.32,  2821.80000,  1210.90000
    346.80,  2850.70000,  1197.20000
    347.28,  2847.90000,  1198.90000
    347.76,  2816.50000,  1199.00000
    348.24,  2817.30000,  1195.40000
    348.72,  2838.40000,  1196.90000
    349.20,  2866.10000,  1195.90000
    349.68,  2844.50000,  1197.70000
    350.16,  2811.80000,  1193.50000
    350.64,  2757.00000,  1204.00000
    351.12,  2750.40000,  1198.50000
    351.60,  2813.90000,  1194.10000
    352.08,  2861.90000,  1195.30000
    352.56,  2878.00000,  1205.20000
    353.04,  2875.40000,  1195.40000
    353.53,  2842.60000,  1207.80000
    354.01,  2820.10000,  1201.50000
    354.49,  2839.00000,  1197.10000
    354.97,  2834.90000,  1196.70000
    355.45,  2836.00000,  1190.40000
    355.93,  2816.40000,  1182.20000
    356.41,  2821.50000,  1195.50000
    356.89,  2804.00000,  1197.30000
    357.37,  2827.00000,  1190.40000
    357.85,  2805.50000,  1186.60000
    358.33,  2799.80000,  1183.40000
    358.81,  2773.30000,  1186.00000
    359.29,  2778.10000,  1200.00000
    359.77,  2792.90000,  1208.00000
    360.25,  2820.40000,  1208.80000
    360.73,  2816.20000,  1212.30000
    361.21,  2802.70000,  1215.40000
    361.69,  2808.70000,  1211.00000
    362.17,  2810.20000,  1204.30000
    362.65,  2828.10000,  1196.20000
    363.13,  2835.30000,  1196.50000
    363.61,  2843.60000,  1199.00000
    364.09,  2810.90000,  1202.30000
    364.57,  2804.30000,  1210.00000
    365.05,  2799.20000,  1218.00000
    365.53,  2779.30000,  1222.70000
    366.01,  2797.10000,  1222.80000
    366.49,  2838.50000,  1224.90000
    366.97,  2807.90000,  1215.40000
    367.45,  2821.10000,  1213.30000
    367.93,  2845.80000,  1215.00000
    368.41,  2828.30000,  1217.10000
    368.89,  2829.80000,  1209.10000
    369.37,  2833.10000,  1222.50000
    369.85,  2779.20000,  1229.90000
    370.33,  2793.30000,  1235.00000
    370.80,  2816.00000,  1236.70000
    371.28,  2815.80000,  1236.00000
    371.76,  2795.40000,  1231.80000
    372.24,  2782.60000,  1233.60000
    372.72,  2775.80000,  1239.30000
    373.20,  2795.70000,  1234.50000
    373.68,  2821.80000,  1238.10000
    374.16,  2838.50000,  1242.20000
    374.64,  2820.20000,  1237.60000
    375.12,  2797.20000,  1231.00000
    375.60,  2831.10000,  1233.40000
    376.08,  2815.70000,  1228.20000
    376.56,  2808.20000,  1236.70000
    377.04,  2803.80000,  1242.80000
    377.52,  2807.20000,  1237.00000
    377.99,  2794.70000,  1240.90000
    378.47,  2832.10000,  1244.20000
    378.95,  2816.90000,  1242.70000
    379.43,  2832.40000,  1245.00000
    379.91,  2832.70000,  1245.20000
    380.39,  2878.00000,  1238.40000
    380.87,  2894.30000,  1246.40000
    381.35,  2885.10000,  1254.50000
    381.83,  2848.90000,  1273.20000
    382.31,  2810.40000,  1279.50000
    382.79,  2774.20000,  1271.70000
    383.26,  2797.20000,  1256.00000
    383.74,  2804.20000,  1254.30000
    384.22,  2804.20000,  1250.10000
    384.70,  2805.60000,  1266.80000
    385.18,  2777.10000,  1274.90000
    385.66,  2788.00000,  1279.40000
    386.14,  2793.20000,  1287.70000
    386.62,  2807.70000,  1290.80000
    387.09,  2825.00000,  1281.60000
    387.57,  2837.60000,  1273.20000
    388.05,  2828.20000,  1272.80000
    388.53,  2820.00000,  1283.00000
    389.01,  2818.40000,  1292.10000
    389.49,  2839.00000,  1291.90000
    389.97,  2838.90000,  1287.40000
    390.44,  2829.60000,  1274.20000
    390.92,  2817.40000,  1263.20000
    391.40,  2795.90000,  1263.70000
    391.88,  2793.20000,  1274.30000
    392.36,  2799.40000,  1284.40000
    392.84,  2799.00000,  1296.90000
    393.32,  2811.90000,  1290.60000
    393.79,  2816.50000,  1278.90000
    394.27,  2868.60000,  1268.20000
    394.75,  2863.10000,  1275.30000
    395.23,  2857.40000,  1277.60000
    395.71,  2835.80000,  1277.00000
    396.18,  2838.50000,  1268.20000
    396.66,  2843.70000,  1267.40000
    397.14,  2880.80000,  1262.40000
    397.62,  2842.80000,  1271.10000
    398.10,  2833.30000,  1275.30000
    398.58,  2811.60000,  1271.50000
    399.05,  2816.00000,  1280.00000
    399.53,  2824.60000,  1281.70000
    400.01,  2830.40000,  1271.40000
    400.49,  2810.20000,  1276.20000
    400.97,  2795.00000,  1266.90000
    401.44,  2764.60000,  1253.30000
    401.92,  2781.20000,  1261.60000
    402.40,  2785.60000,  1263.70000
    402.88,  2810.60000,  1260.50000
    403.36,  2822.80000,  1266.00000
    403.83,  2836.70000,  1262.70000
    404.31,  2803.90000,  1256.70000
    404.79,  2813.90000,  1267.80000
    405.27,  2799.20000,  1262.10000
    405.74,  2791.40000,  1254.20000
    406.22,  2813.80000,  1244.90000
    406.70,  2832.80000,  1242.90000
    407.18,  2820.50000,  1232.50000
    407.65,  2811.80000,  1232.60000
    408.13,  2780.40000,  1229.10000
    408.61,  2782.60000,  1223.10000
    409.09,  2795.20000,  1220.90000
    409.56,  2798.20000,  1223.60000
    410.04,  2815.30000,  1214.20000
    410.52,  2813.80000,  1213.20000
    411.00,  2783.30000,  1217.10000
    411.47,  2776.10000,  1212.90000
    411.95,  2762.10000,  1215.00000
    412.43,  2767.90000,  1213.10000
    412.91,  2777.00000,  1206.90000
    413.38,  2796.70000,  1207.60000
    413.86,  2808.40000,  1202.10000
    414.34,  2805.90000,  1197.50000
    414.82,  2813.10000,  1194.60000
    415.29,  2812.50000,  1185.90000
    415.77,  2820.00000,  1178.80000
    416.25,  2817.90000,  1184.20000
    416.72,  2819.70000,  1181.50000
    417.20,  2803.80000,  1185.80000
    417.68,  2772.40000,  1182.60000
    418.16,  2757.30000,  1178.40000
    418.63,  2785.00000,  1172.80000
    419.11,  2788.50000,  1175.70000
    419.59,  2797.40000,  1179.00000
    420.06,  2778.80000,  1180.80000
    420.54,  2749.10000,  1173.60000
    421.02,  2768.90000,  1163.40000
    421.50,  2798.70000,  1158.50000
    421.97,  2805.80000,  1151.50000
    422.45,  2791.90000,  1159.60000
    422.93,  2778.60000,  1157.20000
    423.40,  2759.10000,  1148.70000
    423.88,  2763.30000,  1146.60000
    424.36,  2773.00000,  1153.50000
    424.83,  2785.50000,  1159.40000
    425.31,  2808.60000,  1164.30000
    425.79,  2860.10000,  1155.80000
    426.26,  2900.60000,  1145.00000
    426.74,  2872.00000,  1149.20000
    427.22,  2853.40000,  1150.00000
    427.69,  2828.00000,  1158.50000
    428.17,  2807.00000,  1164.60000
    428.65,  2796.00000,  1156.40000
    429.12,  2833.20000,  1150.70000
    429.60,  2812.60000,  1146.80000
    430.08,  2820.30000,  1133.60000
    430.55,  2825.90000,  1133.20000
    431.03,  2825.30000,  1137.50000
    431.50,  2824.50000,  1136.10000
    431.98,  2823.50000,  1143.40000
    432.46,  2825.50000,  1143.60000
    432.93,  2801.90000,  1144.80000
    433.41,  2786.10000,  1141.50000
    433.89,  2785.70000,  1141.00000
    434.36,  2794.50000,  1138.60000
    434.84,  2784.60000,  1148.10000
    435.31,  2800.30000,  1155.00000
    435.79,  2794.30000,  1154.60000
    436.27,  2788.70000,  1136.30000
    436.74,  2793.50000,  1125.80000
    437.22,  2799.70000,  1123.70000
    437.70,  2797.00000,  1125.20000
    438.17,  2788.50000,  1132.40000
    438.65,  2788.20000,  1132.80000
    439.12,  2797.30000,  1128.30000
    439.60,  2802.40000,  1124.50000
    440.08,  2806.10000,  1133.10000
    440.55,  2793.80000,  1126.30000
    441.03,  2798.50000,  1130.00000
    441.50,  2802.80000,  1127.70000
    441.98,  2820.80000,  1123.50000
    442.45,  2814.50000,  1123.80000
    442.93,  2806.10000,  1128.30000
    443.41,  2791.60000,  1129.60000
    443.88,  2795.20000,  1131.80000
    444.36,  2789.90000,  1123.00000
    444.83,  2793.60000,  1116.30000
    445.31,  2791.30000,  1123.20000
    445.78,  2765.90000,  1124.40000
    446.26,  2762.40000,  1137.60000
    446.74,  2765.50000,  1130.50000
    447.21,  2796.80000,  1119.60000
    447.69,  2819.80000,  1120.30000
    448.16,  2838.30000,  1135.30000
    448.64,  2808.20000,  1132.60000
    449.11,  2784.10000,  1140.90000
    449.59,  2786.30000,  1134.50000
    450.06,  2792.90000,  1135.40000
    450.54,  2784.20000,  1150.00000
    451.02,  2816.80000,  1157.50000
    451.49,  2820.70000,  1155.80000
    451.97,  2827.00000,  1145.80000
    452.44,  2825.00000,  1138.70000
    452.92,  2806.40000,  1133.00000
    453.39,  2781.30000,  1131.80000
    453.87,  2799.20000,  1131.40000
    454.34,  2801.20000,  1135.20000
    454.82,  2808.60000,  1138.80000
    455.29,  2821.90000,  1135.30000
    455.77,  2826.70000,  1127.30000
    456.24,  2798.00000,  1123.00000
    456.72,  2778.20000,  1125.00000
    457.19,  2773.00000,  1123.20000
    457.67,  2784.40000,  1131.10000
    458.14,  2816.30000,  1126.30000
    458.62,  2824.00000,  1126.30000
    459.09,  2810.80000,  1137.90000
    459.57,  2782.00000,  1144.60000
    460.04,  2789.20000,  1142.50000
    460.52,  2792.20000,  1135.10000
    460.99,  2780.60000,  1127.10000
    461.47,  2776.30000,  1124.80000
    461.94,  2757.80000,  1124.10000
    462.42,  2756.90000,  1127.60000
    462.89,  2779.20000,  1133.50000
    463.37,  2797.90000,  1135.60000
    463.84,  2803.50000,  1141.80000
    464.32,  2809.60000,  1147.90000
    464.79,  2807.60000,  1144.30000
    465.26,  2812.40000,  1140.50000
    465.74,  2792.70000,  1141.10000
    466.21,  2807.10000,  1138.50000
    466.69,  2812.00000,  1137.90000
    467.16,  2813.00000,  1139.90000
    467.64,  2802.70000,  1149.30000
    468.11,  2790.80000,  1145.40000
    468.59,  2789.50000,  1133.70000
    469.06,  2812.80000,  1120.00000
    469.54,  2838.70000,  1111.80000
    470.01,  2838.60000,  1107.00000
    470.48,  2795.90000,  1113.30000
    470.96,  2798.60000,  1123.70000
    471.43,  2818.10000,  1134.60000
    471.91,  2842.30000,  1144.50000
    472.38,  2870.30000,  1155.90000
    472.86,  2845.30000,  1150.90000
    473.33,  2791.60000,  1145.90000
    473.80,  2783.10000,  1140.30000
    474.28,  2792.80000,  1141.30000
    474.75,  2811.50000,  1134.20000
    475.23,  2847.30000,  1133.40000
    475.70,  2848.20000,  1133.80000
    476.17,  2817.50000,  1146.50000
    476.65,  2815.60000,  1144.10000
    477.12,  2812.40000,  1149.30000
    477.60,  2776.10000,  1144.10000
    478.07,  2787.10000,  1130.50000
    478.54,  2799.20000,  1134.60000
    479.02,  2804.80000,  1135.40000
    479.49,  2834.60000,  1134.50000
    479.97,  2837.10000,  1139.60000
    480.44,  2815.70000,  1143.20000
    480.91,  2787.20000,  1145.70000
    481.39,  2779.30000,  1147.60000
    481.86,  2781.80000,  1139.20000
    482.34,  2767.30000,  1145.40000
    482.81,  2785.00000,  1146.80000
    483.28,  2810.80000,  1147.70000
    483.76,  2800.50000,  1148.20000
    484.23,  2823.90000,  1133.10000
    484.70,  2816.80000,  1113.90000
    485.18,  2806.50000,  1121.90000
    485.65,  2810.30000,  1125.60000
    486.12,  2813.90000,  1130.50000
    486.60,  2789.30000,  1141.10000
    487.07,  2790.90000,  1149.90000
    487.55,  2808.00000,  1148.10000
    488.02,  2830.10000,  1151.40000
    488.49,  2836.00000,  1135.00000
    488.97,  2850.10000,  1126.00000
    489.44,  2842.10000,  1126.70000
    489.91,  2806.70000,  1134.00000
    490.39,  2792.30000,  1141.10000
    490.86,  2750.70000,  1144.70000
    491.33,  2717.30000,  1138.10000
    491.81,  2752.30000,  1139.50000
    492.28,  2798.90000,  1137.50000
    492.75,  2799.10000,  1134.70000
    493.23,  2848.00000,  1133.20000
    493.70,  2863.20000,  1140.30000
    494.17,  2855.00000,  1140.80000
    494.64,  2844.50000,  1142.70000
    495.12,  2808.60000,  1140.00000
    495.59,  2811.00000,  1132.20000
    496.06,  2844.30000,  1125.00000
    496.54,  2863.10000,  1127.30000
    497.01,  2843.20000,  1121.00000
    497.48,  2822.10000,  1120.70000
    497.96,  2800.00000,  1122.80000
    498.43,  2835.70000,  1121.90000
    498.90,  2835.80000,  1134.50000
    499.37,  2855.40000,  1140.70000
    499.85,  2821.20000,  1141.70000
    500.32,  2820.40000,  1134.60000
    500.79,  2806.50000,  1133.50000
    501.27,  2820.80000,  1116.70000
    501.74,  2815.70000,  1114.10000
    502.21,  2817.80000,  1110.80000
    502.68,  2805.30000,  1117.00000
    503.16,  2804.10000,  1117.00000
    503.63,  2796.10000,  1120.20000
    504.10,  2803.90000,  1120.70000
    504.57,  2785.20000,  1121.50000
    505.05,  2789.50000,  1124.00000
    505.52,  2810.60000,  1122.20000
    505.99,  2808.60000,  1120.50000
    506.46,  2811.50000,  1115.00000
    506.94,  2805.00000,  1121.30000
    507.41,  2785.10000,  1128.60000
    507.88,  2781.40000,  1137.10000
    508.35,  2782.20000,  1134.30000
    508.83,  2767.10000,  1134.40000
    509.30,  2798.60000,  1128.20000
    509.77,  2811.30000,  1116.40000
    510.24,  2811.60000,  1119.00000
    510.72,  2791.70000,  1118.50000
    511.19,  2778.80000,  1116.50000
    511.66,  2772.80000,  1118.90000
    512.13,  2795.20000,  1127.50000
    512.60,  2783.70000,  1129.00000
    513.08,  2778.70000,  1136.10000
    513.55,  2772.50000,  1133.30000
    514.02,  2767.00000,  1120.30000
    514.49,  2773.00000,  1111.10000
    514.97,  2786.80000,  1098.90000
    515.44,  2799.30000,  1094.80000
    515.91,  2796.70000,  1098.10000
    516.38,  2789.80000,  1111.90000
    516.85,  2759.30000,  1103.90000
    517.33,  2741.10000,  1108.20000
    517.80,  2749.30000,  1100.50000
    518.27,  2776.70000,  1098.50000
    518.74,  2811.20000,  1111.70000
    519.21,  2823.50000,  1132.80000
    519.68,  2796.80000,  1134.50000
    520.16,  2775.90000,  1126.10000
    520.63,  2762.90000,  1114.70000
    521.10,  2763.30000,  1098.20000
    521.57,  2796.00000,  1091.50000
    522.04,  2802.40000,  1099.20000
    522.52,  2797.30000,  1114.00000
    522.99,  2788.60000,  1110.10000
    523.46,  2798.00000,  1115.40000
    523.93,  2802.00000,  1114.30000
    524.40,  2841.80000,  1100.50000
    524.87,  2829.90000,  1101.50000
    525.34,  2816.70000,  1106.60000
    525.82,  2799.00000,  1116.40000
    526.29,  2806.00000,  1123.40000
    526.76,  2797.80000,  1135.40000
    527.23,  2820.90000,  1126.00000
    527.70,  2796.90000,  1129.40000
    528.17,  2789.80000,  1119.30000
    528.64,  2782.60000,  1118.40000
    529.12,  2786.50000,  1114.50000
    529.59,  2781.90000,  1128.60000
    530.06,  2791.00000,  1124.30000
    530.53,  2830.60000,  1122.90000
    531.00,  2802.80000,  1114.80000
    531.47,  2764.30000,  1105.80000
    531.94,  2747.50000,  1112.60000
    532.41,  2745.60000,  1126.20000
    532.89,  2771.20000,  1126.30000
    533.36,  2836.70000,  1121.00000
    533.83,  2812.80000,  1119.60000
    534.30,  2794.10000,  1112.90000
    534.77,  2796.90000,  1124.20000
    535.24,  2810.60000,  1129.40000
    535.71,  2806.10000,  1139.70000
    536.18,  2820.80000,  1133.70000
    536.65,  2812.80000,  1124.80000
    537.13,  2789.30000,  1121.80000
    537.60,  2769.30000,  1127.90000
    538.07,  2776.80000,  1131.70000
    538.54,  2757.50000,  1149.70000
    539.01,  2776.40000,  1151.00000
    539.48,  2812.90000,  1151.40000
    539.95,  2825.70000,  1150.00000
    540.42,  2832.10000,  1144.80000
    540.89,  2816.20000,  1143.20000
    541.36,  2791.10000,  1140.60000
    541.83,  2781.60000,  1145.30000
    542.30,  2780.60000,  1154.30000
    542.77,  2784.70000,  1166.50000
    543.25,  2812.70000,  1166.50000
    543.72,  2816.10000,  1162.20000
    544.19,  2814.40000,  1161.90000
    544.66,  2795.80000,  1166.00000
    545.13,  2785.20000,  1160.20000
    545.60,  2770.80000,  1154.10000
    546.07,  2798.50000,  1148.00000
    546.54,  2809.20000,  1142.70000
    547.01,  2810.80000,  1158.20000
    547.48,  2807.60000,  1171.50000
    547.95,  2797.70000,  1179.50000
    548.42,  2776.10000,  1176.30000
    548.89,  2806.20000,  1180.00000
    549.36,  2792.60000,  1172.30000
    549.83,  2787.00000,  1165.40000
    550.30,  2837.10000,  1154.80000
    550.77,  2842.50000,  1149.30000
    551.24,  2842.00000,  1155.10000
    551.71,  2858.80000,  1168.10000
    552.18,  2818.00000,  1181.30000
    552.65,  2763.80000,  1190.20000
    553.12,  2790.00000,  1187.10000
    553.59,  2802.00000,  1165.50000
    554.06,  2806.80000,  1166.20000
    554.53,  2816.40000,  1173.30000
    555.00,  2800.40000,  1182.20000
    555.47,  2789.00000,  1190.80000
    555.94,  2785.30000,  1188.50000
    556.41,  2787.10000,  1183.50000
    556.88,  2769.70000,  1186.20000
    557.35,  2756.90000,  1204.60000
    557.82,  2749.00000,  1205.50000
    558.29,  2768.80000,  1208.50000
    558.76,  2813.10000,  1195.50000
    559.23,  2831.70000,  1194.50000
    559.70,  2830.80000,  1193.20000
    560.17,  2814.00000,  1201.70000
    560.64,  2810.50000,  1188.30000
    561.11,  2798.00000,  1188.60000
    561.58,  2825.90000,  1182.60000
    562.05,  2811.80000,  1181.70000
    562.52,  2813.40000,  1192.60000
    562.99,  2806.30000,  1204.20000
    563.46,  2816.80000,  1203.90000
    563.93,  2805.70000,  1210.10000
    564.40,  2811.50000,  1213.90000
    564.87,  2816.00000,  1202.20000
    565.34,  2833.50000,  1205.90000
    565.81,  2819.00000,  1213.70000
    566.28,  2814.20000,  1207.90000
    566.74,  2793.00000,  1205.10000
    567.21,  2786.00000,  1201.70000
    567.68,  2800.60000,  1193.50000
    568.15,  2798.00000,  1199.60000
    568.62,  2788.90000,  1208.20000
    569.09,  2788.50000,  1209.70000
    569.56,  2782.50000,  1214.90000
    570.03,  2779.70000,  1214.30000
    570.50,  2812.30000,  1214.50000
    570.97,  2813.90000,  1207.70000
    571.44,  2802.20000,  1211.10000
    571.91,  2807.10000,  1209.90000
    572.38,  2801.50000,  1217.60000
    572.84,  2777.60000,  1218.90000
    573.31,  2795.10000,  1217.10000
    573.78,  2797.30000,  1212.70000
    574.25,  2789.30000,  1212.20000
    574.72,  2804.70000,  1207.80000
    575.19,  2803.90000,  1213.80000
    575.66,  2795.30000,  1214.00000
    576.13,  2792.50000,  1206.50000
    576.60,  2801.20000,  1214.40000
    577.07,  2824.40000,  1213.60000
    577.53,  2842.70000,  1216.20000
    578.00,  2840.40000,  1217.50000
    578.47,  2834.20000,  1208.80000
    578.94,  2800.10000,  1201.50000
    579.41,  2769.90000,  1201.30000
    579.88,  2778.60000,  1209.80000
    580.35,  2778.90000,  1211.80000
    580.82,  2790.90000,  1214.30000
    581.28,  2819.60000,  1217.80000
    581.75,  2817.90000,  1213.50000
    582.22,  2804.80000,  1217.50000
    582.69,  2806.70000,  1227.70000
    583.16,  2803.60000,  1225.20000
    583.63,  2797.70000,  1221.10000
    584.10,  2826.60000,  1224.10000
    584.56,  2841.90000,  1221.50000
    585.03,  2828.50000,  1220.80000
    585.50,  2820.10000,  1215.80000
    585.97,  2795.10000,  1215.10000
    586.44,  2789.00000,  1207.20000
    586.91,  2808.40000,  1201.90000
    587.37,  2813.50000,  1202.80000
    587.84,  2795.10000,  1206.10000
    588.31,  2779.80000,  1204.70000
    588.78,  2748.20000,  1215.60000
    589.25,  2775.50000,  1224.20000
    589.72,  2772.10000,  1227.30000
    590.18,  2807.30000,  1211.70000
    590.65,  2834.10000,  1200.70000
    591.12,  2826.00000,  1181.40000
    591.59,  2821.10000,  1189.70000
    592.06,  2803.70000,  1201.30000
    592.52,  2758.00000,  1215.00000
    592.99,  2778.30000,  1214.20000
    593.46,  2776.30000,  1204.60000
    593.93,  2735.80000,  1194.90000
    594.40,  2760.20000,  1194.70000
    594.86,  2786.20000,  1188.20000
    595.33,  2799.00000,  1188.90000
    595.80,  2824.60000,  1189.60000
    596.27,  2826.90000,  1196.00000
    596.74,  2801.00000,  1202.90000
    597.20,  2788.50000,  1212.90000
    597.67,  2798.30000,  1214.10000
    598.14,  2780.50000,  1214.80000
    598.61,  2777.00000,  1205.70000
    599.07,  2786.00000,  1194.50000
    599.54,  2775.60000,  1193.60000
    600.01,  2765.70000,  1195.00000
    600.48,  2820.50000,  1194.30000
    600.95,  2845.70000,  1201.00000
    601.41,  2852.90000,  1208.10000
    601.88,  2837.40000,  1199.80000
    602.35,  2777.60000,  1204.80000
    602.82,  2732.20000,  1194.90000
    603.28,  2745.10000,  1192.20000
    603.75,  2741.00000,  1189.80000
    604.22,  2761.60000,  1189.10000
    604.69,  2781.20000,  1180.90000
    605.15,  2795.40000,  1181.50000
    605.62,  2794.20000,  1178.90000
    606.09,  2793.10000,  1196.60000
    606.56,  2775.00000,  1194.10000
    607.02,  2778.40000,  1180.20000
    607.49,  2775.70000,  1166.60000
    607.96,  2796.80000,  1156.90000
    608.42,  2782.20000,  1161.40000
    608.89,  2830.30000,  1174.50000
    609.36,  2843.90000,  1176.10000
    609.83,  2833.90000,  1167.30000
    610.29,  2799.60000,  1165.00000
    610.76,  2774.20000,  1159.10000
    611.23,  2754.80000,  1166.10000
    611.69,  2788.50000,  1164.20000
    612.16,  2793.50000,  1170.00000
    612.63,  2797.50000,  1161.60000
    613.10,  2781.40000,  1155.80000
    613.56,  2759.10000,  1149.90000
    614.03,  2768.80000,  1146.80000
    614.50,  2778.50000,  1147.60000
    614.96,  2791.80000,  1156.30000
    615.43,  2801.70000,  1157.30000
    615.90,  2819.10000,  1155.90000
    616.36,  2807.30000,  1161.40000
    616.83,  2789.80000,  1147.50000
    617.30,  2782.20000,  1139.10000
    617.76,  2761.50000,  1135.60000
    618.23,  2746.30000,  1131.10000
    618.70,  2748.80000,  1133.90000
    619.16,  2762.20000,  1137.40000
    619.63,  2760.70000,  1137.20000
    620.10,  2765.90000,  1134.90000
    620.56,  2765.20000,  1134.40000
    621.03,  2792.10000,  1121.00000
    621.50,  2797.90000,  1119.30000
    621.96,  2806.60000,  1116.90000
    622.43,  2805.70000,  1121.10000
    622.90,  2809.00000,  1114.50000
    623.36,  2808.90000,  1116.30000
    623.83,  2807.80000,  1110.50000
    624.30,  2798.20000,  1112.20000
    624.76,  2793.60000,  1118.00000
    625.23,  2803.00000,  1120.90000
    625.70,  2813.50000,  1122.50000
    626.16,  2815.20000,  1117.20000
    626.63,  2780.90000,  1122.30000
    627.09,  2776.80000,  1117.20000
    627.56,  2784.40000,  1118.20000
    628.03,  2786.00000,  1113.50000
    628.49,  2790.90000,  1117.50000
    628.96,  2779.30000,  1100.30000
    629.43,  2775.00000,  1102.80000
    629.89,  2774.90000,  1095.70000
    630.36,  2784.10000,  1098.00000
    630.82,  2778.40000,  1097.20000
    631.29,  2778.90000,  1103.30000
    631.76,  2759.00000,  1103.90000
    632.22,  2753.80000,  1091.90000
    632.69,  2756.20000,  1082.80000
    633.15,  2775.70000,  1081.40000
    633.62,  2802.70000,  1086.10000
    634.09,  2821.90000,  1085.40000
    634.55,  2815.50000,  1097.40000
    635.02,  2793.80000,  1088.60000
    635.48,  2777.90000,  1094.40000
    635.95,  2765.20000,  1097.00000
    636.42,  2774.90000,  1094.90000
    636.88,  2773.60000,  1077.90000
    637.35,  2774.90000,  1072.00000
    637.81,  2788.30000,  1070.10000
    638.28,  2787.20000,  1077.30000
    638.74,  2795.10000,  1079.10000
    639.21,  2804.00000,  1071.20000
    639.68,  2784.60000,  1070.90000
    640.14,  2765.40000,  1069.60000
    640.61,  2775.40000,  1069.80000
    641.07,  2742.70000,  1076.90000
    641.54,  2757.80000,  1075.60000
    642.00,  2773.30000,  1067.80000
    642.47,  2790.20000,  1075.50000
    642.93,  2799.00000,  1073.00000
    643.40,  2807.40000,  1070.00000
    643.87,  2784.60000,  1079.40000
    644.33,  2788.90000,  1079.00000
    644.80,  2782.60000,  1084.20000
    645.26,  2767.10000,  1082.10000
    645.73,  2758.70000,  1073.70000
    646.19,  2759.20000,  1065.50000
    646.66,  2761.50000,  1065.70000
    647.12,  2755.90000,  1068.20000
    647.59,  2762.60000,  1076.50000
    648.05,  2770.00000,  1077.60000
    648.52,  2763.80000,  1079.50000
    648.98,  2767.00000,  1078.80000
    649.45,  2752.40000,  1082.60000
    649.91,  2730.30000,  1087.20000
    650.38,  2726.20000,  1090.80000
    650.84,  2772.60000,  1085.00000
    651.31,  2772.00000,  1081.20000
    651.77,  2776.10000,  1079.10000
    652.24,  2759.30000,  1072.20000
    652.70,  2745.40000,  1071.20000
    653.17,  2727.30000,  1076.50000
    653.63,  2760.50000,  1076.20000
    654.10,  2753.50000,  1074.40000
    654.56,  2764.70000,  1070.60000
    655.03,  2758.40000,  1062.10000
    655.49,  2769.10000,  1059.50000
    655.96,  2763.20000,  1071.50000
    656.42,  2754.70000,  1084.80000
    656.89,  2740.80000,  1083.60000
    657.35,  2795.60000,  1080.40000
    657.82,  2835.20000,  1070.00000
    658.28,  2868.50000,  1060.80000
    658.75,  2875.00000,  1068.30000
    659.21,  2833.30000,  1069.70000
    659.68,  2805.00000,  1063.60000
    660.14,  2796.90000,  1063.60000
    660.61,  2766.20000,  1051.00000
    661.07,  2796.30000,  1049.80000
    661.53,  2812.30000,  1045.50000
    662.00,  2833.50000,  1042.30000
    662.46,  2830.10000,  1035.90000
    662.93,  2808.00000,  1045.30000
    663.39,  2769.60000,  1053.10000
    663.86,  2799.90000,  1059.10000
    664.32,  2798.60000,  1048.70000
    664.79,  2824.60000,  1042.30000
    665.25,  2811.20000,  1035.00000
    665.71,  2792.90000,  1040.20000
    666.18,  2750.10000,  1051.70000
    666.64,  2780.10000,  1046.00000
    667.11,  2774.60000,  1046.50000
    667.57,  2797.50000,  1042.80000
    668.04,  2806.20000,  1048.80000
    668.50,  2798.60000,  1045.00000
    668.96,  2776.00000,  1040.70000
    669.43,  2809.10000,  1024.90000
    669.89,  2785.30000,  1024.00000
    670.36,  2768.70000,  1020.30000
    670.82,  2763.60000,  1024.80000
    671.28,  2764.10000,  1020.20000
    671.75,  2769.30000,  1012.30000
    672.21,  2798.20000,  1010.60000
    672.68,  2799.10000,  1015.10000
    673.14,  2810.00000,  1016.40000
    673.60,  2839.80000,  1009.30000
    674.07,  2823.60000,  1003.50000
    674.53,  2793.50000,   998.50000
    675.00,  2774.00000,  1011.90000
    675.46,  2748.80000,  1019.90000
    675.92,  2743.60000,  1027.40000
    676.39,  2782.80000,  1027.10000
    676.85,  2789.60000,  1021.60000
    677.31,  2799.20000,  1015.40000
    677.78,  2804.10000,  1005.50000
    678.24,  2795.00000,   985.10000
    678.70,  2779.70000,   982.80000
    679.17,  2761.20000,   991.40000
    679.63,  2737.60000,   995.10000
    680.10,  2727.10000,  1006.60000
    680.56,  2748.00000,  1005.30000
    681.02,  2754.70000,   992.10000
    681.49,  2787.30000,   991.00000
    681.95,  2780.70000,   999.10000
    682.41,  2774.00000,   994.90000
    682.88,  2761.80000,   997.10000
    683.34,  2760.40000,   992.00000
    683.80,  2744.10000,   986.70000
    684.27,  2763.90000,   992.70000
    684.73,  2770.30000,   991.70000
    685.19,  2794.80000,   989.80000
    685.66,  2822.30000,   981.30000
    686.12,  2819.70000,   974.40000
    686.58,  2838.80000,   967.50000
    687.05,  2832.00000,   970.40000
    687.51,  2815.90000,   963.70000
    687.97,  2803.00000,   968.60000
    688.44,  2798.30000,   971.10000
    688.90,  2787.10000,   981.40000
    689.36,  2792.10000,   983.40000
    689.83,  2794.40000,   989.30000
    690.29,  2806.30000,   984.20000
    690.75,  2819.90000,   976.90000
    691.21,  2824.90000,   976.70000
    691.68,  2807.20000,   973.20000
    692.14,  2772.60000,   979.90000
    692.60,  2783.20000,   988.00000
    693.07,  2774.70000,   981.90000
    693.53,  2798.80000,   967.90000
    693.99,  2813.70000,   964.80000
    694.45,  2808.50000,   963.00000
    694.92,  2819.10000,   962.70000
    695.38,  2829.00000,   972.00000
    695.84,  2816.30000,   967.50000
    696.31,  2798.40000,   973.50000
    696.77,  2801.80000,   976.80000
    697.23,  2782.60000,   992.40000
    697.69,  2785.60000,   982.90000
    698.16,  2772.60000,   975.90000
    698.62,  2767.40000,   959.30000
    699.08,  2749.10000,   955.70000
    699.54,  2760.30000,   943.70000
    700.01,  2748.70000,   950.10000
    700.47,  2731.50000,   960.40000
    700.93,  2734.10000,   960.70000
    701.39,  2742.20000,   969.30000
    701.86,  2763.00000,   964.90000
    702.32,  2769.70000,   959.20000
    702.78,  2777.10000,   952.10000
    703.24,  2770.40000,   960.60000
    703.71,  2782.60000,   949.70000
    704.17,  2790.80000,   959.00000
    704.63,  2783.50000,   953.30000
    705.09,  2766.20000,   958.20000
    705.56,  2789.30000,   948.80000
    706.02,  2798.10000,   952.50000
    706.48,  2782.80000,   951.30000
    706.94,  2776.70000,   955.80000
    707.40,  2746.70000,   961.70000
    707.87,  2741.60000,   965.30000
    708.33,  2761.50000,   949.80000
    708.79,  2754.00000,   950.10000
    709.25,  2728.40000,   943.50000
    709.72,  2737.60000,   943.90000
    710.18,  2753.40000,   946.10000
    710.64,  2756.40000,   940.70000
    711.10,  2757.20000,   937.00000
    711.56,  2770.80000,   933.80000
    712.03,  2788.80000,   942.70000
    712.49,  2804.60000,   950.50000
    712.95,  2821.70000,   947.70000
    713.41,  2800.20000,   948.50000
    713.87,  2796.50000,   938.60000
    714.33,  2798.90000,   930.50000
    714.80,  2791.30000,   935.40000
    715.26,  2748.00000,   935.90000
    715.72,  2746.60000,   934.50000
    716.18,  2743.90000,   933.60000
    716.64,  2762.20000,   928.40000
    717.11,  2766.00000,   930.30000
    717.57,  2761.90000,   935.00000
    718.03,  2733.40000,   939.10000
    718.49,  2739.20000,   949.90000
    718.95,  2780.70000,   952.20000
    719.41,  2784.90000,   954.60000
    719.87,  2764.80000,   945.50000
    720.34,  2761.90000,   933.40000
    720.80,  2757.20000,   923.60000
    721.26,  2748.20000,   934.80000
    721.72,  2780.40000,   935.10000
    722.18,  2760.80000,   938.90000
    722.64,  2734.10000,   934.60000
    723.10,  2750.90000,   915.30000
    723.57,  2754.90000,   924.10000
    724.03,  2761.80000,   936.30000
    724.49,  2761.00000,   940.20000
    724.95,  2726.20000,   937.40000
    725.41,  2779.00000,   945.40000
    725.87,  2837.00000,   932.10000
    726.33,  2855.60000,   935.60000
    726.80,  2864.40000,   925.40000
    727.26,  2824.10000,   913.50000
    727.72,  2745.30000,   902.50000
    728.18,  2749.10000,   916.90000
    728.64,  2737.20000,   932.00000
    729.10,  2748.30000,   940.20000
    729.56,  2772.10000,   936.50000
    730.02,  2799.20000,   925.90000
    730.48,  2800.20000,   918.50000
    730.94,  2788.80000,   917.30000
    731.41,  2767.80000,   932.20000
    731.87,  2744.40000,   938.00000
    732.33,  2720.10000,   942.50000
    732.79,  2758.40000,   931.50000
    733.25,  2763.20000,   928.80000
    733.71,  2782.40000,   915.80000
    734.17,  2804.60000,   903.90000
    734.63,  2779.10000,   905.30000
    735.09,  2753.60000,   902.50000
    735.55,  2751.90000,   904.30000
    736.01,  2731.30000,   912.80000
    736.47,  2743.40000,   911.30000
    736.94,  2748.80000,   916.30000
    737.40,  2753.10000,   931.80000
    737.86,  2755.80000,   928.00000
    738.32,  2762.00000,   922.70000
    738.78,  2774.40000,   910.40000
    739.24,  2773.30000,   900.50000
    739.70,  2765.40000,   903.30000
    740.16,  2791.40000,   905.10000
    740.62,  2802.00000,   901.90000
    741.08,  2823.00000,   902.30000
    741.54,  2805.70000,   916.80000
    742.00,  2787.50000,   915.10000
    742.46,  2753.10000,   922.60000
    742.92,  2730.00000,   914.60000
    743.38,  2726.50000,   910.70000
    743.84,  2728.10000,   915.70000
    744.30,  2737.50000,   926.20000
    744.76,  2753.00000,   924.20000
    745.22,  2748.90000,   929.40000
    745.68,  2731.40000,   924.50000
    746.14,  2727.30000,   925.30000
    746.60,  2737.90000,   921.30000
    747.06,  2754.90000,   914.40000
    747.52,  2736.70000,   914.90000
    747.98,  2755.90000,   910.00000
    748.44,  2760.60000,   909.60000
    748.90,  2756.00000,   906.00000
    749.36,  2761.80000,   910.10000
    749.82,  2769.00000,   908.60000
    750.28,  2771.60000,   915.30000
    750.74,  2796.90000,   917.10000
    751.20,  2805.60000,   910.70000
    751.66,  2790.30000,   896.00000
    752.12,  2766.60000,   903.70000
    752.58,  2766.80000,   906.90000
    753.04,  2781.00000,   918.20000
    753.50,  2801.90000,   931.60000
    753.96,  2788.20000,   930.80000
    754.42,  2755.80000,   925.50000
    754.88,  2734.80000,   917.00000
    755.34,  2734.90000,   915.30000
    755.80,  2757.80000,   921.70000
    756.26,  2775.20000,   926.30000
    756.72,  2773.80000,   932.50000
    757.18,  2767.30000,   938.20000
    757.64,  2760.90000,   914.10000
    758.10,  2733.20000,   906.50000
    758.56,  2716.60000,   899.80000
    759.02,  2730.90000,   894.00000
    759.48,  2738.10000,   900.00000
    759.94,  2759.10000,   910.70000
    760.40,  2766.00000,   906.70000
    760.86,  2755.90000,   909.30000
    761.32,  2752.70000,   913.40000
    761.78,  2776.30000,   917.30000
    762.24,  2758.00000,   917.80000
    762.70,  2764.30000,   918.70000
    763.15,  2754.30000,   913.30000
    763.61,  2757.80000,   905.70000
    764.07,  2767.00000,   909.80000
    764.53,  2767.20000,   916.40000
    764.99,  2775.10000,   917.20000
    765.45,  2792.60000,   912.10000
    765.91,  2773.30000,   913.30000
    766.37,  2751.50000,   913.40000
    766.83,  2728.00000,   913.20000
    767.29,  2733.10000,   910.10000
    767.75,  2747.40000,   910.10000
    768.21,  2775.50000,   900.20000
    768.66,  2783.80000,   904.80000
    769.12,  2785.00000,   908.70000
    769.58,  2767.80000,   911.20000
    770.04,  2756.00000,   913.40000
    770.50,  2717.50000,   930.10000
    770.96,  2699.30000,   931.10000
    771.42,  2725.00000,   922.00000
    771.88,  2738.20000,   920.90000
    772.34,  2757.10000,   913.50000
    772.80,  2747.70000,   911.50000
    773.25,  2724.90000,   910.10000
    773.71,  2713.70000,   905.40000
    774.17,  2709.10000,   891.40000
    774.63,  2728.00000,   900.00000
    775.09,  2747.00000,   909.30000
    775.55,  2735.60000,   908.70000
    776.01,  2714.10000,   899.00000
    776.47,  2708.20000,   908.40000
    776.92,  2686.40000,   905.80000
    777.38,  2714.10000,   920.30000
    777.84,  2721.40000,   922.00000
    778.30,  2722.20000,   906.50000
    778.76,  2713.20000,   896.30000
    779.22,  2730.90000,   910.00000
    779.68,  2732.00000,   920.60000
    780.13,  2742.50000,   930.10000
    780.59,  2724.50000,   925.30000
    781.05,  2712.70000,   915.00000
    781.51,  2716.50000,   910.70000
    781.97,  2732.70000,   912.90000
    782.43,  2742.30000,   917.70000
    782.88,  2758.90000,   915.40000
    783.34,  2748.30000,   908.40000
    783.80,  2751.60000,   900.80000
    784.26,  2767.70000,   899.50000
    784.72,  2750.40000,   908.90000
    785.18,  2737.40000,   911.90000
    785.63,  2720.70000,   918.40000
    786.09,  2738.20000,   914.50000
    786.55,  2774.50000,   911.10000
    787.01,  2796.10000,   909.80000
    787.47,  2770.40000,   913.30000
    787.92,  2748.30000,   906.40000
    788.38,  2721.60000,   910.80000
    788.84,  2715.40000,   910.20000
    789.30,  2726.00000,   914.00000
    789.76,  2731.90000,   913.80000
    790.21,  2725.20000,   921.70000
    790.67,  2715.30000,   922.30000
    791.13,  2713.80000,   924.30000
    791.59,  2694.20000,   926.20000
    792.05,  2697.10000,   915.50000
    792.50,  2716.30000,   903.80000
    792.96,  2744.40000,   895.50000
    793.42,  2721.10000,   899.90000
    793.88,  2731.50000,   905.20000
    794.33,  2706.80000,   917.40000
    794.79,  2707.20000,   914.90000
    795.25,  2714.70000,   916.70000
    795.71,  2737.30000,   895.40000
    796.17,  2734.20000,   901.50000
    796.62,  2736.40000,   900.30000
    797.08,  2706.50000,   904.60000
    797.54,  2700.70000,   907.00000
    798.00,  2698.00000,   907.10000
    798.45,  2716.10000,   892.50000
    798.91,  2730.40000,   892.10000
    799.37,  2734.30000,   895.60000
    799.83,  2725.50000,   906.20000
    800.28,  2703.80000,   921.20000
    800.74,  2696.00000,   918.20000
    801.20,  2716.90000,   899.50000
    801.66,  2704.10000,   884.20000
    802.11,  2718.20000,   877.50000
    802.57,  2735.00000,   881.80000
    803.03,  2716.80000,   892.70000
    803.48,  2698.50000,   898.80000
    803.94,  2755.50000,   895.60000
    804.40,  2764.90000,   899.50000
    804.86,  2786.80000,   898.10000
    805.31,  2775.20000,   903.70000
    805.77,  2727.70000,   903.80000
    806.23,  2673.40000,   897.80000
    806.69,  2702.70000,   895.40000
    807.14,  2708.10000,   894.90000
    807.60,  2735.70000,   886.50000
    808.06,  2740.20000,   898.30000
    808.51,  2735.00000,   905.90000
    808.97,  2704.50000,   905.30000
    809.43,  2699.10000,   916.50000
    809.88,  2698.40000,   914.50000
    810.34,  2696.10000,   899.60000
    810.80,  2717.70000,   894.10000
    811.26,  2730.30000,   891.30000
    811.71,  2714.40000,   885.70000
    812.17,  2728.70000,   897.20000
    812.63,  2727.90000,   890.90000
    813.08,  2706.50000,   891.60000
    813.54,  2715.00000,   885.30000
    814.00,  2721.60000,   896.60000
    814.45,  2716.80000,   897.60000
    814.91,  2734.20000,   904.00000
    815.37,  2717.50000,   896.70000
    815.82,  2701.60000,   902.30000
    816.28,  2690.50000,   894.10000
    816.74,  2693.80000,   898.80000
    817.19,  2668.40000,   901.50000
    817.65,  2683.80000,   900.10000
    818.11,  2711.80000,   888.50000
    818.56,  2727.60000,   884.20000
    819.02,  2722.40000,   882.40000
    819.48,  2728.40000,   879.80000
    819.93,  2678.40000,   888.90000
    820.39,  2689.40000,   889.90000
    820.84,  2729.30000,   873.30000
    821.30,  2748.50000,   869.70000
    821.76,  2751.70000,   871.60000
    822.21,  2758.20000,   874.10000
    822.67,  2724.60000,   884.10000
    823.13,  2685.30000,   889.00000
    823.58,  2718.90000,   889.20000
    824.04,  2743.70000,   884.50000
    824.49,  2739.90000,   883.20000
    824.95,  2751.50000,   875.30000
    825.41,  2756.00000,   871.80000
    825.86,  2729.40000,   867.70000
    826.32,  2760.10000,   871.50000
    826.78,  2744.40000,   866.60000
    827.23,  2707.00000,   875.40000
    827.69,  2690.70000,   875.50000
    828.14,  2694.90000,   880.10000
    828.60,  2713.60000,   881.10000
    829.06,  2734.20000,   891.40000
    829.51,  2726.60000,   886.90000
    829.97,  2729.40000,   883.60000
    830.42,  2725.30000,   881.60000
    830.88,  2713.60000,   874.60000
    831.34,  2716.40000,   868.60000
    831.79,  2738.60000,   866.00000
    832.25,  2739.40000,   866.20000
    832.70,  2741.60000,   859.20000
    833.16,  2742.90000,   869.00000
    833.61,  2736.50000,   865.20000
    834.07,  2732.20000,   867.10000
    834.53,  2728.80000,   863.20000
    834.98,  2709.80000,   871.00000
    835.44,  2688.20000,   862.10000
    835.89,  2690.80000,   874.50000
    836.35,  2708.80000,   872.30000
    836.80,  2735.30000,   881.30000
    837.26,  2727.00000,   876.00000
    837.71,  2708.90000,   875.00000
    838.17,  2703.50000,   866.60000
    838.63,  2696.90000,   869.90000
    839.08,  2690.90000,   865.80000
    839.54,  2708.20000,   864.50000
    839.99,  2702.10000,   866.20000
    840.45,  2716.30000,   869.50000
    840.90,  2740.20000,   866.80000
    841.36,  2750.60000,   870.80000
    841.81,  2740.60000,   867.60000
    842.27,  2723.40000,   872.20000
    842.72,  2700.70000,   880.80000
    843.18,  2707.90000,   882.70000
    843.63,  2691.20000,   873.40000
    844.09,  2694.80000,   868.40000
    844.55,  2689.00000,   852.30000
    845.00,  2677.90000,   854.20000
    845.46,  2686.90000,   856.90000
    845.91,  2697.50000,   859.10000
    846.37,  2712.80000,   857.00000
    846.82,  2740.60000,   854.40000
    847.28,  2747.10000,   843.90000
    847.73,  2702.70000,   852.00000
    848.19,  2726.50000,   865.30000
    848.64,  2733.10000,   869.50000
    849.10,  2755.60000,   867.10000
    849.55,  2758.50000,   864.30000
    850.01,  2740.90000,   859.20000
    850.46,  2682.80000,   864.40000
    850.92,  2702.40000,   876.00000
    851.37,  2715.00000,   881.90000
    851.83,  2722.00000,   880.40000
    852.28,  2723.60000,   875.20000
    852.73,  2706.10000,   865.10000
    853.19,  2682.90000,   851.20000
    853.64,  2690.00000,   843.90000
    854.10,  2695.90000,   845.70000
    854.55,  2701.10000,   856.20000
    855.01,  2706.40000,   860.80000
    855.46,  2683.50000,   860.00000
    855.92,  2671.00000,   858.90000
    856.37,  2672.70000,   855.50000
    856.83,  2664.00000,   860.00000
    857.28,  2688.90000,   863.20000
    857.74,  2696.40000,   863.00000
    858.19,  2693.20000,   863.10000
    858.64,  2704.50000,   872.60000
    859.10,  2698.90000,   866.30000
    859.55,  2672.90000,   867.10000
    860.01,  2731.60000,   856.80000
    860.46,  2758.70000,   857.60000
    860.92,  2744.40000,   865.90000
    861.37,  2734.50000,   871.80000
    861.83,  2735.00000,   856.50000
    862.28,  2710.20000,   858.90000
    862.73,  2731.40000,   865.20000
    863.19,  2723.70000,   873.30000
    863.64,  2693.90000,   881.00000
    864.10,  2680.10000,   872.40000
    864.55,  2710.90000,   857.10000
    865.01,  2706.30000,   855.70000
    865.46,  2719.80000,   858.00000
    865.91,  2697.40000,   863.70000
    866.37,  2693.00000,   864.70000
    866.82,  2687.40000,   861.60000
    867.28,  2687.70000,   862.50000
    867.73,  2675.10000,   861.20000
    868.18,  2706.80000,   857.70000
    868.64,  2709.70000,   859.50000
    869.09,  2740.80000,   858.90000
    869.55,  2753.40000,   854.00000
    870.00,  2733.10000,   860.40000
    870.45,  2715.20000,   859.20000
    870.91,  2683.20000,   859.90000
    871.36,  2664.30000,   857.10000
    871.81,  2683.20000,   853.90000
    872.27,  2710.50000,   849.80000
    872.72,  2706.10000,   866.10000
    873.18,  2704.50000,   871.90000
    873.63,  2678.50000,   883.00000
    874.08,  2684.30000,   870.70000
    874.54,  2703.70000,   863.40000
    874.99,  2704.90000,   858.10000
    875.44,  2676.00000,   862.40000
    875.90,  2658.00000,   858.80000
    876.35,  2661.30000,   863.10000
    876.81,  2695.90000,   865.90000
    877.26,  2721.40000,   875.20000
    877.71,  2711.70000,   872.50000
    878.17,  2682.30000,   876.10000
    878.62,  2702.60000,   865.10000
    879.07,  2730.50000,   853.70000
    879.53,  2749.60000,   856.40000
    879.98,  2739.80000,   859.10000
    880.43,  2725.80000,   860.90000
    880.89,  2706.10000,   867.80000
    881.34,  2710.80000,   870.30000
    881.79,  2718.80000,   874.60000
    882.25,  2707.00000,   880.00000
    882.70,  2686.80000,   878.50000
    883.15,  2675.20000,   876.70000
    883.61,  2689.20000,   871.00000
    884.06,  2675.90000,   869.80000
    884.51,  2692.40000,   871.90000
    884.97,  2676.90000,   872.30000
    885.42,  2691.40000,   869.60000
    885.87,  2689.80000,   872.70000
    886.32,  2700.60000,   880.50000
    886.78,  2671.80000,   884.50000
    887.23,  2689.10000,   884.90000
    887.68,  2681.90000,   878.80000
    888.14,  2691.40000,   874.10000
    888.59,  2680.10000,   868.30000
    889.04,  2658.90000,   872.70000
    889.50,  2627.50000,   877.40000
    889.95,  2650.40000,   888.00000
    890.40,  2676.60000,   897.30000
    890.85,  2698.40000,   894.10000
    891.31,  2695.60000,   888.80000
    891.76,  2694.10000,   888.00000
    892.21,  2677.50000,   885.50000
    892.67,  2688.70000,   878.50000
    893.12,  2686.40000,   879.40000
    893.57,  2698.00000,   869.00000
    894.02,  2706.10000,   871.30000
    894.48,  2719.60000,   881.00000
    894.93,  2712.80000,   888.70000
    895.38,  2714.70000,   879.40000
    895.83,  2694.80000,   871.00000
    896.29,  2689.50000,   872.70000
    896.74,  2684.60000,   881.90000
    897.19,  2695.60000,   895.60000
    897.64,  2699.30000,   904.80000
    898.10,  2705.30000,   901.20000
    898.55,  2688.20000,   893.10000
    899.00,  2683.60000,   892.80000
    899.45,  2648.50000,   893.60000
    899.91,  2643.40000,   893.20000
    900.36,  2630.20000,   895.20000
    900.81,  2667.30000,   889.10000
    901.26,  2682.50000,   887.40000
    901.72,  2709.00000,   880.50000
    902.17,  2695.00000,   883.50000
    902.62,  2702.90000,   887.50000
    903.07,  2662.70000,   900.00000
    903.52,  2679.20000,   890.60000
    903.98,  2674.80000,   892.30000
    904.43,  2684.90000,   889.20000
    904.88,  2674.20000,   890.10000
    905.33,  2681.60000,   899.30000
    905.79,  2659.10000,   905.00000
    906.24,  2673.80000,   902.30000
    906.69,  2682.10000,   907.80000
    907.14,  2685.00000,   903.80000
    907.59,  2663.70000,   898.70000
    908.05,  2654.30000,   907.90000
    908.50,  2643.20000,   901.20000
    908.95,  2654.90000,   903.50000
    909.40,  2659.10000,   913.10000
    909.85,  2655.20000,   914.40000
    910.31,  2659.60000,   919.90000
    910.76,  2654.50000,   923.30000
    911.21,  2639.90000,   925.80000
    911.66,  2636.00000,   938.30000
    912.11,  2625.70000,   950.60000
    912.56,  2655.50000,   951.80000
    913.02,  2679.40000,   956.60000
    913.47,  2681.00000,   948.00000
    913.92,  2670.70000,   957.10000
    914.37,  2658.90000,   966.40000
    914.82,  2653.90000,   974.30000
    915.27,  2674.90000,   984.40000
    915.73,  2691.00000,   998.60000
    916.18,  2678.20000,  1008.20000
    916.63,  2663.30000,  1019.10000
    917.08,  2630.70000,  1018.50000
    917.53,  2665.80000,  1024.40000
    917.98,  2555.80000,  1037.50000
    918.44,  2903.40000,  1047.10000
    918.89,  3083.50000,  1064.80000
    919.34,  3135.90000,  1072.60000
    919.79,  3039.70000,  1084.20000
    920.24,  2878.30000,  1103.00000
    920.69,  2558.10000,  1135.40000
    921.14,  2692.70000,  1173.00000
    921.59,  2682.90000,  1217.50000
    922.05,  2671.80000,  1265.90000
    922.50,  2665.20000,  1312.70000
    922.95,  2683.00000,  1383.00000
    923.40,  2706.00000,  1467.00000
    923.85,  2714.10000,  1578.10000
    924.30,  2722.80000,  1709.50000
    924.75,  2707.30000,  1865.60000
    925.20,  2687.30000,  2025.70000
    925.66,  2668.30000,  2218.60000
    926.11,  2663.30000,  2430.00000
    926.56,  2667.00000,  2683.20000
    927.01,  2686.60000,  2965.80000
    927.46,  2689.30000,  3250.20000
    927.91,  2660.00000,  3555.40000
    928.36,  2634.50000,  3881.50000
    928.81,  2638.20000,  4229.60000
    929.26,  2656.70000,  4578.90000
    929.71,  2688.30000,  4912.90000
    930.16,  2713.10000,  5200.40000
    930.62,  2683.20000,  5480.30000
    931.07,  2668.40000,  5712.50000
    931.52,  2663.80000,  5903.30000
    931.97,  2672.30000,  6042.70000
    932.42,  2688.30000,  6178.50000
    932.87,  2697.50000,  6299.30000
    933.32,  2681.50000,  6398.00000
    933.77,  2695.00000,  6474.40000
    934.22,  2688.00000,  6540.50000
    934.67,  2699.70000,  6606.90000
    935.12,  2695.90000,  6698.10000
    935.57,  2672.40000,  6748.20000
    936.02,  2644.90000,  6728.90000
    936.47,  2661.80000,  6699.10000
    936.93,  2638.30000,  6707.80000
    937.38,  2641.00000,  6781.30000
    937.83,  2654.90000,  6916.40000
    938.28,  2656.00000,  7118.90000
    938.73,  2646.80000,  7365.00000
    939.18,  2666.00000,  7629.50000
    939.63,  2665.20000,  7875.70000
    940.08,  2677.00000,  8061.60000
    940.53,  2702.60000,  8218.30000
    940.98,  2700.20000,  8376.10000
    941.43,  2674.60000,  8472.50000
    941.88,  2666.40000,  8533.00000
    942.33,  2667.40000,  8539.10000
    942.78,  2660.40000,  8516.40000
    943.23,  2677.00000,  8546.40000
    943.68,  2678.90000,  8579.10000
    944.13,  2690.10000,  8543.50000
    944.58,  2702.30000,  8516.90000
    945.03,  2694.70000,  8530.30000
    945.48,  2666.40000,  8588.30000
    945.93,  2660.20000,  8654.40000
    946.38,  2665.90000,  8679.30000
    946.83,  2694.80000,  8667.30000
    947.28,  2710.90000,  8689.90000
    947.73,  2710.40000,  8762.60000
    948.18,  2684.40000,  8790.60000
    948.63,  2665.70000,  8741.90000
    949.08,  2657.60000,  8690.70000
    949.53,  2642.70000,  8618.30000
    949.98,  2631.80000,  8597.80000
    950.43,  2647.70000,  8597.10000
    950.88,  2656.50000,  8500.10000
    951.33,  2666.00000,  8360.10000
    951.78,  2694.20000,  8224.20000
    952.23,  2690.20000,  8077.10000
    952.68,  2675.60000,  7987.80000
    953.13,  2676.00000,  7951.70000
    953.58,  2676.90000,  7907.50000
    954.03,  2662.10000,  7860.00000
    954.48,  2654.30000,  7815.90000
    954.93,  2650.10000,  7756.70000
    955.38,  2639.30000,  7653.10000
    955.83,  2644.90000,  7507.70000
    956.28,  2646.10000,  7307.10000
    956.73,  2656.60000,  7062.50000
    957.18,  2654.90000,  6851.30000
    957.62,  2658.00000,  6648.10000
    958.07,  2667.30000,  6433.00000
    958.52,  2661.50000,  6283.10000
    958.97,  2652.80000,  6157.00000
    959.42,  2658.60000,  6021.80000
    959.87,  2648.20000,  5927.50000
    960.32,  2659.90000,  5770.60000
    960.77,  2683.50000,  5566.50000
    961.22,  2714.20000,  5411.20000
    961.67,  2733.00000,  5220.60000
    962.12,  2711.80000,  5024.80000
    962.57,  2679.20000,  4901.00000
    963.02,  2675.30000,  4791.60000
    963.47,  2654.90000,  4711.30000
    963.92,  2668.30000,  4674.90000
    964.36,  2675.10000,  4616.50000
    964.81,  2674.40000,  4539.00000
    965.26,  2685.80000,  4468.90000
    965.71,  2693.50000,  4412.80000
    966.16,  2678.50000,  4356.50000
    966.61,  2661.20000,  4270.60000
    967.06,  2645.20000,  4164.30000
    967.51,  2664.90000,  4020.80000
    967.96,  2680.20000,  3861.70000
    968.41,  2686.00000,  3706.70000
    968.85,  2682.90000,  3567.10000
    969.30,  2675.70000,  3395.90000
    969.75,  2679.90000,  3249.70000
    970.20,  2685.70000,  3113.10000
    970.65,  2694.20000,  3011.00000
    971.10,  2678.10000,  2913.90000
    971.55,  2679.30000,  2824.20000
    972.00,  2664.30000,  2716.50000
    972.44,  2647.20000,  2634.00000
    972.89,  2663.50000,  2560.90000
    973.34,  2685.40000,  2499.60000
    973.79,  2683.40000,  2447.30000
    974.24,  2699.20000,  2411.40000
    974.69,  2678.10000,  2384.00000
    975.14,  2641.20000,  2382.00000
    975.59,  2639.60000,  2402.70000
    976.03,  2628.00000,  2416.10000
    976.48,  2622.50000,  2448.20000
    976.93,  2622.60000,  2465.20000
    977.38,  2631.40000,  2462.20000
    977.83,  2621.30000,  2446.60000
    978.28,  2637.30000,  2425.20000
    978.72,  2654.70000,  2406.70000
    979.17,  2672.70000,  2396.00000
    979.62,  2681.20000,  2382.70000
    980.07,  2692.20000,  2370.90000
    980.52,  2675.30000,  2363.20000
    980.97,  2652.00000,  2375.20000
    981.41,  2610.80000,  2412.00000
    981.86,  2589.60000,  2425.20000
    982.31,  2607.80000,  2409.30000
    982.76,  2633.50000,  2348.30000
    983.21,  2677.10000,  2251.30000
    983.66,  2682.90000,  2154.20000
    984.10,  2655.60000,  2066.90000
    984.55,  2626.80000,  1986.40000
    985.00,  2612.90000,  1917.90000
    985.45,  2595.60000,  1845.70000
    985.90,  2613.70000,  1794.00000
    986.34,  2632.90000,  1749.80000
    986.79,  2624.40000,  1720.60000
    987.24,  2616.10000,  1695.60000
    987.69,  2597.40000,  1661.00000
    988.14,  2592.90000,  1614.60000
    988.58,  2612.70000,  1562.30000
    989.03,  2635.20000,  1500.30000
    989.48,  2645.70000,  1441.00000
    989.93,  2648.30000,  1386.50000
    990.38,  2628.70000,  1353.00000
    990.82,  2631.00000,  1336.00000
    991.27,  2640.30000,  1332.40000
    991.72,  2658.70000,  1326.50000
    992.17,  2639.10000,  1316.20000
    992.61,  2642.80000,  1294.40000
    993.06,  2628.70000,  1267.30000
    993.51,  2659.80000,  1233.80000
    993.96,  2668.00000,  1202.40000
    994.41,  2665.60000,  1168.20000
    994.85,  2638.00000,  1159.60000
    995.30,  2641.50000,  1152.10000
    995.75,  2630.00000,  1151.80000
    996.20,  2664.80000,  1145.80000
    996.64,  2657.50000,  1117.00000
    997.09,  2633.80000,  1084.30000
    997.54,  2628.80000,  1064.20000
    997.99,  2611.50000,  1053.50000
    998.43,  2601.70000,  1059.90000
    998.88,  2602.20000,  1062.70000
    999.33,  2610.60000,  1053.00000
    999.77,  2642.00000,  1038.60000
   1000.22,  2662.40000,  1030.70000
   1000.67,  2670.00000,  1034.80000
   1001.12,  2671.30000,  1035.30000
   1001.56,  2634.10000,  1039.90000
   1002.01,  2617.10000,  1033.80000
   1002.46,  2634.00000,  1022.90000
   1002.91,  2622.10000,  1013.60000
   1003.35,  2634.50000,  1018.30000
   1003.80,  2626.60000,  1009.60000
   1004.25,  2619.10000,  1014.50000
   1004.69,  2618.50000,  1015.50000
   1005.14,  2608.10000,  1007.40000
   1005.59,  2617.00000,   998.90000
   1006.04,  2645.30000,  1007.60000
   1006.48,  2660.20000,  1002.20000
   1006.93,  2685.30000,  1002.90000
   1007.38,  2675.30000,  1005.80000
   1007.82,  2628.10000,  1003.30000
   1008.27,  2603.20000,  1008.70000
   1008.72,  2587.30000,  1011.00000
   1009.16,  2587.10000,  1006.90000
   1009.61,  2607.00000,  1002.60000
   1010.06,  2614.70000,  1001.90000
   1010.50,  2644.50000,  1006.40000
   1010.95,  2665.60000,  1011.40000
   1011.40,  2668.50000,  1011.40000
   1011.85,  2648.70000,  1005.10000
   1012.29,  2643.90000,  1000.20000
   1012.74,  2612.00000,  1006.20000
   1013.19,  2607.20000,  1015.80000
   1013.63,  2644.50000,  1019.60000
   1014.08,  2662.90000,  1023.80000
   1014.53,  2659.80000,  1021.10000
   1014.97,  2655.90000,  1008.60000
   1015.42,  2637.50000,  1000.20000
   1015.86,  2602.40000,   994.00000
   1016.31,  2620.10000,   989.10000
   1016.76,  2638.10000,   992.20000
   1017.20,  2629.30000,   996.20000
   1017.65,  2606.80000,   998.00000
   1018.10,  2611.30000,   997.00000
   1018.54,  2588.20000,   999.70000
   1018.99,  2608.40000,  1000.30000
   1019.44,  2620.40000,  1000.30000
   1019.88,  2622.40000,   993.30000
   1020.33,  2611.50000,  1002.70000
   1020.78,  2625.20000,   992.00000
   1021.22,  2632.80000,   989.90000
   1021.67,  2636.80000,   987.50000
   1022.11,  2630.30000,   978.20000
   1022.56,  2625.20000,   984.30000
   1023.01,  2606.20000,   993.30000
   1023.45,  2595.60000,   985.80000
   1023.90,  2599.90000,   988.60000
   1024.34,  2584.00000,   994.60000
   1024.79,  2596.20000,   991.60000
   1025.24,  2615.70000,   992.50000
   1025.68,  2607.60000,   990.20000
   1026.13,  2609.30000,   987.90000
   1026.58,  2614.70000,   987.50000
   1027.02,  2628.70000,   990.80000
   1027.47,  2631.00000,   998.30000
   1027.91,  2636.20000,   995.10000
   1028.36,  2609.10000,  1001.30000
   1028.80,  2596.30000,  1016.00000
   1029.25,  2579.60000,  1017.60000
   1029.70,  2584.80000,  1020.00000
   1030.14,  2577.50000,  1022.40000
   1030.59,  2581.20000,  1006.00000
   1031.03,  2584.70000,   996.20000
   1031.48,  2595.00000,  1002.50000
   1031.93,  2622.70000,  1001.30000
   1032.37,  2639.40000,  1013.80000
   1032.82,  2640.90000,  1019.60000
   1033.26,  2645.10000,  1016.10000
   1033.71,  2623.30000,  1018.70000
   1034.15,  2611.30000,  1017.40000
   1034.60,  2607.10000,  1009.90000
   1035.05,  2613.40000,  1017.70000
   1035.49,  2604.80000,  1016.70000
   1035.94,  2610.70000,  1018.10000
   1036.38,  2581.00000,  1023.90000
   1036.83,  2559.20000,  1026.80000
   1037.27,  2540.90000,  1025.20000
   1037.72,  2548.90000,  1023.70000
   1038.16,  2652.30000,  1017.80000
   1038.61,  2730.00000,  1013.50000
   1039.05,  2740.10000,  1008.00000
   1039.50,  2719.40000,  1009.70000
   1039.95,  2659.90000,  1008.80000
   1040.39,  2600.90000,  1004.50000
   1040.84,  2609.60000,  1013.70000
   1041.28,  2615.00000,  1014.10000
   1041.73,  2605.70000,  1032.60000
   1042.17,  2608.10000,  1038.20000
   1042.62,  2606.30000,  1038.60000
   1043.06,  2622.50000,  1030.20000
   1043.51,  2598.90000,  1030.00000
   1043.95,  2606.90000,  1023.20000
   1044.40,  2602.70000,  1033.80000
   1044.84,  2590.50000,  1038.70000
   1045.29,  2584.40000,  1035.40000
   1045.73,  2596.50000,  1032.70000
   1046.18,  2584.00000,  1027.90000
   1046.62,  2575.50000,  1028.50000
   1047.07,  2569.20000,  1028.70000
   1047.51,  2552.70000,  1031.80000
   1047.96,  2583.00000,  1025.30000
   1048.40,  2629.30000,  1036.60000
   1048.85,  2644.50000,  1040.00000
   1049.29,  2629.30000,  1047.20000
   1049.74,  2582.90000,  1055.60000
   1050.18,  2549.00000,  1046.90000
   1050.63,  2554.60000,  1045.90000
   1051.07,  2578.40000,  1039.60000
   1051.52,  2600.50000,  1035.80000
   1051.96,  2595.80000,  1034.00000
   1052.41,  2572.60000,  1034.60000
   1052.85,  2568.30000,  1034.10000
   1053.30,  2555.30000,  1044.30000
   1053.74,  2555.70000,  1039.10000
   1054.18,  2561.90000,  1045.00000
   1054.63,  2540.20000,  1048.50000
   1055.07,  2529.20000,  1049.10000
   1055.52,  2532.60000,  1048.60000
   1055.96,  2528.60000,  1053.40000
   1056.41,  2523.50000,  1058.20000
   1056.85,  2522.60000,  1064.60000
   1057.30,  2518.10000,  1072.50000
   1057.74,  2523.70000,  1069.40000
   1058.18,  2530.70000,  1058.20000
   1058.63,  2507.20000,  1056.00000
   1059.07,  2504.00000,  1060.10000
   1059.52,  2510.80000,  1066.60000
   1059.96,  2510.90000,  1073.00000
   1060.41,  2513.40000,  1073.80000
   1060.85,  2518.90000,  1077.00000
   1061.30,  2503.10000,  1079.90000
   1061.74,  2496.10000,  1086.80000
   1062.18,  2495.30000,  1090.00000
   1062.63,  2473.30000,  1084.70000
   1063.07,  2468.00000,  1083.00000
   1063.52,  2470.40000,  1081.90000
   1063.96,  2487.20000,  1081.30000
   1064.40,  2491.20000,  1083.20000
   1064.85,  2495.40000,  1083.50000
   1065.29,  2471.20000,  1089.30000
   1065.74,  2454.30000,  1094.70000
   1066.18,  2424.00000,  1097.00000
