2D Measure spectrum data V5.74

<< MEASURE 1 >>
Data count = 2048
Exposure time = 30000 msec
Average = 10
Inspected time = 2020/10/23 18:21

Wave-dcm-1,Dark spec.  ,Spectrum
    108.17,  2236.40000,   634.50000
    108.66,  2242.80000,   625.50000
    109.15,  2247.50000,   624.80000
    109.65,  2270.30000,   613.20000
    110.14,  2282.10000,   609.10000
    110.63,  2278.90000,   606.40000
    111.13,  2299.20000,   592.50000
    111.62,  2289.60000,   583.10000
    112.11,  2300.50000,   579.30000
    112.60,  2323.40000,   579.50000
    113.10,  2315.70000,   579.80000
    113.59,  2330.50000,   581.10000
    114.08,  2352.40000,   575.80000
    114.58,  2342.90000,   575.40000
    115.07,  2387.30000,   568.50000
    115.56,  2398.90000,   576.00000
    116.06,  2390.60000,   577.50000
    116.55,  2393.40000,   574.50000
    117.04,  2380.40000,   573.00000
    117.53,  2360.50000,   572.60000
    118.03,  2397.30000,   569.60000
    118.52,  2404.70000,   569.90000
    119.01,  2405.00000,   572.20000
    119.51,  2493.40000,   572.30000
    120.00,  2576.40000,   590.70000
    120.49,  2610.40000,   605.00000
    120.98,  2606.10000,   631.20000
    121.48,  2529.30000,   640.40000
    121.97,  2426.30000,   659.50000
    122.46,  2417.30000,   666.40000
    122.95,  2443.30000,   681.50000
    123.45,  2481.50000,   690.60000
    123.94,  2480.40000,   720.20000
    124.43,  2504.50000,   732.40000
    124.92,  2527.50000,   754.50000
    125.42,  2521.70000,   768.10000
    125.91,  2538.40000,   780.40000
    126.40,  2537.60000,   786.10000
    126.89,  2507.10000,   802.90000
    127.39,  2501.00000,   816.20000
    127.88,  2495.80000,   830.60000
    128.37,  2491.90000,   847.00000
    128.86,  2510.40000,   867.40000
    129.35,  2510.60000,   882.80000
    129.85,  2518.50000,   903.40000
    130.34,  2508.50000,   922.30000
    130.83,  2510.20000,   940.40000
    131.32,  2520.70000,   952.10000
    131.81,  2528.80000,   953.00000
    132.31,  2529.60000,   956.10000
    132.80,  2529.30000,   955.50000
    133.29,  2511.80000,   950.10000
    133.78,  2515.50000,   964.50000
    134.27,  2528.80000,   986.20000
    134.77,  2546.00000,   990.30000
    135.26,  2566.60000,  1011.10000
    135.75,  2568.70000,  1013.30000
    136.24,  2582.30000,  1027.10000
    136.73,  2565.50000,  1041.70000
    137.23,  2574.60000,  1059.10000
    137.72,  2569.90000,  1058.50000
    138.21,  2566.20000,  1066.00000
    138.70,  2562.20000,  1062.20000
    139.19,  2596.50000,  1078.10000
    139.68,  2587.60000,  1080.10000
    140.18,  2592.00000,  1096.30000
    140.67,  2596.60000,  1104.80000
    141.16,  2592.90000,  1116.90000
    141.65,  2582.90000,  1123.00000
    142.14,  2581.00000,  1142.20000
    142.63,  2596.10000,  1158.50000
    143.13,  2593.80000,  1178.70000
    143.62,  2631.70000,  1194.90000
    144.11,  2638.00000,  1197.80000
    144.60,  2608.30000,  1197.60000
    145.09,  2601.40000,  1204.70000
    145.58,  2653.60000,  1222.40000
    146.07,  2662.00000,  1242.30000
    146.56,  2675.70000,  1262.70000
    147.06,  2664.90000,  1277.70000
    147.55,  2630.80000,  1295.90000
    148.04,  2588.80000,  1316.20000
    148.53,  2616.50000,  1342.00000
    149.02,  2589.00000,  1361.20000
    149.51,  2663.80000,  1380.00000
    150.00,  2722.60000,  1391.00000
    150.49,  2744.70000,  1414.70000
    150.99,  2741.10000,  1445.20000
    151.48,  2722.70000,  1476.10000
    151.97,  2642.00000,  1510.90000
    152.46,  2648.30000,  1543.00000
    152.95,  2630.10000,  1555.20000
    153.44,  2626.30000,  1577.50000
    153.93,  2645.30000,  1583.50000
    154.42,  2663.50000,  1586.90000
    154.91,  2646.40000,  1592.10000
    155.40,  2634.70000,  1597.80000
    155.89,  2620.40000,  1588.50000
    156.39,  2641.20000,  1595.30000
    156.88,  2619.50000,  1602.70000
    157.37,  2632.60000,  1615.30000
    157.86,  2637.60000,  1638.60000
    158.35,  2642.90000,  1678.10000
    158.84,  2651.20000,  1710.90000
    159.33,  2699.40000,  1738.40000
    159.82,  2710.40000,  1752.40000
    160.31,  2727.00000,  1762.20000
    160.80,  2761.60000,  1767.80000
    161.29,  2714.20000,  1765.60000
    161.78,  2675.90000,  1774.40000
    162.27,  2648.80000,  1777.70000
    162.76,  2644.70000,  1786.90000
    163.25,  2650.80000,  1804.90000
    163.74,  2686.30000,  1815.10000
    164.23,  2688.70000,  1813.40000
    164.72,  2715.50000,  1827.10000
    165.21,  2690.80000,  1840.90000
    165.70,  2676.80000,  1857.10000
    166.20,  2708.00000,  1874.40000
    166.69,  2723.30000,  1888.20000
    167.18,  2734.70000,  1888.80000
    167.67,  2735.30000,  1889.00000
    168.16,  2706.90000,  1875.80000
    168.65,  2664.80000,  1865.40000
    169.14,  2689.80000,  1852.20000
    169.63,  2690.60000,  1826.40000
    170.12,  2671.40000,  1833.80000
    170.61,  2686.60000,  1795.30000
    171.10,  2764.10000,  1759.70000
    171.59,  2773.80000,  1748.50000
    172.08,  2787.80000,  1744.30000
    172.57,  2770.80000,  1745.00000
    173.06,  2732.80000,  1791.10000
    173.55,  2714.20000,  1793.10000
    174.04,  2697.20000,  1794.00000
    174.53,  2689.50000,  1795.80000
    175.02,  2687.20000,  1794.00000
    175.50,  2712.00000,  1792.40000
    175.99,  2748.30000,  1778.90000
    176.48,  2774.90000,  1774.00000
    176.97,  2750.10000,  1762.80000
    177.46,  2751.60000,  1754.00000
    177.95,  2722.90000,  1749.30000
    178.44,  2706.80000,  1748.80000
    178.93,  2687.40000,  1738.60000
    179.42,  2701.70000,  1749.20000
    179.91,  2712.20000,  1748.50000
    180.40,  2718.70000,  1761.30000
    180.89,  2728.30000,  1772.00000
    181.38,  2721.80000,  1776.70000
    181.87,  2716.60000,  1776.80000
    182.36,  2712.00000,  1787.50000
    182.85,  2685.60000,  1783.40000
    183.34,  2699.10000,  1788.70000
    183.83,  2702.80000,  1790.50000
    184.32,  2697.60000,  1782.40000
    184.81,  2746.80000,  1763.60000
    185.29,  2749.20000,  1754.20000
    185.78,  2736.30000,  1723.60000
    186.27,  2746.60000,  1710.90000
    186.76,  2730.30000,  1710.50000
    187.25,  2695.90000,  1708.90000
    187.74,  2764.10000,  1709.60000
    188.23,  2787.30000,  1720.60000
    188.72,  2818.50000,  1704.30000
    189.21,  2803.50000,  1713.40000
    189.70,  2773.50000,  1715.40000
    190.19,  2739.40000,  1730.00000
    190.67,  2727.50000,  1736.40000
    191.16,  2725.90000,  1743.70000
    191.65,  2722.70000,  1742.80000
    192.14,  2703.80000,  1741.60000
    192.63,  2730.40000,  1731.00000
    193.12,  2749.40000,  1732.30000
    193.61,  2734.30000,  1726.70000
    194.10,  2750.90000,  1729.10000
    194.59,  2734.80000,  1737.40000
    195.07,  2725.20000,  1741.50000
    195.56,  2744.80000,  1746.10000
    196.05,  2729.60000,  1745.50000
    196.54,  2718.40000,  1743.40000
    197.03,  2742.10000,  1741.20000
    197.52,  2785.50000,  1734.40000
    198.01,  2789.50000,  1734.90000
    198.49,  2794.70000,  1734.50000
    198.98,  2782.30000,  1728.50000
    199.47,  2746.30000,  1713.20000
    199.96,  2734.70000,  1716.80000
    200.45,  2750.70000,  1720.40000
    200.94,  2728.30000,  1723.40000
    201.43,  2735.10000,  1726.00000
    201.91,  2725.60000,  1723.70000
    202.40,  2716.60000,  1711.50000
    202.89,  2712.30000,  1725.00000
    203.38,  2726.80000,  1739.20000
    203.87,  2729.80000,  1741.00000
    204.36,  2726.10000,  1741.30000
    204.84,  2720.20000,  1747.40000
    205.33,  2731.10000,  1742.30000
    205.82,  2743.20000,  1751.60000
    206.31,  2737.90000,  1762.10000
    206.80,  2736.50000,  1768.10000
    207.28,  2749.00000,  1772.00000
    207.77,  2763.50000,  1772.80000
    208.26,  2777.70000,  1772.90000
    208.75,  2785.20000,  1777.90000
    209.24,  2761.10000,  1789.00000
    209.72,  2761.60000,  1812.30000
    210.21,  2769.70000,  1830.70000
    210.70,  2753.20000,  1832.00000
    211.19,  2775.10000,  1834.00000
    211.68,  2785.90000,  1839.40000
    212.16,  2790.00000,  1853.00000
    212.65,  2790.30000,  1873.00000
    213.14,  2773.00000,  1891.70000
    213.63,  2757.70000,  1903.60000
    214.12,  2742.40000,  1907.60000
    214.60,  2762.10000,  1916.50000
    215.09,  2786.50000,  1927.40000
    215.58,  2789.60000,  1924.20000
    216.07,  2789.60000,  1935.70000
    216.55,  2790.20000,  1948.10000
    217.04,  2722.70000,  1958.60000
    217.53,  2724.10000,  1975.80000
    218.02,  2718.80000,  2003.80000
    218.50,  2721.20000,  2035.90000
    218.99,  2739.10000,  2073.40000
    219.48,  2765.60000,  2093.00000
    219.97,  2735.20000,  2102.40000
    220.45,  2753.30000,  2101.90000
    220.94,  2744.30000,  2117.00000
    221.43,  2754.30000,  2137.50000
    221.92,  2772.10000,  2159.50000
    222.40,  2770.80000,  2173.50000
    222.89,  2763.90000,  2181.60000
    223.38,  2789.10000,  2173.40000
    223.86,  2801.90000,  2189.00000
    224.35,  2826.60000,  2177.00000
    224.84,  2835.50000,  2168.60000
    225.33,  2813.50000,  2166.00000
    225.81,  2783.60000,  2152.20000
    226.30,  2763.40000,  2136.20000
    226.79,  2754.80000,  2127.30000
    227.27,  2752.30000,  2097.70000
    227.76,  2761.30000,  2074.00000
    228.25,  2782.20000,  2064.80000
    228.74,  2798.20000,  2040.60000
    229.22,  2814.20000,  2019.00000
    229.71,  2805.40000,  1996.00000
    230.20,  2793.60000,  1959.90000
    230.68,  2786.60000,  1929.00000
    231.17,  2778.40000,  1904.80000
    231.66,  2751.90000,  1876.20000
    232.14,  2746.20000,  1850.90000
    232.63,  2730.60000,  1842.80000
    233.12,  2741.60000,  1828.90000
    233.60,  2763.40000,  1807.50000
    234.09,  2744.30000,  1794.60000
    234.58,  2726.80000,  1787.10000
    235.06,  2733.70000,  1764.80000
    235.55,  2730.90000,  1749.50000
    236.04,  2719.70000,  1745.20000
    236.52,  2748.20000,  1718.40000
    237.01,  2735.50000,  1708.20000
    237.50,  2770.20000,  1702.60000
    237.98,  2763.50000,  1687.90000
    238.47,  2811.90000,  1677.30000
    238.96,  2813.00000,  1675.70000
    239.44,  2812.60000,  1648.70000
    239.93,  2810.60000,  1640.40000
    240.41,  2773.80000,  1633.80000
    240.90,  2704.20000,  1632.90000
    241.39,  2726.20000,  1642.20000
    241.87,  2763.90000,  1639.30000
    242.36,  2785.70000,  1619.00000
    242.85,  2828.10000,  1608.40000
    243.33,  2819.60000,  1600.20000
    243.82,  2789.10000,  1592.10000
    244.30,  2762.60000,  1602.50000
    244.79,  2771.80000,  1599.40000
    245.28,  2756.30000,  1593.60000
    245.76,  2756.60000,  1593.00000
    246.25,  2736.40000,  1592.40000
    246.74,  2751.90000,  1585.90000
    247.22,  2779.10000,  1591.10000
    247.71,  2779.70000,  1584.70000
    248.19,  2770.30000,  1580.50000
    248.68,  2773.10000,  1584.60000
    249.16,  2739.50000,  1585.20000
    249.65,  2767.30000,  1584.70000
    250.14,  2783.90000,  1583.80000
    250.62,  2754.10000,  1582.30000
    251.11,  2735.00000,  1578.40000
    251.59,  2723.20000,  1569.70000
    252.08,  2713.80000,  1576.00000
    252.57,  2731.50000,  1573.40000
    253.05,  2736.40000,  1575.00000
    253.54,  2767.00000,  1577.50000
    254.02,  2793.10000,  1573.70000
    254.51,  2805.80000,  1560.80000
    254.99,  2792.80000,  1572.90000
    255.48,  2766.20000,  1573.10000
    255.96,  2739.10000,  1575.40000
    256.45,  2766.00000,  1576.30000
    256.94,  2776.10000,  1569.70000
    257.42,  2781.60000,  1549.10000
    257.91,  2780.50000,  1553.30000
    258.39,  2781.40000,  1559.70000
    258.88,  2765.00000,  1571.00000
    259.36,  2777.70000,  1588.00000
    259.85,  2773.10000,  1588.30000
    260.33,  2781.50000,  1582.00000
    260.82,  2802.60000,  1579.40000
    261.30,  2823.20000,  1571.70000
    261.79,  2798.30000,  1583.40000
    262.27,  2775.00000,  1597.40000
    262.76,  2759.70000,  1598.00000
    263.24,  2755.00000,  1608.30000
    263.73,  2777.40000,  1614.60000
    264.22,  2777.50000,  1614.10000
    264.70,  2834.70000,  1630.40000
    265.19,  2859.70000,  1647.50000
    265.67,  2866.70000,  1647.80000
    266.16,  2839.00000,  1649.40000
    266.64,  2814.90000,  1642.80000
    267.13,  2752.00000,  1638.80000
    267.61,  2751.50000,  1649.30000
    268.10,  2773.90000,  1653.30000
    268.58,  2776.60000,  1659.40000
    269.06,  2771.00000,  1663.10000
    269.55,  2791.00000,  1662.50000
    270.03,  2803.40000,  1673.20000
    270.52,  2796.40000,  1687.30000
    271.00,  2807.10000,  1691.30000
    271.49,  2801.10000,  1699.60000
    271.97,  2795.00000,  1707.60000
    272.46,  2803.70000,  1707.90000
    272.94,  2810.60000,  1713.30000
    273.43,  2801.10000,  1722.50000
    273.91,  2775.80000,  1732.50000
    274.40,  2769.70000,  1738.50000
    274.88,  2758.70000,  1745.80000
    275.37,  2763.00000,  1744.10000
    275.85,  2755.70000,  1747.60000
    276.33,  2753.20000,  1766.50000
    276.82,  2765.30000,  1772.60000
    277.30,  2777.70000,  1781.90000
    277.79,  2777.20000,  1788.90000
    278.27,  2789.50000,  1786.90000
    278.76,  2799.40000,  1784.50000
    279.24,  2805.20000,  1791.50000
    279.73,  2803.00000,  1789.10000
    280.21,  2796.40000,  1782.50000
    280.69,  2780.40000,  1792.10000
    281.18,  2775.70000,  1806.10000
    281.66,  2790.80000,  1817.60000
    282.15,  2820.50000,  1834.90000
    282.63,  2812.80000,  1831.30000
    283.11,  2802.10000,  1815.20000
    283.60,  2802.90000,  1813.70000
    284.08,  2814.40000,  1808.50000
    284.57,  2796.60000,  1804.20000
    285.05,  2803.10000,  1800.80000
    285.53,  2785.50000,  1791.30000
    286.02,  2752.50000,  1791.10000
    286.50,  2766.10000,  1796.40000
    286.99,  2783.50000,  1791.30000
    287.47,  2765.30000,  1790.60000
    287.95,  2759.10000,  1785.30000
    288.44,  2756.30000,  1770.40000
    288.92,  2754.80000,  1755.40000
    289.41,  2771.30000,  1751.60000
    289.89,  2800.50000,  1745.90000
    290.37,  2802.20000,  1754.40000
    290.86,  2818.50000,  1761.40000
    291.34,  2785.10000,  1746.50000
    291.82,  2772.90000,  1723.70000
    292.31,  2757.80000,  1699.40000
    292.79,  2775.70000,  1689.30000
    293.28,  2777.40000,  1684.70000
    293.76,  2779.80000,  1679.60000
    294.24,  2777.00000,  1666.50000
    294.73,  2796.00000,  1644.10000
    295.21,  2807.10000,  1628.50000
    295.69,  2813.20000,  1632.50000
    296.18,  2789.00000,  1628.10000
    296.66,  2746.40000,  1620.00000
    297.14,  2750.50000,  1604.70000
    297.63,  2767.30000,  1585.40000
    298.11,  2781.60000,  1578.50000
    298.59,  2806.20000,  1572.70000
    299.08,  2810.90000,  1567.30000
    299.56,  2809.90000,  1557.70000
    300.04,  2834.30000,  1547.40000
    300.53,  2844.50000,  1532.70000
    301.01,  2835.90000,  1522.70000
    301.49,  2822.10000,  1516.90000
    301.98,  2791.30000,  1508.30000
    302.46,  2761.60000,  1496.10000
    302.94,  2764.00000,  1483.30000
    303.42,  2766.50000,  1476.20000
    303.91,  2754.00000,  1474.40000
    304.39,  2736.40000,  1472.00000
    304.87,  2736.00000,  1473.00000
    305.36,  2747.30000,  1463.10000
    305.84,  2779.80000,  1451.50000
    306.32,  2822.30000,  1428.40000
    306.81,  2815.50000,  1414.80000
    307.29,  2796.20000,  1397.30000
    307.77,  2790.00000,  1386.60000
    308.25,  2786.20000,  1385.80000
    308.74,  2798.50000,  1388.70000
    309.22,  2792.70000,  1379.90000
    309.70,  2774.30000,  1379.80000
    310.18,  2759.60000,  1385.00000
    310.67,  2772.80000,  1374.40000
    311.15,  2787.50000,  1366.70000
    311.63,  2801.10000,  1358.70000
    312.12,  2806.00000,  1345.30000
    312.60,  2777.90000,  1338.60000
    313.08,  2753.10000,  1342.20000
    313.56,  2741.30000,  1350.90000
    314.05,  2743.90000,  1340.70000
    314.53,  2762.30000,  1339.70000
    315.01,  2822.80000,  1323.60000
    315.49,  2817.40000,  1317.00000
    315.98,  2823.50000,  1307.60000
    316.46,  2796.50000,  1311.50000
    316.94,  2760.60000,  1300.40000
    317.42,  2744.60000,  1307.40000
    317.90,  2753.40000,  1295.90000
    318.39,  2730.80000,  1294.10000
    318.87,  2781.30000,  1295.00000
    319.35,  2803.30000,  1293.10000
    319.83,  2808.50000,  1295.70000
    320.32,  2818.40000,  1297.00000
    320.80,  2824.70000,  1291.80000
    321.28,  2780.80000,  1291.50000
    321.76,  2817.00000,  1296.70000
    322.24,  2818.10000,  1287.30000
    322.73,  2829.50000,  1284.80000
    323.21,  2830.60000,  1273.70000
    323.69,  2838.00000,  1271.10000
    324.17,  2786.20000,  1276.30000
    324.65,  2759.40000,  1287.80000
    325.14,  2763.60000,  1285.30000
    325.62,  2775.00000,  1283.10000
    326.10,  2817.50000,  1280.60000
    326.58,  2838.10000,  1278.80000
    327.06,  2799.10000,  1278.20000
    327.55,  2812.90000,  1272.10000
    328.03,  2841.10000,  1270.50000
    328.51,  2847.00000,  1273.00000
    328.99,  2856.20000,  1285.00000
    329.47,  2843.50000,  1290.40000
    329.95,  2775.00000,  1289.00000
    330.44,  2783.00000,  1270.40000
    330.92,  2757.50000,  1268.20000
    331.40,  2745.40000,  1265.10000
    331.88,  2741.10000,  1262.10000
    332.36,  2755.80000,  1260.50000
    332.84,  2778.30000,  1258.60000
    333.33,  2812.60000,  1259.70000
    333.81,  2814.90000,  1263.70000
    334.29,  2828.40000,  1256.20000
    334.77,  2826.10000,  1250.80000
    335.25,  2809.10000,  1251.00000
    335.73,  2823.30000,  1235.10000
    336.21,  2818.00000,  1235.20000
    336.69,  2801.60000,  1230.90000
    337.18,  2792.50000,  1228.30000
    337.66,  2762.30000,  1244.20000
    338.14,  2736.10000,  1255.50000
    338.62,  2731.70000,  1249.20000
    339.10,  2761.20000,  1244.00000
    339.58,  2805.10000,  1235.30000
    340.06,  2825.50000,  1223.90000
    340.54,  2829.30000,  1222.70000
    341.03,  2811.90000,  1224.60000
    341.51,  2781.00000,  1232.60000
    341.99,  2776.60000,  1233.40000
    342.47,  2784.80000,  1237.50000
    342.95,  2782.40000,  1234.20000
    343.43,  2782.80000,  1230.10000
    343.91,  2778.40000,  1227.30000
    344.39,  2756.10000,  1223.50000
    344.87,  2735.70000,  1213.60000
    345.35,  2754.00000,  1215.90000
    345.84,  2766.00000,  1222.50000
    346.32,  2817.90000,  1223.20000
    346.80,  2838.40000,  1223.40000
    347.28,  2839.70000,  1219.00000
    347.76,  2814.10000,  1211.80000
    348.24,  2815.00000,  1207.60000
    348.72,  2832.50000,  1215.90000
    349.20,  2850.00000,  1217.10000
    349.68,  2834.20000,  1216.30000
    350.16,  2801.20000,  1218.90000
    350.64,  2759.10000,  1218.10000
    351.12,  2749.40000,  1212.00000
    351.60,  2812.60000,  1211.80000
    352.08,  2851.40000,  1211.80000
    352.56,  2877.50000,  1207.50000
    353.04,  2865.70000,  1211.90000
    353.53,  2840.00000,  1208.30000
    354.01,  2812.00000,  1210.40000
    354.49,  2826.80000,  1208.40000
    354.97,  2819.10000,  1213.10000
    355.45,  2815.70000,  1215.30000
    355.93,  2790.80000,  1224.40000
    356.41,  2804.50000,  1219.30000
    356.89,  2788.30000,  1228.60000
    357.37,  2803.30000,  1230.60000
    357.85,  2783.10000,  1230.70000
    358.33,  2775.80000,  1222.30000
    358.81,  2753.00000,  1221.20000
    359.29,  2764.30000,  1216.20000
    359.77,  2779.30000,  1219.70000
    360.25,  2803.40000,  1216.20000
    360.73,  2796.10000,  1215.60000
    361.21,  2788.40000,  1211.70000
    361.69,  2792.70000,  1219.10000
    362.17,  2798.30000,  1223.70000
    362.65,  2816.20000,  1225.00000
    363.13,  2826.20000,  1222.70000
    363.61,  2830.00000,  1223.40000
    364.09,  2795.00000,  1220.80000
    364.57,  2787.30000,  1227.60000
    365.05,  2786.20000,  1234.70000
    365.53,  2770.60000,  1236.90000
    366.01,  2788.30000,  1246.90000
    366.49,  2827.90000,  1247.70000
    366.97,  2788.40000,  1241.40000
    367.45,  2803.30000,  1239.40000
    367.93,  2833.90000,  1235.20000
    368.41,  2824.90000,  1231.70000
    368.89,  2826.90000,  1239.20000
    369.37,  2836.00000,  1235.40000
    369.85,  2780.40000,  1233.00000
    370.33,  2798.20000,  1227.30000
    370.80,  2821.40000,  1223.90000
    371.28,  2820.40000,  1231.40000
    371.76,  2793.00000,  1245.60000
    372.24,  2776.70000,  1253.50000
    372.72,  2770.20000,  1256.30000
    373.20,  2790.70000,  1255.90000
    373.68,  2819.80000,  1259.10000
    374.16,  2841.80000,  1254.10000
    374.64,  2823.30000,  1250.80000
    375.12,  2792.60000,  1265.10000
    375.60,  2819.10000,  1268.60000
    376.08,  2793.60000,  1273.90000
    376.56,  2789.20000,  1275.30000
    377.04,  2785.90000,  1271.80000
    377.52,  2795.10000,  1268.20000
    377.99,  2781.40000,  1280.30000
    378.47,  2806.70000,  1283.40000
    378.95,  2788.70000,  1287.60000
    379.43,  2802.20000,  1292.40000
    379.91,  2807.10000,  1290.70000
    380.39,  2856.70000,  1295.70000
    380.87,  2880.30000,  1293.00000
    381.35,  2875.00000,  1284.80000
    381.83,  2850.40000,  1284.90000
    382.31,  2807.80000,  1286.60000
    382.79,  2772.70000,  1279.30000
    383.26,  2782.70000,  1293.10000
    383.74,  2787.60000,  1297.40000
    384.22,  2789.60000,  1292.60000
    384.70,  2794.30000,  1294.30000
    385.18,  2762.70000,  1302.50000
    385.66,  2764.60000,  1314.60000
    386.14,  2768.00000,  1328.20000
    386.62,  2787.10000,  1324.70000
    387.09,  2813.00000,  1311.80000
    387.57,  2834.40000,  1292.40000
    388.05,  2827.90000,  1283.50000
    388.53,  2819.00000,  1288.30000
    389.01,  2813.70000,  1297.20000
    389.49,  2831.40000,  1300.80000
    389.97,  2828.30000,  1311.10000
    390.44,  2822.50000,  1311.10000
    390.92,  2802.40000,  1310.30000
    391.40,  2784.90000,  1314.80000
    391.88,  2783.10000,  1317.10000
    392.36,  2789.90000,  1318.90000
    392.84,  2790.30000,  1319.10000
    393.32,  2804.20000,  1320.70000
    393.79,  2801.40000,  1314.60000
    394.27,  2856.70000,  1310.10000
    394.75,  2867.10000,  1302.20000
    395.23,  2862.00000,  1293.80000
    395.71,  2837.40000,  1295.40000
    396.18,  2824.80000,  1313.70000
    396.66,  2826.20000,  1326.00000
    397.14,  2860.50000,  1327.40000
    397.62,  2829.90000,  1328.10000
    398.10,  2826.70000,  1310.20000
    398.58,  2807.80000,  1312.50000
    399.05,  2807.80000,  1321.00000
    399.53,  2817.50000,  1330.60000
    400.01,  2815.50000,  1324.00000
    400.49,  2792.80000,  1311.80000
    400.97,  2783.00000,  1291.10000
    401.44,  2761.50000,  1281.60000
    401.92,  2781.90000,  1283.30000
    402.40,  2783.70000,  1284.00000
    402.88,  2805.80000,  1283.50000
    403.36,  2822.40000,  1273.50000
    403.83,  2836.70000,  1266.60000
    404.31,  2800.50000,  1274.80000
    404.79,  2801.40000,  1297.50000
    405.27,  2778.00000,  1301.10000
    405.74,  2772.30000,  1294.20000
    406.22,  2802.50000,  1281.20000
    406.70,  2830.00000,  1263.00000
    407.18,  2813.60000,  1267.30000
    407.65,  2799.80000,  1272.80000
    408.13,  2770.40000,  1260.30000
    408.61,  2775.40000,  1253.70000
    409.09,  2786.90000,  1249.30000
    409.56,  2796.10000,  1244.50000
    410.04,  2811.70000,  1258.20000
    410.52,  2806.40000,  1260.00000
    411.00,  2786.80000,  1251.00000
    411.47,  2780.70000,  1245.30000
    411.95,  2761.70000,  1230.70000
    412.43,  2766.80000,  1218.60000
    412.91,  2772.70000,  1212.70000
    413.38,  2789.50000,  1215.00000
    413.86,  2807.40000,  1209.80000
    414.34,  2806.30000,  1209.90000
    414.82,  2811.20000,  1211.70000
    415.29,  2810.70000,  1210.40000
    415.77,  2820.80000,  1200.40000
    416.25,  2819.00000,  1205.20000
    416.72,  2813.90000,  1209.10000
    417.20,  2792.50000,  1218.40000
    417.68,  2755.20000,  1215.70000
    418.16,  2749.90000,  1209.30000
    418.63,  2789.40000,  1191.30000
    419.11,  2800.10000,  1173.00000
    419.59,  2808.00000,  1170.30000
    420.06,  2775.70000,  1177.60000
    420.54,  2737.80000,  1184.50000
    421.02,  2750.40000,  1192.90000
    421.50,  2778.70000,  1192.20000
    421.97,  2792.20000,  1181.50000
    422.45,  2787.70000,  1179.60000
    422.93,  2777.80000,  1175.40000
    423.40,  2763.20000,  1174.10000
    423.88,  2762.50000,  1174.00000
    424.36,  2770.70000,  1173.90000
    424.83,  2782.80000,  1168.20000
    425.31,  2799.40000,  1172.70000
    425.79,  2846.10000,  1164.70000
    426.26,  2885.00000,  1158.20000
    426.74,  2870.90000,  1154.40000
    427.22,  2851.60000,  1154.90000
    427.69,  2822.90000,  1168.40000
    428.17,  2795.90000,  1176.40000
    428.65,  2774.30000,  1178.20000
    429.12,  2810.90000,  1166.40000
    429.60,  2802.80000,  1158.40000
    430.08,  2806.10000,  1160.00000
    430.55,  2811.60000,  1166.40000
    431.03,  2815.00000,  1165.10000
    431.50,  2813.10000,  1169.60000
    431.98,  2814.10000,  1166.10000
    432.46,  2819.40000,  1161.60000
    432.93,  2798.60000,  1156.70000
    433.41,  2778.10000,  1142.90000
    433.89,  2775.00000,  1138.10000
    434.36,  2775.70000,  1147.70000
    434.84,  2767.10000,  1153.30000
    435.31,  2785.20000,  1156.90000
    435.79,  2784.70000,  1158.00000
    436.27,  2776.10000,  1153.10000
    436.74,  2777.70000,  1148.00000
    437.22,  2781.30000,  1151.50000
    437.70,  2785.90000,  1144.30000
    438.17,  2778.20000,  1139.50000
    438.65,  2780.20000,  1130.00000
    439.12,  2783.40000,  1135.80000
    439.60,  2781.50000,  1138.50000
    440.08,  2792.00000,  1146.80000
    440.55,  2783.40000,  1146.70000
    441.03,  2792.50000,  1143.70000
    441.50,  2799.00000,  1129.10000
    441.98,  2815.10000,  1131.70000
    442.45,  2809.40000,  1134.30000
    442.93,  2803.80000,  1142.30000
    443.41,  2786.90000,  1151.30000
    443.88,  2785.60000,  1155.60000
    444.36,  2776.00000,  1146.90000
    444.83,  2781.10000,  1146.70000
    445.31,  2785.20000,  1146.60000
    445.78,  2763.30000,  1147.60000
    446.26,  2766.00000,  1145.20000
    446.74,  2753.70000,  1145.20000
    447.21,  2768.50000,  1146.50000
    447.69,  2788.50000,  1149.50000
    448.16,  2812.70000,  1147.50000
    448.64,  2796.00000,  1138.60000
    449.11,  2784.90000,  1129.90000
    449.59,  2780.30000,  1135.40000
    450.06,  2778.40000,  1140.60000
    450.54,  2780.20000,  1140.40000
    451.02,  2813.70000,  1142.10000
    451.49,  2818.70000,  1140.90000
    451.97,  2815.70000,  1142.50000
    452.44,  2805.00000,  1154.00000
    452.92,  2789.10000,  1151.50000
    453.39,  2771.30000,  1156.10000
    453.87,  2786.50000,  1153.30000
    454.34,  2792.00000,  1147.90000
    454.82,  2797.20000,  1150.00000
    455.29,  2805.40000,  1156.10000
    455.77,  2815.20000,  1145.60000
    456.24,  2789.30000,  1147.10000
    456.72,  2767.50000,  1142.10000
    457.19,  2767.50000,  1125.20000
    457.67,  2776.80000,  1123.90000
    458.14,  2808.30000,  1122.40000
    458.62,  2819.20000,  1120.90000
    459.09,  2804.50000,  1141.60000
    459.57,  2774.80000,  1152.60000
    460.04,  2775.50000,  1160.40000
    460.52,  2768.30000,  1164.90000
    460.99,  2766.00000,  1150.90000
    461.47,  2769.10000,  1134.60000
    461.94,  2747.40000,  1135.10000
    462.42,  2744.10000,  1126.80000
    462.89,  2761.60000,  1143.40000
    463.37,  2775.30000,  1153.60000
    463.84,  2784.50000,  1158.30000
    464.32,  2794.80000,  1155.40000
    464.79,  2797.30000,  1146.10000
    465.26,  2803.80000,  1137.60000
    465.74,  2795.20000,  1134.70000
    466.21,  2812.40000,  1133.50000
    466.69,  2819.50000,  1140.90000
    467.16,  2814.40000,  1143.10000
    467.64,  2801.80000,  1136.40000
    468.11,  2784.90000,  1132.10000
    468.59,  2782.90000,  1134.10000
    469.06,  2801.00000,  1133.00000
    469.54,  2830.10000,  1139.30000
    470.01,  2825.40000,  1143.50000
    470.48,  2779.90000,  1143.10000
    470.96,  2792.50000,  1138.10000
    471.43,  2816.70000,  1137.20000
    471.91,  2841.50000,  1132.20000
    472.38,  2874.20000,  1138.80000
    472.86,  2849.40000,  1136.50000
    473.33,  2788.60000,  1136.30000
    473.80,  2790.20000,  1128.10000
    474.28,  2797.90000,  1123.00000
    474.75,  2808.50000,  1132.00000
    475.23,  2835.60000,  1141.80000
    475.70,  2835.10000,  1153.10000
    476.17,  2803.00000,  1163.80000
    476.65,  2805.90000,  1156.80000
    477.12,  2808.70000,  1152.60000
    477.60,  2774.20000,  1146.20000
    478.07,  2782.20000,  1136.90000
    478.54,  2797.40000,  1142.60000
    479.02,  2804.10000,  1143.40000
    479.49,  2830.40000,  1136.20000
    479.97,  2831.10000,  1147.90000
    480.44,  2814.40000,  1146.20000
    480.91,  2784.80000,  1152.80000
    481.39,  2777.20000,  1144.20000
    481.86,  2781.00000,  1144.20000
    482.34,  2766.00000,  1144.40000
    482.81,  2782.80000,  1149.00000
    483.28,  2813.70000,  1148.90000
    483.76,  2794.80000,  1157.70000
    484.23,  2809.90000,  1156.60000
    484.70,  2789.60000,  1167.80000
    485.18,  2783.40000,  1167.70000
    485.65,  2790.30000,  1154.00000
    486.12,  2795.10000,  1144.70000
    486.60,  2772.20000,  1144.00000
    487.07,  2774.90000,  1156.80000
    487.55,  2799.80000,  1153.70000
    488.02,  2833.80000,  1141.70000
    488.49,  2837.00000,  1132.40000
    488.97,  2844.60000,  1132.60000
    489.44,  2827.00000,  1139.80000
    489.91,  2789.80000,  1148.40000
    490.39,  2784.10000,  1151.30000
    490.86,  2742.50000,  1153.90000
    491.33,  2708.50000,  1153.80000
    491.81,  2745.90000,  1147.50000
    492.28,  2791.80000,  1132.70000
    492.75,  2797.10000,  1116.10000
    493.23,  2852.20000,  1108.90000
    493.70,  2862.60000,  1119.70000
    494.17,  2851.30000,  1131.60000
    494.64,  2838.40000,  1139.10000
    495.12,  2797.10000,  1151.60000
    495.59,  2793.40000,  1155.70000
    496.06,  2824.50000,  1153.90000
    496.54,  2844.70000,  1155.60000
    497.01,  2830.10000,  1151.70000
    497.48,  2813.70000,  1141.20000
    497.96,  2791.90000,  1134.40000
    498.43,  2825.90000,  1134.10000
    498.90,  2830.10000,  1132.60000
    499.37,  2858.40000,  1128.90000
    499.85,  2825.40000,  1130.30000
    500.32,  2813.70000,  1125.00000
    500.79,  2790.80000,  1128.70000
    501.27,  2798.50000,  1130.10000
    501.74,  2793.80000,  1124.60000
    502.21,  2799.90000,  1119.30000
    502.68,  2786.70000,  1128.00000
    503.16,  2774.70000,  1125.80000
    503.63,  2761.50000,  1139.60000
    504.10,  2770.60000,  1139.80000
    504.57,  2762.20000,  1136.30000
    505.05,  2784.90000,  1123.90000
    505.52,  2808.70000,  1117.40000
    505.99,  2802.50000,  1116.90000
    506.46,  2797.30000,  1130.90000
    506.94,  2781.70000,  1138.90000
    507.41,  2767.30000,  1141.00000
    507.88,  2774.60000,  1129.20000
    508.35,  2774.20000,  1116.30000
    508.83,  2759.30000,  1121.10000
    509.30,  2785.40000,  1128.00000
    509.77,  2792.40000,  1130.30000
    510.24,  2797.40000,  1133.40000
    510.72,  2781.50000,  1129.40000
    511.19,  2767.40000,  1120.10000
    511.66,  2769.00000,  1109.20000
    512.13,  2796.10000,  1107.50000
    512.60,  2786.90000,  1103.20000
    513.08,  2777.10000,  1111.10000
    513.55,  2766.80000,  1123.10000
    514.02,  2748.60000,  1126.00000
    514.49,  2758.50000,  1117.70000
    514.97,  2770.50000,  1120.50000
    515.44,  2785.50000,  1118.10000
    515.91,  2779.80000,  1123.00000
    516.38,  2783.80000,  1123.80000
    516.85,  2750.90000,  1115.60000
    517.33,  2730.00000,  1111.80000
    517.80,  2727.60000,  1118.90000
    518.27,  2749.00000,  1121.30000
    518.74,  2791.20000,  1125.50000
    519.21,  2816.80000,  1130.70000
    519.68,  2800.20000,  1125.80000
    520.16,  2772.60000,  1128.80000
    520.63,  2757.70000,  1115.00000
    521.10,  2751.40000,  1098.90000
    521.57,  2779.60000,  1103.30000
    522.04,  2789.10000,  1111.40000
    522.52,  2788.10000,  1114.20000
    522.99,  2774.70000,  1125.20000
    523.46,  2787.90000,  1115.00000
    523.93,  2793.00000,  1117.70000
    524.40,  2815.70000,  1124.30000
    524.87,  2813.60000,  1122.60000
    525.34,  2801.60000,  1118.70000
    525.82,  2790.00000,  1111.00000
    526.29,  2792.50000,  1105.60000
    526.76,  2786.20000,  1117.70000
    527.23,  2796.30000,  1124.00000
    527.70,  2781.10000,  1131.60000
    528.17,  2779.80000,  1132.90000
    528.64,  2776.70000,  1117.80000
    529.12,  2786.60000,  1117.30000
    529.59,  2787.40000,  1120.90000
    530.06,  2784.00000,  1125.70000
    530.53,  2813.60000,  1131.60000
    531.00,  2789.10000,  1134.20000
    531.47,  2741.60000,  1132.10000
    531.94,  2738.00000,  1138.20000
    532.41,  2739.60000,  1136.10000
    532.89,  2764.90000,  1136.10000
    533.36,  2830.80000,  1130.70000
    533.83,  2814.80000,  1128.10000
    534.30,  2789.30000,  1129.00000
    534.77,  2794.20000,  1127.90000
    535.24,  2801.00000,  1133.30000
    535.71,  2798.20000,  1143.90000
    536.18,  2816.60000,  1140.20000
    536.65,  2807.00000,  1140.00000
    537.13,  2777.70000,  1146.60000
    537.60,  2761.00000,  1151.70000
    538.07,  2764.20000,  1159.40000
    538.54,  2746.20000,  1176.50000
    539.01,  2770.60000,  1164.00000
    539.48,  2806.50000,  1156.50000
    539.95,  2814.90000,  1159.80000
    540.42,  2828.00000,  1154.60000
    540.89,  2812.70000,  1158.30000
    541.36,  2784.90000,  1167.90000
    541.83,  2778.60000,  1168.20000
    542.30,  2773.50000,  1175.50000
    542.77,  2775.10000,  1183.40000
    543.25,  2806.20000,  1170.60000
    543.72,  2806.70000,  1169.00000
    544.19,  2809.90000,  1158.50000
    544.66,  2788.00000,  1166.00000
    545.13,  2768.40000,  1175.20000
    545.60,  2747.60000,  1191.50000
    546.07,  2772.00000,  1198.40000
    546.54,  2786.60000,  1207.60000
    547.01,  2801.90000,  1188.50000
    547.48,  2803.40000,  1188.80000
    547.95,  2792.80000,  1191.30000
    548.42,  2774.30000,  1201.80000
    548.89,  2796.70000,  1215.80000
    549.36,  2787.80000,  1224.20000
    549.83,  2773.90000,  1211.30000
    550.30,  2822.70000,  1210.20000
    550.77,  2823.60000,  1221.20000
    551.24,  2829.10000,  1228.00000
    551.71,  2844.80000,  1224.40000
    552.18,  2814.30000,  1219.00000
    552.65,  2757.90000,  1211.60000
    553.12,  2788.50000,  1205.80000
    553.59,  2794.60000,  1212.20000
    554.06,  2798.40000,  1220.70000
    554.53,  2815.70000,  1214.30000
    555.00,  2802.30000,  1226.70000
    555.47,  2787.40000,  1230.50000
    555.94,  2783.20000,  1226.00000
    556.41,  2776.20000,  1232.80000
    556.88,  2754.50000,  1239.20000
    557.35,  2751.90000,  1241.10000
    557.82,  2741.70000,  1248.40000
    558.29,  2757.40000,  1242.60000
    558.76,  2805.00000,  1228.30000
    559.23,  2818.80000,  1239.30000
    559.70,  2825.20000,  1240.50000
    560.17,  2809.30000,  1249.70000
    560.64,  2797.50000,  1247.80000
    561.11,  2777.30000,  1245.20000
    561.58,  2806.40000,  1239.40000
    562.05,  2792.70000,  1247.00000
    562.52,  2809.00000,  1246.00000
    562.99,  2802.60000,  1247.80000
    563.46,  2813.10000,  1242.00000
    563.93,  2794.40000,  1244.60000
    564.40,  2799.40000,  1244.20000
    564.87,  2802.40000,  1245.00000
    565.34,  2823.70000,  1240.70000
    565.81,  2812.00000,  1239.10000
    566.28,  2809.10000,  1235.90000
    566.74,  2791.10000,  1233.70000
    567.21,  2782.70000,  1234.40000
    567.68,  2790.40000,  1245.20000
    568.15,  2780.50000,  1245.60000
    568.62,  2770.00000,  1256.50000
    569.09,  2768.30000,  1264.70000
    569.56,  2771.20000,  1253.90000
    570.03,  2769.30000,  1242.00000
    570.50,  2806.40000,  1234.00000
    570.97,  2809.50000,  1217.20000
    571.44,  2801.20000,  1226.30000
    571.91,  2801.50000,  1243.50000
    572.38,  2790.10000,  1252.70000
    572.84,  2763.20000,  1260.80000
    573.31,  2777.00000,  1263.00000
    573.78,  2784.40000,  1245.40000
    574.25,  2779.20000,  1244.70000
    574.72,  2805.40000,  1238.70000
    575.19,  2802.70000,  1239.80000
    575.66,  2789.20000,  1257.00000
    576.13,  2775.30000,  1268.40000
    576.60,  2778.30000,  1263.90000
    577.07,  2800.00000,  1268.90000
    577.53,  2825.90000,  1262.50000
    578.00,  2823.70000,  1255.30000
    578.47,  2810.10000,  1261.20000
    578.94,  2789.70000,  1255.40000
    579.41,  2767.30000,  1246.20000
    579.88,  2788.40000,  1244.40000
    580.35,  2793.10000,  1241.80000
    580.82,  2800.60000,  1246.70000
    581.28,  2814.50000,  1259.50000
    581.75,  2809.40000,  1263.10000
    582.22,  2797.00000,  1256.10000
    582.69,  2798.00000,  1249.40000
    583.16,  2796.40000,  1245.00000
    583.63,  2790.50000,  1242.90000
    584.10,  2822.10000,  1251.40000
    584.56,  2830.30000,  1262.90000
    585.03,  2818.30000,  1266.50000
    585.50,  2807.70000,  1265.40000
    585.97,  2781.60000,  1263.00000
    586.44,  2776.70000,  1244.30000
    586.91,  2800.80000,  1237.90000
    587.37,  2799.40000,  1238.80000
    587.84,  2790.10000,  1235.40000
    588.31,  2776.40000,  1236.10000
    588.78,  2749.30000,  1232.10000
    589.25,  2780.60000,  1227.00000
    589.72,  2777.00000,  1234.00000
    590.18,  2795.70000,  1242.20000
    590.65,  2821.60000,  1243.70000
    591.12,  2806.50000,  1240.20000
    591.59,  2809.70000,  1228.90000
    592.06,  2793.80000,  1226.20000
    592.52,  2752.80000,  1232.00000
    592.99,  2764.80000,  1235.60000
    593.46,  2761.00000,  1236.70000
    593.93,  2724.40000,  1242.60000
    594.40,  2755.10000,  1241.60000
    594.86,  2772.70000,  1244.00000
    595.33,  2784.60000,  1242.00000
    595.80,  2803.80000,  1233.50000
    596.27,  2806.80000,  1229.40000
    596.74,  2788.70000,  1234.10000
    597.20,  2785.70000,  1230.40000
    597.67,  2795.60000,  1234.80000
    598.14,  2779.40000,  1232.20000
    598.61,  2769.50000,  1234.00000
    599.07,  2775.60000,  1229.90000
    599.54,  2766.10000,  1221.20000
    600.01,  2753.70000,  1212.30000
    600.48,  2809.70000,  1213.90000
    600.95,  2838.80000,  1211.00000
    601.41,  2841.30000,  1219.40000
    601.88,  2822.20000,  1212.10000
    602.35,  2764.00000,  1210.60000
    602.82,  2717.60000,  1206.20000
    603.28,  2739.00000,  1208.30000
    603.75,  2737.00000,  1218.10000
    604.22,  2759.80000,  1225.80000
    604.69,  2771.10000,  1221.10000
    605.15,  2783.30000,  1211.10000
    605.62,  2781.80000,  1202.90000
    606.09,  2778.60000,  1211.40000
    606.56,  2754.90000,  1213.40000
    607.02,  2757.40000,  1207.20000
    607.49,  2757.90000,  1192.00000
    607.96,  2782.50000,  1180.20000
    608.42,  2776.70000,  1180.20000
    608.89,  2820.70000,  1196.10000
    609.36,  2823.30000,  1198.10000
    609.83,  2800.40000,  1201.10000
    610.29,  2774.30000,  1192.30000
    610.76,  2752.70000,  1186.60000
    611.23,  2744.30000,  1177.00000
    611.69,  2782.60000,  1173.70000
    612.16,  2785.90000,  1167.80000
    612.63,  2783.80000,  1168.90000
    613.10,  2773.10000,  1163.70000
    613.56,  2755.80000,  1163.10000
    614.03,  2758.70000,  1165.10000
    614.50,  2769.30000,  1167.20000
    614.96,  2779.00000,  1162.60000
    615.43,  2786.10000,  1166.00000
    615.90,  2802.20000,  1160.00000
    616.36,  2803.50000,  1162.40000
    616.83,  2784.10000,  1156.80000
    617.30,  2781.60000,  1150.40000
    617.76,  2754.70000,  1144.20000
    618.23,  2738.20000,  1143.70000
    618.70,  2732.60000,  1139.90000
    619.16,  2748.20000,  1137.10000
    619.63,  2747.10000,  1134.40000
    620.10,  2747.50000,  1139.20000
    620.56,  2746.80000,  1135.10000
    621.03,  2779.00000,  1128.20000
    621.50,  2783.80000,  1128.80000
    621.96,  2791.00000,  1130.70000
    622.43,  2792.60000,  1138.10000
    622.90,  2792.40000,  1137.30000
    623.36,  2805.50000,  1128.60000
    623.83,  2814.10000,  1121.00000
    624.30,  2802.30000,  1115.30000
    624.76,  2791.20000,  1117.50000
    625.23,  2789.60000,  1127.80000
    625.70,  2797.50000,  1132.30000
    626.16,  2800.60000,  1135.10000
    626.63,  2772.90000,  1130.10000
    627.09,  2772.80000,  1114.80000
    627.56,  2780.20000,  1111.90000
    628.03,  2776.60000,  1115.80000
    628.49,  2785.40000,  1113.90000
    628.96,  2768.50000,  1106.40000
    629.43,  2766.00000,  1101.30000
    629.89,  2768.40000,  1093.80000
    630.36,  2777.10000,  1095.90000
    630.82,  2768.80000,  1103.50000
    631.29,  2762.80000,  1104.90000
    631.76,  2742.90000,  1101.70000
    632.22,  2729.60000,  1100.50000
    632.69,  2742.80000,  1091.90000
    633.15,  2778.30000,  1076.50000
    633.62,  2810.30000,  1078.80000
    634.09,  2819.60000,  1085.10000
    634.55,  2818.20000,  1087.60000
    635.02,  2785.00000,  1087.00000
    635.48,  2776.10000,  1082.30000
    635.95,  2773.70000,  1070.90000
    636.42,  2783.10000,  1067.00000
    636.88,  2771.10000,  1062.00000
    637.35,  2769.00000,  1056.20000
    637.81,  2783.60000,  1050.50000
    638.28,  2785.50000,  1056.10000
    638.74,  2796.90000,  1067.20000
    639.21,  2798.60000,  1072.90000
    639.68,  2771.60000,  1078.30000
    640.14,  2740.60000,  1068.00000
    640.61,  2754.50000,  1064.60000
    641.07,  2732.20000,  1068.10000
    641.54,  2760.90000,  1060.10000
    642.00,  2777.00000,  1050.00000
    642.47,  2793.90000,  1050.20000
    642.93,  2785.70000,  1050.50000
    643.40,  2781.10000,  1064.10000
    643.87,  2760.00000,  1067.40000
    644.33,  2770.40000,  1059.80000
    644.80,  2774.40000,  1055.10000
    645.26,  2763.80000,  1053.80000
    645.73,  2758.00000,  1054.50000
    646.19,  2752.50000,  1050.80000
    646.66,  2761.10000,  1041.60000
    647.12,  2754.70000,  1036.90000
    647.59,  2758.00000,  1044.10000
    648.05,  2761.40000,  1050.70000
    648.52,  2757.50000,  1059.00000
    648.98,  2756.30000,  1056.80000
    649.45,  2745.20000,  1054.70000
    649.91,  2728.70000,  1046.80000
    650.38,  2732.80000,  1040.80000
    650.84,  2781.40000,  1042.00000
    651.31,  2771.90000,  1058.30000
    651.77,  2769.30000,  1057.30000
    652.24,  2740.40000,  1056.20000
    652.70,  2724.10000,  1055.70000
    653.17,  2718.20000,  1046.00000
    653.63,  2755.40000,  1045.50000
    654.10,  2746.40000,  1052.00000
    654.56,  2762.40000,  1044.30000
    655.03,  2757.90000,  1039.90000
    655.49,  2766.10000,  1030.10000
    655.96,  2770.20000,  1022.00000
    656.42,  2761.30000,  1028.80000
    656.89,  2736.90000,  1043.80000
    657.35,  2784.50000,  1052.40000
    657.82,  2823.10000,  1056.40000
    658.28,  2849.80000,  1048.40000
    658.75,  2867.10000,  1040.50000
    659.21,  2827.40000,  1031.90000
    659.68,  2796.30000,  1025.20000
    660.14,  2791.60000,  1023.60000
    660.61,  2764.40000,  1015.30000
    661.07,  2791.90000,  1023.20000
    661.53,  2807.10000,  1024.30000
    662.00,  2824.60000,  1023.80000
    662.46,  2818.40000,  1017.80000
    662.93,  2795.30000,  1026.00000
    663.39,  2758.20000,  1018.60000
    663.86,  2785.90000,  1017.40000
    664.32,  2782.30000,  1016.00000
    664.79,  2811.50000,  1018.60000
    665.25,  2798.30000,  1016.70000
    665.71,  2775.80000,  1016.40000
    666.18,  2741.40000,  1016.90000
    666.64,  2762.90000,  1011.20000
    667.11,  2763.50000,  1000.10000
    667.57,  2787.30000,  1001.90000
    668.04,  2799.60000,  1002.90000
    668.50,  2785.80000,  1000.70000
    668.96,  2766.50000,  1007.60000
    669.43,  2792.20000,  1006.50000
    669.89,  2772.50000,   999.20000
    670.36,  2755.80000,   998.40000
    670.82,  2751.60000,   993.10000
    671.28,  2753.50000,   983.50000
    671.75,  2765.50000,   968.80000
    672.21,  2796.60000,   969.90000
    672.68,  2798.40000,   969.90000
    673.14,  2806.50000,   975.50000
    673.60,  2815.50000,   984.30000
    674.07,  2795.30000,   983.10000
    674.53,  2766.00000,   982.10000
    675.00,  2752.50000,   986.50000
    675.46,  2736.00000,   987.70000
    675.92,  2735.90000,   986.70000
    676.39,  2771.30000,   983.10000
    676.85,  2786.40000,   962.80000
    677.31,  2797.60000,   961.80000
    677.78,  2802.60000,   959.50000
    678.24,  2787.00000,   957.50000
    678.70,  2764.30000,   957.00000
    679.17,  2742.80000,   964.10000
    679.63,  2718.30000,   960.10000
    680.10,  2713.00000,   966.20000
    680.56,  2739.30000,   961.90000
    681.02,  2753.60000,   944.30000
    681.49,  2785.60000,   939.90000
    681.95,  2786.60000,   938.50000
    682.41,  2768.60000,   945.10000
    682.88,  2753.90000,   945.20000
    683.34,  2750.90000,   946.60000
    683.80,  2740.40000,   937.30000
    684.27,  2756.70000,   937.10000
    684.73,  2764.40000,   936.20000
    685.19,  2778.70000,   946.60000
    685.66,  2802.90000,   945.60000
    686.12,  2806.40000,   938.10000
    686.58,  2824.20000,   932.50000
    687.05,  2815.40000,   934.00000
    687.51,  2792.90000,   935.80000
    687.97,  2778.00000,   940.90000
    688.44,  2778.90000,   941.90000
    688.90,  2783.10000,   924.60000
    689.36,  2782.10000,   929.00000
    689.83,  2784.80000,   930.10000
    690.29,  2796.10000,   923.60000
    690.75,  2814.90000,   914.20000
    691.21,  2826.00000,   911.30000
    691.68,  2809.20000,   912.00000
    692.14,  2772.30000,   923.90000
    692.60,  2771.80000,   945.40000
    693.07,  2758.10000,   946.10000
    693.53,  2779.80000,   936.80000
    693.99,  2801.70000,   920.30000
    694.45,  2798.70000,   911.70000
    694.92,  2813.70000,   904.70000
    695.38,  2819.70000,   906.20000
    695.84,  2800.90000,   905.90000
    696.31,  2791.50000,   908.30000
    696.77,  2808.00000,   907.50000
    697.23,  2796.60000,   918.00000
    697.69,  2796.70000,   912.50000
    698.16,  2779.80000,   896.10000
    698.62,  2760.90000,   889.80000
    699.08,  2742.90000,   889.10000
    699.54,  2745.90000,   894.80000
    700.01,  2736.50000,   911.10000
    700.47,  2732.60000,   907.10000
    700.93,  2735.90000,   904.60000
    701.39,  2736.30000,   902.20000
    701.86,  2745.10000,   904.00000
    702.32,  2740.70000,   899.10000
    702.78,  2749.40000,   902.60000
    703.24,  2750.50000,   899.00000
    703.71,  2764.30000,   893.10000
    704.17,  2775.80000,   888.70000
    704.63,  2770.20000,   889.80000
    705.09,  2757.80000,   882.00000
    705.56,  2780.60000,   883.80000
    706.02,  2785.70000,   881.10000
    706.48,  2776.20000,   872.00000
    706.94,  2774.90000,   870.80000
    707.40,  2743.70000,   882.80000
    707.87,  2741.50000,   894.00000
    708.33,  2751.60000,   893.10000
    708.79,  2751.60000,   886.90000
    709.25,  2729.20000,   879.00000
    709.72,  2735.10000,   881.60000
    710.18,  2746.50000,   879.80000
    710.64,  2752.60000,   884.80000
    711.10,  2748.20000,   869.10000
    711.56,  2761.80000,   865.20000
    712.03,  2775.50000,   874.20000
    712.49,  2792.60000,   886.70000
    712.95,  2812.60000,   885.80000
    713.41,  2795.60000,   882.60000
    713.87,  2791.10000,   870.20000
    714.33,  2788.20000,   869.80000
    714.80,  2775.30000,   879.50000
    715.26,  2728.90000,   881.50000
    715.72,  2726.70000,   885.40000
    716.18,  2724.00000,   874.20000
    716.64,  2742.00000,   868.10000
    717.11,  2747.70000,   870.30000
    717.57,  2749.60000,   866.50000
    718.03,  2720.10000,   865.40000
    718.49,  2730.10000,   869.20000
    718.95,  2772.40000,   868.20000
    719.41,  2776.80000,   868.30000
    719.87,  2749.80000,   868.20000
    720.34,  2752.80000,   858.70000
    720.80,  2748.70000,   855.40000
    721.26,  2740.10000,   861.20000
    721.72,  2771.40000,   862.40000
    722.18,  2755.20000,   866.50000
    722.64,  2725.00000,   868.00000
    723.10,  2735.70000,   871.20000
    723.57,  2749.20000,   869.80000
    724.03,  2760.50000,   865.20000
    724.49,  2767.40000,   852.40000
    724.95,  2730.80000,   848.80000
    725.41,  2780.80000,   854.50000
    725.87,  2826.10000,   856.20000
    726.33,  2843.50000,   862.20000
    726.80,  2847.30000,   858.10000
    727.26,  2808.30000,   858.70000
    727.72,  2725.30000,   863.00000
    728.18,  2733.50000,   870.70000
    728.64,  2733.90000,   858.00000
    729.10,  2746.00000,   852.50000
    729.56,  2767.10000,   851.60000
    730.02,  2792.10000,   853.00000
    730.48,  2792.30000,   849.90000
    730.94,  2777.10000,   854.50000
    731.41,  2764.10000,   850.30000
    731.87,  2740.60000,   854.20000
    732.33,  2714.10000,   867.50000
    732.79,  2740.40000,   862.30000
    733.25,  2748.40000,   850.60000
    733.71,  2765.50000,   850.20000
    734.17,  2786.60000,   844.70000
    734.63,  2764.20000,   844.60000
    735.09,  2736.00000,   846.40000
    735.55,  2731.90000,   833.40000
    736.01,  2718.40000,   840.00000
    736.47,  2729.10000,   851.20000
    736.94,  2742.70000,   850.80000
    737.40,  2753.20000,   848.60000
    737.86,  2754.40000,   840.60000
    738.32,  2762.80000,   832.10000
    738.78,  2773.50000,   831.70000
    739.24,  2764.00000,   831.90000
    739.70,  2761.40000,   826.20000
    740.16,  2783.40000,   827.80000
    740.62,  2791.60000,   833.00000
    741.08,  2807.80000,   841.90000
    741.54,  2796.70000,   847.60000
    742.00,  2773.60000,   849.40000
    742.46,  2740.20000,   847.10000
    742.92,  2710.00000,   852.10000
    743.38,  2712.90000,   808.70000
    743.84,  2715.90000,   930.70000
    744.30,  2730.30000,  1020.80000
    744.76,  2746.50000,  1061.00000
    745.22,  2742.70000,  1054.80000
    745.68,  2725.90000,   985.40000
    746.14,  2730.50000,   844.60000
    746.60,  2736.10000,   857.70000
    747.06,  2755.10000,   827.00000
    747.52,  2741.20000,   809.70000
    747.98,  2753.80000,   811.20000
    748.44,  2752.20000,   821.80000
    748.90,  2742.90000,   837.00000
    749.36,  2740.90000,   851.70000
    749.82,  2751.40000,   853.40000
    750.28,  2758.90000,   855.50000
    750.74,  2784.30000,   846.50000
    751.20,  2785.50000,   844.30000
    751.66,  2767.80000,   846.60000
    752.12,  2748.10000,   844.20000
    752.58,  2752.20000,   839.90000
    753.04,  2773.80000,   837.30000
    753.50,  2795.00000,   841.10000
    753.96,  2776.70000,   843.00000
    754.42,  2746.10000,   842.00000
    754.88,  2722.50000,   843.60000
    755.34,  2717.80000,   851.00000
    755.80,  2746.60000,   855.30000
    756.26,  2760.50000,   859.90000
    756.72,  2764.70000,   850.30000
    757.18,  2770.50000,   833.90000
    757.64,  2767.80000,   823.40000
    758.10,  2738.40000,   826.80000
    758.56,  2718.70000,   831.90000
    759.02,  2718.00000,   835.40000
    759.48,  2720.40000,   831.10000
    759.94,  2736.40000,   835.70000
    760.40,  2743.10000,   834.00000
    760.86,  2743.30000,   831.70000
    761.32,  2740.10000,   838.20000
    761.78,  2767.80000,   835.30000
    762.24,  2750.50000,   833.40000
    762.70,  2759.70000,   835.50000
    763.15,  2741.70000,   836.00000
    763.61,  2744.40000,   832.60000
    764.07,  2749.70000,   835.70000
    764.53,  2752.40000,   839.70000
    764.99,  2755.20000,   851.30000
    765.45,  2780.50000,   849.30000
    765.91,  2766.50000,   845.10000
    766.37,  2744.20000,   848.90000
    766.83,  2720.20000,   844.00000
    767.29,  2716.90000,   850.20000
    767.75,  2725.30000,   848.60000
    768.21,  2747.70000,   844.20000
    768.66,  2762.60000,   828.10000
    769.12,  2770.20000,   827.00000
    769.58,  2745.50000,   835.00000
    770.04,  2727.60000,   841.80000
    770.50,  2699.70000,   841.70000
    770.96,  2687.50000,   847.70000
    771.42,  2716.70000,   833.70000
    771.88,  2743.30000,   823.70000
    772.34,  2748.20000,   823.90000
    772.80,  2738.60000,   818.30000
    773.25,  2720.80000,   817.40000
    773.71,  2717.10000,   827.40000
    774.17,  2709.40000,   828.10000
    774.63,  2725.70000,   828.10000
    775.09,  2731.50000,   833.70000
    775.55,  2714.50000,   838.30000
    776.01,  2683.40000,   846.60000
    776.47,  2688.90000,   843.30000
    776.92,  2674.10000,   830.90000
    777.38,  2710.30000,   824.40000
    777.84,  2721.50000,   831.90000
    778.30,  2718.10000,   835.00000
    778.76,  2704.40000,   844.50000
    779.22,  2732.40000,   835.90000
    779.68,  2735.70000,   826.40000
    780.13,  2745.80000,   821.10000
    780.59,  2730.00000,   826.00000
    781.05,  2706.70000,   834.90000
    781.51,  2706.20000,   840.20000
    781.97,  2721.60000,   841.20000
    782.43,  2730.70000,   840.00000
    782.88,  2750.10000,   827.90000
    783.34,  2746.10000,   821.60000
    783.80,  2745.20000,   824.30000
    784.26,  2762.20000,   825.80000
    784.72,  2739.80000,   836.90000
    785.18,  2724.60000,   838.30000
    785.63,  2714.40000,   831.70000
    786.09,  2727.90000,   823.60000
    786.55,  2769.00000,   813.50000
    787.01,  2794.80000,   819.90000
    787.47,  2771.80000,   824.40000
    787.92,  2737.90000,   834.80000
    788.38,  2707.30000,   839.70000
    788.84,  2691.60000,   838.40000
    789.30,  2709.10000,   827.50000
    789.76,  2725.40000,   827.60000
    790.21,  2730.10000,   823.70000
    790.67,  2719.80000,   831.40000
    791.13,  2717.20000,   831.00000
    791.59,  2693.50000,   830.00000
    792.05,  2690.10000,   826.00000
    792.50,  2708.60000,   818.50000
    792.96,  2734.10000,   819.50000
    793.42,  2715.70000,   816.20000
    793.88,  2728.00000,   810.20000
    794.33,  2702.30000,   814.90000
    794.79,  2696.60000,   819.20000
    795.25,  2702.70000,   817.00000
    795.71,  2723.70000,   819.40000
    796.17,  2729.40000,   812.30000
    796.62,  2740.70000,   812.60000
    797.08,  2708.80000,   815.20000
    797.54,  2707.30000,   810.20000
    798.00,  2696.70000,   812.30000
    798.45,  2706.60000,   818.60000
    798.91,  2716.60000,   818.30000
    799.37,  2720.70000,   830.70000
    799.83,  2708.70000,   838.20000
    800.28,  2697.70000,   830.20000
    800.74,  2692.80000,   823.10000
    801.20,  2709.90000,   816.20000
    801.66,  2693.80000,   805.40000
    802.11,  2704.10000,   806.60000
    802.57,  2715.20000,   820.60000
    803.03,  2691.00000,   830.30000
    803.48,  2678.20000,   833.70000
    803.94,  2730.70000,   826.20000
    804.40,  2748.40000,   815.70000
    804.86,  2769.00000,   814.00000
    805.31,  2763.00000,   814.80000
    805.77,  2717.80000,   819.20000
    806.23,  2665.30000,   822.90000
    806.69,  2693.90000,   818.40000
    807.14,  2700.80000,   817.40000
    807.60,  2715.80000,   828.40000
    808.06,  2719.90000,   827.70000
    808.51,  2721.20000,   823.30000
    808.97,  2688.60000,   822.70000
    809.43,  2697.90000,   819.40000
    809.88,  2699.00000,   812.40000
    810.34,  2694.70000,   808.80000
    810.80,  2711.20000,   813.90000
    811.26,  2728.00000,   818.10000
    811.71,  2713.00000,   820.50000
    812.17,  2728.20000,   831.20000
    812.63,  2717.40000,   832.60000
    813.08,  2688.30000,   833.80000
    813.54,  2698.90000,   828.80000
    814.00,  2716.10000,   818.80000
    814.45,  2718.10000,   811.50000
    814.91,  2733.10000,   812.50000
    815.37,  2714.40000,   814.50000
    815.82,  2690.40000,   823.70000
    816.28,  2682.70000,   817.30000
    816.74,  2690.90000,   810.10000
    817.19,  2666.00000,   804.20000
    817.65,  2681.30000,   802.90000
    818.11,  2707.60000,   798.50000
    818.56,  2719.20000,   793.20000
    819.02,  2704.80000,   801.10000
    819.48,  2707.80000,   802.70000
    819.93,  2664.30000,   803.30000
    820.39,  2684.60000,   810.50000
    820.84,  2723.10000,   809.40000
    821.30,  2744.80000,   801.80000
    821.76,  2743.30000,   805.90000
    822.21,  2747.40000,   806.20000
    822.67,  2721.40000,   806.90000
    823.13,  2686.50000,   809.40000
    823.58,  2718.20000,   806.90000
    824.04,  2738.20000,   795.40000
    824.49,  2735.00000,   795.10000
    824.95,  2734.40000,   803.20000
    825.41,  2739.70000,   802.50000
    825.86,  2716.40000,   797.10000
    826.32,  2755.30000,   785.80000
    826.78,  2742.10000,   772.80000
    827.23,  2713.00000,   785.20000
    827.69,  2684.20000,   795.40000
    828.14,  2685.70000,   796.20000
    828.60,  2704.70000,   791.00000
    829.06,  2725.40000,   790.10000
    829.51,  2719.60000,   786.50000
    829.97,  2721.70000,   797.30000
    830.42,  2710.40000,   798.30000
    830.88,  2698.70000,   788.00000
    831.34,  2701.90000,   787.20000
    831.79,  2715.90000,   798.10000
    832.25,  2728.30000,   782.60000
    832.70,  2725.70000,   774.80000
    833.16,  2727.80000,   777.50000
    833.61,  2723.30000,   769.00000
    834.07,  2719.00000,   772.40000
    834.53,  2704.00000,   791.10000
    834.98,  2699.50000,   782.50000
    835.44,  2682.40000,   777.70000
    835.89,  2693.80000,   779.80000
    836.35,  2715.40000,   769.20000
    836.80,  2737.30000,   766.80000
    837.26,  2713.10000,   778.00000
    837.71,  2688.20000,   781.50000
    838.17,  2676.80000,   787.00000
    838.63,  2672.70000,   786.70000
    839.08,  2679.50000,   776.80000
    839.54,  2696.20000,   776.20000
    839.99,  2693.00000,   774.60000
    840.45,  2704.90000,   770.10000
    840.90,  2723.40000,   770.50000
    841.36,  2738.90000,   767.00000
    841.81,  2731.00000,   770.30000
    842.27,  2717.30000,   775.00000
    842.72,  2695.30000,   772.80000
    843.18,  2697.50000,   772.20000
    843.63,  2672.70000,   769.30000
    844.09,  2674.50000,   767.50000
    844.55,  2656.80000,   784.60000
    845.00,  2652.40000,   792.00000
    845.46,  2665.00000,   789.30000
    845.91,  2685.00000,   785.00000
    846.37,  2697.40000,   774.50000
    846.82,  2725.80000,   765.50000
    847.28,  2731.90000,   764.60000
    847.73,  2684.20000,   770.40000
    848.19,  2709.00000,   776.30000
    848.64,  2716.10000,   771.40000
    849.10,  2731.10000,   777.20000
    849.55,  2731.40000,   788.60000
    850.01,  2727.80000,   778.40000
    850.46,  2671.80000,   776.30000
    850.92,  2699.00000,   772.70000
    851.37,  2713.60000,   754.20000
    851.83,  2722.40000,   747.90000
    852.28,  2720.30000,   757.90000
    852.73,  2705.60000,   752.80000
    853.19,  2675.60000,   754.20000
    853.64,  2679.00000,   752.70000
    854.10,  2688.80000,   747.60000
    854.55,  2697.60000,   740.00000
    855.01,  2703.60000,   742.20000
    855.46,  2673.30000,   753.10000
    855.92,  2658.10000,   769.00000
    856.37,  2650.90000,   785.40000
    856.83,  2649.40000,   788.50000
    857.28,  2677.70000,   778.80000
    857.74,  2690.00000,   765.00000
    858.19,  2692.20000,   753.10000
    858.64,  2708.70000,   751.00000
    859.10,  2698.50000,   747.50000
    859.55,  2671.70000,   749.20000
    860.01,  2729.30000,   754.70000
    860.46,  2750.40000,   761.40000
    860.92,  2747.60000,   761.50000
    861.37,  2740.80000,   761.70000
    861.83,  2736.80000,   750.40000
    862.28,  2702.30000,   756.20000
    862.73,  2717.90000,   766.70000
    863.19,  2704.60000,   771.20000
    863.64,  2684.70000,   768.00000
    864.10,  2674.80000,   756.80000
    864.55,  2703.00000,   750.40000
    865.01,  2700.30000,   759.90000
    865.46,  2713.20000,   769.80000
    865.91,  2699.70000,   772.60000
    866.37,  2685.80000,   771.40000
    866.82,  2673.80000,   757.40000
    867.28,  2674.30000,   751.60000
    867.73,  2666.30000,   749.00000
    868.18,  2704.50000,   743.70000
    868.64,  2712.20000,   748.80000
    869.09,  2735.40000,   756.40000
    869.55,  2742.90000,   758.70000
    870.00,  2725.80000,   766.50000
    870.45,  2710.40000,   758.80000
    870.91,  2681.40000,   758.00000
    871.36,  2655.90000,   761.00000
    871.81,  2680.70000,   752.30000
    872.27,  2704.00000,   761.20000
    872.72,  2711.60000,   765.00000
    873.18,  2713.30000,   763.20000
    873.63,  2683.30000,   764.00000
    874.08,  2678.80000,   758.40000
    874.54,  2694.00000,   749.60000
    874.99,  2692.60000,   757.50000
    875.44,  2672.80000,   760.50000
    875.90,  2652.40000,   767.40000
    876.35,  2647.90000,   770.80000
    876.81,  2683.10000,   775.40000
    877.26,  2716.50000,   772.90000
    877.71,  2709.40000,   766.90000
    878.17,  2681.90000,   761.50000
    878.62,  2698.70000,   766.50000
    879.07,  2711.90000,   772.70000
    879.53,  2728.00000,   778.30000
    879.98,  2724.20000,   775.20000
    880.43,  2705.40000,   774.30000
    880.89,  2694.10000,   769.20000
    881.34,  2702.30000,   775.40000
    881.79,  2716.60000,   769.10000
    882.25,  2706.30000,   764.90000
    882.70,  2683.00000,   766.40000
    883.15,  2665.30000,   769.50000
    883.61,  2673.80000,   770.80000
    884.06,  2656.60000,   777.30000
    884.51,  2679.30000,   770.70000
    884.97,  2669.60000,   767.00000
    885.42,  2685.40000,   763.90000
    885.87,  2687.10000,   756.30000
    886.32,  2703.60000,   756.90000
    886.78,  2674.80000,   770.90000
    887.23,  2679.60000,   777.50000
    887.68,  2669.40000,   778.80000
    888.14,  2672.70000,   785.30000
    888.59,  2658.80000,   779.30000
    889.04,  2648.70000,   766.70000
    889.50,  2625.20000,   763.50000
    889.95,  2646.70000,   758.10000
    890.40,  2676.30000,   758.60000
    890.85,  2694.10000,   774.90000
    891.31,  2685.20000,   783.70000
    891.76,  2685.80000,   783.50000
    892.21,  2666.80000,   785.30000
    892.67,  2677.50000,   776.70000
    893.12,  2674.30000,   769.10000
    893.57,  2690.80000,   760.50000
    894.02,  2693.30000,   759.10000
    894.48,  2713.00000,   766.60000
    894.93,  2699.30000,   779.50000
    895.38,  2700.60000,   782.50000
    895.83,  2677.40000,   786.70000
    896.29,  2683.50000,   779.90000
    896.74,  2676.60000,   777.30000
    897.19,  2693.00000,   784.50000
    897.64,  2699.60000,   789.40000
    898.10,  2701.60000,   796.50000
    898.55,  2682.60000,   793.30000
    899.00,  2679.00000,   790.40000
    899.45,  2649.50000,   779.50000
    899.91,  2643.50000,   774.10000
    900.36,  2631.30000,   772.30000
    900.81,  2660.20000,   780.80000
    901.26,  2674.40000,   781.30000
    901.72,  2692.70000,   798.00000
    902.17,  2685.30000,   794.10000
    902.62,  2689.40000,   793.40000
    903.07,  2655.50000,   798.60000
    903.52,  2666.40000,   802.70000
    903.98,  2671.00000,   795.00000
    904.43,  2674.60000,   799.10000
    904.88,  2668.60000,   787.90000
    905.33,  2675.50000,   783.00000
    905.79,  2654.00000,   794.70000
    906.24,  2661.90000,   800.80000
    906.69,  2679.50000,   793.80000
    907.14,  2678.80000,   797.10000
    907.59,  2656.80000,   791.80000
    908.05,  2645.20000,   790.90000
    908.50,  2631.00000,   791.10000
    908.95,  2648.40000,   790.40000
    909.40,  2661.80000,   796.40000
    909.85,  2651.60000,   802.70000
    910.31,  2651.80000,   798.60000
    910.76,  2634.90000,   798.40000
    911.21,  2621.10000,   796.90000
    911.66,  2624.60000,   805.70000
    912.11,  2624.30000,   812.50000
    912.56,  2645.90000,   823.20000
    913.02,  2673.90000,   826.70000
    913.47,  2670.00000,   828.40000
    913.92,  2664.60000,   837.70000
    914.37,  2648.80000,   850.10000
    914.82,  2649.80000,   849.40000
    915.27,  2661.90000,   865.30000
    915.73,  2671.20000,   883.00000
    916.18,  2657.70000,   894.10000
    916.63,  2650.10000,   892.20000
    917.08,  2619.40000,   901.90000
    917.53,  2666.90000,   904.90000
    917.98,  2555.50000,   919.50000
    918.44,  2889.80000,   940.60000
    918.89,  3063.80000,   958.20000
    919.34,  3113.90000,   966.60000
    919.79,  3017.60000,   988.60000
    920.24,  2864.70000,   997.80000
    920.69,  2549.70000,  1018.80000
    921.14,  2685.00000,  1030.80000
    921.59,  2671.90000,  1059.30000
    922.05,  2662.00000,  1093.40000
    922.50,  2652.00000,  1132.00000
    922.95,  2676.90000,  1174.00000
    923.40,  2699.00000,  1233.80000
    923.85,  2711.50000,  1313.30000
    924.30,  2718.00000,  1423.30000
    924.75,  2708.40000,  1548.30000
    925.20,  2684.90000,  1705.20000
    925.66,  2672.80000,  1876.60000
    926.11,  2664.60000,  2065.90000
    926.56,  2657.10000,  2279.10000
    927.01,  2666.30000,  2489.40000
    927.46,  2664.20000,  2712.80000
    927.91,  2635.00000,  2976.00000
    928.36,  2619.10000,  3275.70000
    928.81,  2630.30000,  3620.60000
    929.26,  2645.80000,  3996.40000
    929.71,  2674.20000,  4330.20000
    930.16,  2698.70000,  4618.10000
    930.62,  2671.10000,  4860.30000
    931.07,  2652.60000,  5086.00000
    931.52,  2649.70000,  5302.10000
    931.97,  2657.30000,  5517.90000
    932.42,  2668.30000,  5697.40000
    932.87,  2688.30000,  5850.90000
    933.32,  2672.80000,  5970.60000
    933.77,  2686.70000,  6065.50000
    934.22,  2684.70000,  6122.60000
    934.67,  2698.50000,  6185.40000
    935.12,  2684.60000,  6287.80000
    935.57,  2659.00000,  6393.30000
    936.02,  2622.00000,  6484.90000
    936.47,  2633.50000,  6528.00000
    936.93,  2613.40000,  6518.60000
    937.38,  2623.90000,  6515.30000
    937.83,  2643.40000,  6551.30000
    938.28,  2647.40000,  6652.40000
    938.73,  2643.50000,  6860.10000
    939.18,  2665.00000,  7083.10000
    939.63,  2662.70000,  7304.30000
    940.08,  2668.10000,  7474.30000
    940.53,  2682.20000,  7588.50000
    940.98,  2675.20000,  7714.00000
    941.43,  2650.00000,  7858.20000
    941.88,  2651.90000,  7945.50000
    942.33,  2666.30000,  8035.10000
    942.78,  2667.10000,  8079.30000
    943.23,  2674.30000,  8130.90000
    943.68,  2670.30000,  8190.00000
    944.13,  2671.20000,  8196.00000
    944.58,  2679.20000,  8169.30000
    945.03,  2681.30000,  8170.90000
    945.48,  2654.20000,  8204.20000
    945.93,  2651.70000,  8283.90000
    946.38,  2655.30000,  8356.50000
    946.83,  2681.00000,  8386.80000
    947.28,  2689.30000,  8409.20000
    947.73,  2683.70000,  8444.70000
    948.18,  2655.60000,  8481.20000
    948.63,  2648.20000,  8470.90000
    949.08,  2647.20000,  8465.70000
    949.53,  2648.10000,  8418.80000
    949.98,  2638.00000,  8372.30000
    950.43,  2645.20000,  8351.20000
    950.88,  2651.90000,  8292.10000
    951.33,  2664.70000,  8142.20000
    951.78,  2691.30000,  8005.10000
    952.23,  2691.30000,  7849.80000
    952.68,  2669.10000,  7753.70000
    953.13,  2661.50000,  7680.80000
    953.58,  2665.60000,  7631.70000
    954.03,  2652.20000,  7560.10000
    954.48,  2651.90000,  7503.80000
    954.93,  2653.40000,  7449.70000
    955.38,  2648.50000,  7409.80000
    955.83,  2652.60000,  7334.20000
    956.28,  2654.70000,  7229.00000
    956.73,  2662.90000,  7061.00000
    957.18,  2663.30000,  6836.90000
    957.62,  2660.30000,  6595.00000
    958.07,  2671.60000,  6364.50000
    958.52,  2658.90000,  6214.20000
    958.97,  2644.10000,  6122.70000
    959.42,  2646.90000,  6031.10000
    959.87,  2642.30000,  5910.10000
    960.32,  2645.80000,  5752.80000
    960.77,  2671.20000,  5559.60000
    961.22,  2705.70000,  5382.80000
    961.67,  2715.00000,  5252.50000
    962.12,  2687.10000,  5094.90000
    962.57,  2667.10000,  4953.90000
    963.02,  2670.90000,  4823.20000
    963.47,  2654.70000,  4708.30000
    963.92,  2676.20000,  4604.80000
    964.36,  2672.90000,  4534.00000
    964.81,  2660.50000,  4452.10000
    965.26,  2664.20000,  4398.40000
    965.71,  2672.80000,  4349.40000
    966.16,  2661.70000,  4302.20000
    966.61,  2654.60000,  4205.80000
    967.06,  2640.00000,  4092.40000
    967.51,  2658.30000,  3964.50000
    967.96,  2670.40000,  3819.30000
    968.41,  2672.10000,  3676.40000
    968.85,  2671.70000,  3549.20000
    969.30,  2667.40000,  3401.20000
    969.75,  2668.30000,  3268.90000
    970.20,  2677.10000,  3136.60000
    970.65,  2683.80000,  3006.20000
    971.10,  2668.10000,  2900.60000
    971.55,  2672.10000,  2793.90000
    972.00,  2660.50000,  2685.20000
    972.44,  2646.50000,  2583.30000
    972.89,  2664.20000,  2494.10000
    973.34,  2679.30000,  2432.90000
    973.79,  2676.40000,  2394.50000
    974.24,  2693.20000,  2365.80000
    974.69,  2668.00000,  2345.30000
    975.14,  2635.90000,  2327.40000
    975.59,  2639.00000,  2326.20000
    976.03,  2627.00000,  2330.40000
    976.48,  2619.40000,  2345.30000
    976.93,  2623.20000,  2348.00000
    977.38,  2622.00000,  2339.20000
    977.83,  2615.00000,  2325.60000
    978.28,  2628.80000,  2331.70000
    978.72,  2645.50000,  2322.00000
    979.17,  2666.40000,  2338.50000
    979.62,  2682.20000,  2345.20000
    980.07,  2685.20000,  2359.80000
    980.52,  2668.20000,  2378.70000
    980.97,  2640.50000,  2404.20000
    981.41,  2598.90000,  2399.70000
    981.86,  2582.60000,  2384.90000
    982.31,  2604.20000,  2354.50000
    982.76,  2624.30000,  2314.60000
    983.21,  2663.20000,  2260.00000
    983.66,  2667.80000,  2195.00000
    984.10,  2635.00000,  2115.60000
    984.55,  2611.70000,  2026.10000
    985.00,  2596.90000,  1945.20000
    985.45,  2581.60000,  1860.70000
    985.90,  2603.50000,  1793.90000
    986.34,  2623.50000,  1734.40000
    986.79,  2620.00000,  1681.10000
    987.24,  2619.70000,  1631.80000
    987.69,  2593.60000,  1581.90000
    988.14,  2591.00000,  1516.70000
    988.58,  2604.50000,  1470.30000
    989.03,  2614.10000,  1432.60000
    989.48,  2616.70000,  1395.80000
    989.93,  2620.60000,  1359.40000
    990.38,  2603.20000,  1317.30000
    990.82,  2617.00000,  1272.50000
    991.27,  2632.00000,  1251.50000
    991.72,  2655.30000,  1227.50000
    992.17,  2638.00000,  1206.80000
    992.61,  2643.60000,  1193.10000
    993.06,  2621.70000,  1168.10000
    993.51,  2639.00000,  1145.70000
    993.96,  2634.00000,  1131.80000
    994.41,  2632.20000,  1101.50000
    994.85,  2611.30000,  1087.60000
    995.30,  2625.30000,  1077.00000
    995.75,  2630.70000,  1063.80000
    996.20,  2669.70000,  1049.20000
    996.64,  2653.80000,  1029.60000
    997.09,  2619.40000,  1009.70000
    997.54,  2607.00000,  1000.00000
    997.99,  2596.40000,   985.60000
    998.43,  2597.30000,   982.10000
    998.88,  2601.20000,   979.60000
    999.33,  2607.30000,   976.30000
    999.77,  2622.50000,   973.70000
   1000.22,  2640.10000,   968.70000
   1000.67,  2655.30000,   962.30000
   1001.12,  2656.30000,   953.30000
   1001.56,  2629.00000,   944.00000
   1002.01,  2621.30000,   931.10000
   1002.46,  2631.80000,   925.60000
   1002.91,  2608.10000,   920.00000
   1003.35,  2626.80000,   911.30000
   1003.80,  2621.00000,   898.50000
   1004.25,  2620.70000,   900.00000
   1004.69,  2623.90000,   902.60000
   1005.14,  2606.70000,   913.00000
   1005.59,  2603.20000,   917.10000
   1006.04,  2635.50000,   920.50000
   1006.48,  2649.60000,   916.20000
   1006.93,  2677.60000,   916.00000
   1007.38,  2669.60000,   916.50000
   1007.82,  2627.40000,   910.70000
   1008.27,  2610.30000,   907.80000
   1008.72,  2598.00000,   910.80000
   1009.16,  2595.10000,   908.50000
   1009.61,  2610.30000,   901.10000
   1010.06,  2612.50000,   902.00000
   1010.50,  2638.00000,   906.00000
   1010.95,  2660.30000,   910.40000
   1011.40,  2666.80000,   908.50000
   1011.85,  2650.20000,   896.90000
   1012.29,  2637.30000,   896.30000
   1012.74,  2602.00000,   904.10000
   1013.19,  2596.60000,   905.70000
   1013.63,  2640.60000,   901.60000
   1014.08,  2666.30000,   891.90000
   1014.53,  2667.40000,   884.00000
   1014.97,  2650.30000,   888.90000
   1015.42,  2618.50000,   895.40000
   1015.86,  2586.60000,   890.40000
   1016.31,  2607.20000,   898.50000
   1016.76,  2627.20000,   903.70000
   1017.20,  2615.80000,   910.00000
   1017.65,  2595.10000,   912.50000
   1018.10,  2591.60000,   914.80000
   1018.54,  2581.90000,   910.00000
   1018.99,  2604.50000,   914.10000
   1019.44,  2613.30000,   911.80000
   1019.88,  2611.60000,   904.40000
   1020.33,  2609.70000,   900.80000
   1020.78,  2613.10000,   901.30000
   1021.22,  2619.00000,   907.10000
   1021.67,  2619.10000,   912.10000
   1022.11,  2615.00000,   911.00000
   1022.56,  2617.10000,   910.60000
   1023.01,  2611.20000,   901.50000
   1023.45,  2601.50000,   892.80000
   1023.90,  2596.50000,   902.00000
   1024.34,  2577.00000,   903.30000
   1024.79,  2583.40000,   906.10000
   1025.24,  2600.50000,   911.20000
   1025.68,  2598.10000,   908.50000
   1026.13,  2603.50000,   904.60000
   1026.58,  2610.20000,   908.70000
   1027.02,  2623.90000,   914.90000
   1027.47,  2627.90000,   919.70000
   1027.91,  2630.70000,   920.20000
   1028.36,  2599.60000,   920.90000
   1028.80,  2583.40000,   920.70000
   1029.25,  2565.80000,   910.80000
   1029.70,  2573.90000,   916.90000
   1030.14,  2573.30000,   917.60000
   1030.59,  2578.10000,   907.30000
   1031.03,  2576.70000,   912.30000
   1031.48,  2592.50000,   910.90000
   1031.93,  2621.50000,   903.00000
   1032.37,  2652.20000,   909.30000
   1032.82,  2653.10000,   917.70000
   1033.26,  2651.80000,   922.50000
   1033.71,  2624.90000,   930.30000
   1034.15,  2613.40000,   924.50000
   1034.60,  2609.10000,   919.60000
   1035.05,  2624.90000,   911.00000
   1035.49,  2614.40000,   910.80000
   1035.94,  2611.40000,   916.00000
   1036.38,  2576.20000,   926.30000
   1036.83,  2553.30000,   932.80000
   1037.27,  2538.40000,   937.30000
   1037.72,  2542.90000,   933.60000
   1038.16,  2647.40000,   935.80000
   1038.61,  2722.30000,   938.30000
   1039.05,  2730.90000,   947.70000
   1039.50,  2713.70000,   953.70000
   1039.95,  2652.40000,   960.00000
   1040.39,  2582.90000,   953.00000
   1040.84,  2591.40000,   957.90000
   1041.28,  2594.20000,   948.80000
   1041.73,  2594.20000,   938.80000
   1042.17,  2603.00000,   935.30000
   1042.62,  2599.60000,   936.20000
   1043.06,  2610.70000,   941.80000
   1043.51,  2585.60000,   958.70000
   1043.95,  2598.70000,   964.00000
   1044.40,  2595.40000,   969.10000
   1044.84,  2584.70000,   963.00000
   1045.29,  2577.40000,   949.20000
   1045.73,  2586.00000,   943.20000
   1046.18,  2569.40000,   937.80000
   1046.62,  2568.80000,   945.10000
   1047.07,  2562.50000,   959.20000
   1047.51,  2545.00000,   964.30000
   1047.96,  2583.70000,   957.90000
   1048.40,  2627.70000,   953.50000
   1048.85,  2643.00000,   950.40000
   1049.29,  2630.00000,   954.50000
   1049.74,  2587.00000,   959.10000
   1050.18,  2543.00000,   965.60000
   1050.63,  2524.70000,   984.00000
   1051.07,  2605.20000,   910.20000
   1051.52,  2664.00000,   872.70000
   1051.96,  2670.40000,   861.50000
   1052.41,  2641.10000,   884.50000
   1052.85,  2598.50000,   930.40000
   1053.30,  2526.10000,   992.50000
   1053.74,  2561.10000,   953.60000
   1054.18,  2564.40000,   959.10000
   1054.63,  2542.80000,   975.40000
   1055.07,  2528.70000,   995.50000
   1055.52,  2518.50000,  1008.20000
   1055.96,  2510.30000,  1015.20000
   1056.41,  2509.40000,  1006.80000
   1056.85,  2506.70000,   999.70000
   1057.30,  2515.40000,   992.80000
   1057.74,  2516.70000,   982.50000
   1058.18,  2516.20000,   983.10000
   1058.63,  2495.90000,   987.30000
   1059.07,  2485.80000,   998.40000
   1059.52,  2492.50000,  1003.20000
   1059.96,  2501.80000,  1001.30000
   1060.41,  2502.60000,   999.60000
   1060.85,  2511.30000,  1004.30000
   1061.30,  2500.00000,  1009.00000
   1061.74,  2484.70000,  1016.40000
   1062.18,  2482.00000,  1014.00000
   1062.63,  2462.20000,  1011.10000
   1063.07,  2459.20000,  1012.00000
   1063.52,  2463.50000,  1013.90000
   1063.96,  2485.20000,  1020.50000
   1064.40,  2484.30000,  1025.20000
   1064.85,  2485.20000,  1015.70000
   1065.29,  2467.60000,  1019.50000
   1065.74,  2454.20000,  1025.30000
   1066.18,  2426.30000,  1026.50000
