2D Measure spectrum data V5.74

<< MEASURE 1 >>
Data count = 2048
Exposure time = 30000 msec
Average = 10
Inspected time = 2020/10/23 17:16

Wave-dcm-1,Dark spec.  ,Spectrum
    108.17,  2232.40000,   911.40000
    108.66,  2241.50000,   896.00000
    109.15,  2251.30000,   890.60000
    109.65,  2278.40000,   876.50000
    110.14,  2288.50000,   872.40000
    110.63,  2297.30000,   865.10000
    111.13,  2314.70000,   854.20000
    111.62,  2308.00000,   831.30000
    112.11,  2320.80000,   823.50000
    112.60,  2342.50000,   813.30000
    113.10,  2328.20000,   811.40000
    113.59,  2343.70000,   811.80000
    114.08,  2361.10000,   805.30000
    114.58,  2347.60000,   808.10000
    115.07,  2383.20000,   816.70000
    115.56,  2396.10000,   818.70000
    116.06,  2386.50000,   823.00000
    116.55,  2391.20000,   822.30000
    117.04,  2388.20000,   812.40000
    117.53,  2371.60000,   811.60000
    118.03,  2398.90000,   816.30000
    118.52,  2408.30000,   816.30000
    119.01,  2402.30000,   825.40000
    119.51,  2491.10000,   828.10000
    120.00,  2583.80000,   831.20000
    120.49,  2620.60000,   842.80000
    120.98,  2611.50000,   864.30000
    121.48,  2522.90000,   882.10000
    121.97,  2414.10000,   894.80000
    122.46,  2403.50000,   903.10000
    122.95,  2438.50000,   904.80000
    123.45,  2478.60000,   920.30000
    123.94,  2491.60000,   935.10000
    124.43,  2514.90000,   948.90000
    124.92,  2549.00000,   952.00000
    125.42,  2546.10000,   968.80000
    125.91,  2557.90000,   987.60000
    126.40,  2546.50000,  1008.40000
    126.89,  2515.30000,  1030.30000
    127.39,  2507.30000,  1045.90000
    127.88,  2502.00000,  1062.30000
    128.37,  2500.10000,  1080.00000
    128.86,  2517.80000,  1102.60000
    129.35,  2514.80000,  1122.90000
    129.85,  2519.80000,  1136.80000
    130.34,  2520.30000,  1137.00000
    130.83,  2523.80000,  1135.00000
    131.32,  2532.50000,  1132.70000
    131.81,  2540.20000,  1138.40000
    132.31,  2536.70000,  1154.00000
    132.80,  2533.20000,  1165.70000
    133.29,  2524.20000,  1169.90000
    133.78,  2534.30000,  1166.40000
    134.27,  2552.00000,  1169.70000
    134.77,  2562.10000,  1183.90000
    135.26,  2573.70000,  1209.00000
    135.75,  2562.30000,  1237.00000
    136.24,  2572.60000,  1259.70000
    136.73,  2554.80000,  1269.40000
    137.23,  2573.60000,  1264.60000
    137.72,  2570.40000,  1263.30000
    138.21,  2565.70000,  1270.50000
    138.70,  2558.50000,  1277.80000
    139.19,  2594.70000,  1294.50000
    139.68,  2586.20000,  1298.30000
    140.18,  2597.80000,  1296.70000
    140.67,  2610.10000,  1301.70000
    141.16,  2609.00000,  1316.60000
    141.65,  2594.50000,  1322.20000
    142.14,  2596.30000,  1331.00000
    142.63,  2619.50000,  1332.10000
    143.13,  2616.10000,  1346.50000
    143.62,  2646.50000,  1371.60000
    144.11,  2642.30000,  1396.30000
    144.60,  2600.20000,  1413.00000
    145.09,  2593.70000,  1412.10000
    145.58,  2650.40000,  1422.80000
    146.07,  2667.10000,  1429.80000
    146.56,  2683.00000,  1432.30000
    147.06,  2674.50000,  1439.30000
    147.55,  2645.30000,  1456.00000
    148.04,  2611.90000,  1465.20000
    148.53,  2638.20000,  1494.60000
    149.02,  2607.20000,  1516.60000
    149.51,  2675.50000,  1525.70000
    150.00,  2723.50000,  1543.90000
    150.49,  2747.70000,  1556.10000
    150.99,  2749.60000,  1576.30000
    151.48,  2729.60000,  1602.90000
    151.97,  2650.90000,  1632.10000
    152.46,  2660.00000,  1653.90000
    152.95,  2637.10000,  1688.00000
    153.44,  2634.70000,  1707.80000
    153.93,  2648.80000,  1746.90000
    154.42,  2672.00000,  1778.40000
    154.91,  2662.50000,  1793.90000
    155.40,  2652.10000,  1804.60000
    155.89,  2632.10000,  1820.00000
    156.39,  2649.60000,  1817.00000
    156.88,  2620.90000,  1835.00000
    157.37,  2635.20000,  1843.70000
    157.86,  2643.60000,  1850.20000
    158.35,  2653.80000,  1860.10000
    158.84,  2668.00000,  1885.10000
    159.33,  2714.50000,  1916.20000
    159.82,  2717.90000,  1948.30000
    160.31,  2736.30000,  1973.80000
    160.80,  2769.80000,  1996.40000
    161.29,  2724.70000,  2007.70000
    161.78,  2690.40000,  2027.60000
    162.27,  2659.30000,  2055.90000
    162.76,  2649.20000,  2074.50000
    163.25,  2661.80000,  2092.80000
    163.74,  2690.40000,  2109.20000
    164.23,  2692.90000,  2123.80000
    164.72,  2715.70000,  2138.70000
    165.21,  2694.80000,  2153.80000
    165.70,  2678.60000,  2168.90000
    166.20,  2713.90000,  2177.10000
    166.69,  2737.30000,  2191.50000
    167.18,  2747.90000,  2214.10000
    167.67,  2738.20000,  2249.40000
    168.16,  2710.70000,  2274.00000
    168.65,  2661.90000,  2290.90000
    169.14,  2689.70000,  2281.50000
    169.63,  2696.60000,  2269.90000
    170.12,  2690.50000,  2261.50000
    170.61,  2680.60000,  2263.40000
    171.10,  2737.70000,  2258.80000
    171.59,  2730.50000,  2249.50000
    172.08,  2744.60000,  2242.60000
    172.57,  2742.60000,  2229.50000
    173.06,  2738.40000,  2222.40000
    173.55,  2724.80000,  2210.30000
    174.04,  2714.00000,  2203.70000
    174.53,  2703.20000,  2205.30000
    175.02,  2702.10000,  2217.00000
    175.50,  2729.60000,  2217.00000
    175.99,  2757.80000,  2231.00000
    176.48,  2784.90000,  2241.00000
    176.97,  2757.70000,  2251.50000
    177.46,  2760.00000,  2249.80000
    177.95,  2735.30000,  2243.20000
    178.44,  2723.00000,  2225.40000
    178.93,  2700.00000,  2226.80000
    179.42,  2719.90000,  2226.90000
    179.91,  2727.70000,  2220.50000
    180.40,  2741.40000,  2211.30000
    180.89,  2750.70000,  2208.60000
    181.38,  2742.80000,  2200.20000
    181.87,  2732.70000,  2211.50000
    182.36,  2727.70000,  2228.70000
    182.85,  2700.90000,  2239.80000
    183.34,  2720.10000,  2255.90000
    183.83,  2731.40000,  2249.40000
    184.32,  2730.50000,  2237.40000
    184.81,  2771.80000,  2230.30000
    185.29,  2767.80000,  2214.50000
    185.78,  2733.90000,  2211.30000
    186.27,  2739.40000,  2201.10000
    186.76,  2725.90000,  2187.70000
    187.25,  2696.80000,  2181.50000
    187.74,  2770.70000,  2179.10000
    188.23,  2804.50000,  2157.50000
    188.72,  2830.20000,  2147.90000
    189.21,  2818.30000,  2147.20000
    189.70,  2780.10000,  2159.60000
    190.19,  2739.20000,  2175.20000
    190.67,  2726.10000,  2199.30000
    191.16,  2726.50000,  2208.50000
    191.65,  2733.20000,  2208.70000
    192.14,  2713.60000,  2223.00000
    192.63,  2733.20000,  2226.70000
    193.12,  2750.50000,  2227.70000
    193.61,  2735.90000,  2240.40000
    194.10,  2756.90000,  2248.30000
    194.59,  2753.10000,  2244.50000
    195.07,  2741.50000,  2249.40000
    195.56,  2750.20000,  2242.80000
    196.05,  2734.00000,  2228.20000
    196.54,  2725.20000,  2216.20000
    197.03,  2747.30000,  2212.30000
    197.52,  2793.10000,  2205.20000
    198.01,  2797.90000,  2213.30000
    198.49,  2798.30000,  2221.60000
    198.98,  2788.80000,  2213.50000
    199.47,  2750.90000,  2194.70000
    199.96,  2735.30000,  2186.40000
    200.45,  2751.80000,  2165.00000
    200.94,  2735.00000,  2152.90000
    201.43,  2737.50000,  2155.20000
    201.91,  2730.40000,  2147.20000
    202.40,  2722.20000,  2136.70000
    202.89,  2723.50000,  2129.30000
    203.38,  2742.20000,  2120.10000
    203.87,  2747.40000,  2116.70000
    204.36,  2735.00000,  2120.10000
    204.84,  2734.00000,  2115.90000
    205.33,  2748.60000,  2111.40000
    205.82,  2760.90000,  2104.90000
    206.31,  2756.00000,  2108.40000
    206.80,  2758.40000,  2105.90000
    207.28,  2769.00000,  2108.00000
    207.77,  2781.90000,  2104.00000
    208.26,  2792.40000,  2111.40000
    208.75,  2789.50000,  2115.10000
    209.24,  2764.80000,  2118.90000
    209.72,  2768.70000,  2126.70000
    210.21,  2785.30000,  2121.60000
    210.70,  2766.30000,  2109.40000
    211.19,  2781.00000,  2120.30000
    211.68,  2787.60000,  2125.10000
    212.16,  2788.10000,  2137.90000
    212.65,  2794.20000,  2149.40000
    213.14,  2785.60000,  2143.80000
    213.63,  2769.80000,  2140.50000
    214.12,  2750.30000,  2147.80000
    214.60,  2768.90000,  2151.50000
    215.09,  2785.40000,  2157.70000
    215.58,  2788.80000,  2154.70000
    216.07,  2781.30000,  2160.90000
    216.55,  2785.70000,  2175.10000
    217.04,  2720.90000,  2189.00000
    217.53,  2719.40000,  2200.70000
    218.02,  2719.50000,  2211.80000
    218.50,  2726.20000,  2224.50000
    218.99,  2742.60000,  2243.40000
    219.48,  2776.40000,  2261.20000
    219.97,  2744.70000,  2283.00000
    220.45,  2755.00000,  2294.70000
    220.94,  2752.30000,  2308.10000
    221.43,  2761.50000,  2333.30000
    221.92,  2770.30000,  2365.30000
    222.40,  2772.00000,  2385.50000
    222.89,  2761.10000,  2411.00000
    223.38,  2785.90000,  2427.70000
    223.86,  2803.80000,  2444.50000
    224.35,  2823.70000,  2475.30000
    224.84,  2820.80000,  2506.90000
    225.33,  2807.00000,  2519.10000
    225.81,  2774.40000,  2527.60000
    226.30,  2759.30000,  2537.60000
    226.79,  2752.50000,  2543.60000
    227.27,  2739.50000,  2555.20000
    227.76,  2743.90000,  2567.40000
    228.25,  2776.60000,  2569.70000
    228.74,  2795.10000,  2563.50000
    229.22,  2817.20000,  2562.10000
    229.71,  2812.30000,  2562.60000
    230.20,  2792.00000,  2542.10000
    230.68,  2783.20000,  2517.70000
    231.17,  2772.90000,  2481.50000
    231.66,  2748.60000,  2443.10000
    232.14,  2739.00000,  2424.70000
    232.63,  2732.50000,  2401.80000
    233.12,  2757.60000,  2368.00000
    233.60,  2786.00000,  2334.50000
    234.09,  2764.00000,  2298.40000
    234.58,  2747.10000,  2275.60000
    235.06,  2740.90000,  2259.80000
    235.55,  2739.40000,  2225.90000
    236.04,  2739.60000,  2187.40000
    236.52,  2762.80000,  2154.20000
    237.01,  2744.10000,  2130.50000
    237.50,  2773.90000,  2122.70000
    237.98,  2767.50000,  2105.10000
    238.47,  2826.80000,  2091.80000
    238.96,  2835.40000,  2068.10000
    239.44,  2833.20000,  2042.90000
    239.93,  2832.70000,  2019.10000
    240.41,  2784.70000,  2015.90000
    240.90,  2717.00000,  2003.40000
    241.39,  2744.50000,  2001.80000
    241.87,  2785.30000,  1998.60000
    242.36,  2808.80000,  1987.80000
    242.85,  2855.70000,  1972.50000
    243.33,  2834.70000,  1970.20000
    243.82,  2798.40000,  1965.20000
    244.30,  2768.40000,  1972.50000
    244.79,  2775.10000,  1975.60000
    245.28,  2764.50000,  1971.80000
    245.76,  2768.30000,  1960.70000
    246.25,  2756.90000,  1953.20000
    246.74,  2772.00000,  1953.80000
    247.22,  2796.70000,  1964.20000
    247.71,  2794.80000,  1955.80000
    248.19,  2788.10000,  1946.40000
    248.68,  2790.40000,  1925.50000
    249.16,  2759.50000,  1922.40000
    249.65,  2786.60000,  1931.50000
    250.14,  2795.70000,  1948.10000
    250.62,  2773.40000,  1944.80000
    251.11,  2751.30000,  1943.00000
    251.59,  2740.40000,  1933.50000
    252.08,  2728.90000,  1930.90000
    252.57,  2742.30000,  1931.80000
    253.05,  2742.30000,  1934.50000
    253.54,  2781.00000,  1922.20000
    254.02,  2798.20000,  1925.80000
    254.51,  2816.70000,  1911.50000
    254.99,  2850.30000,  1870.10000
    255.48,  2837.40000,  1846.20000
    255.96,  2810.10000,  1842.30000
    256.45,  2824.70000,  1859.40000
    256.94,  2798.40000,  1889.10000
    257.42,  2776.70000,  1902.50000
    257.91,  2789.60000,  1894.20000
    258.39,  2781.90000,  1892.10000
    258.88,  2763.00000,  1900.70000
    259.36,  2784.00000,  1909.40000
    259.85,  2782.60000,  1905.20000
    260.33,  2790.40000,  1909.50000
    260.82,  2809.30000,  1911.90000
    261.30,  2819.40000,  1900.80000
    261.79,  2796.50000,  1891.50000
    262.27,  2783.20000,  1875.10000
    262.76,  2771.60000,  1871.50000
    263.24,  2765.20000,  1883.10000
    263.73,  2788.20000,  1893.90000
    264.22,  2784.90000,  1899.10000
    264.70,  2851.00000,  1901.20000
    265.19,  2877.80000,  1903.70000
    265.67,  2882.00000,  1892.70000
    266.16,  2853.20000,  1888.70000
    266.64,  2820.30000,  1887.50000
    267.13,  2748.10000,  1901.90000
    267.61,  2752.70000,  1914.60000
    268.10,  2767.80000,  1925.60000
    268.58,  2774.60000,  1912.90000
    269.06,  2773.30000,  1909.10000
    269.55,  2786.50000,  1912.20000
    270.03,  2797.90000,  1915.40000
    270.52,  2793.80000,  1933.30000
    271.00,  2808.50000,  1939.10000
    271.49,  2809.10000,  1934.30000
    271.97,  2803.70000,  1940.80000
    272.46,  2814.20000,  1940.40000
    272.94,  2819.70000,  1939.20000
    273.43,  2808.60000,  1958.80000
    273.91,  2781.80000,  1977.50000
    274.40,  2773.30000,  1981.40000
    274.88,  2762.20000,  1996.00000
    275.37,  2766.30000,  2001.70000
    275.85,  2766.70000,  2003.40000
    276.33,  2764.70000,  2009.90000
    276.82,  2773.50000,  2026.00000
    277.30,  2790.40000,  2030.70000
    277.79,  2789.40000,  2042.60000
    278.27,  2803.10000,  2052.50000
    278.76,  2819.50000,  2052.40000
    279.24,  2815.70000,  2063.50000
    279.73,  2810.10000,  2076.10000
    280.21,  2799.60000,  2083.40000
    280.69,  2772.90000,  2101.00000
    281.18,  2777.50000,  2117.00000
    281.66,  2794.10000,  2137.80000
    282.15,  2823.00000,  2157.60000
    282.63,  2821.40000,  2154.10000
    283.11,  2814.30000,  2149.90000
    283.60,  2817.20000,  2149.00000
    284.08,  2833.80000,  2155.30000
    284.57,  2802.50000,  2178.20000
    285.05,  2795.20000,  2192.80000
    285.53,  2777.70000,  2184.90000
    286.02,  2757.50000,  2180.40000
    286.50,  2782.10000,  2178.50000
    286.99,  2805.60000,  2182.80000
    287.47,  2787.90000,  2189.30000
    287.95,  2777.80000,  2196.70000
    288.44,  2774.90000,  2192.70000
    288.92,  2770.00000,  2196.50000
    289.41,  2779.90000,  2211.10000
    289.89,  2807.60000,  2206.90000
    290.37,  2814.40000,  2198.90000
    290.86,  2835.40000,  2198.20000
    291.34,  2804.10000,  2185.40000
    291.82,  2781.60000,  2188.90000
    292.31,  2760.00000,  2189.70000
    292.79,  2773.70000,  2188.30000
    293.28,  2775.70000,  2189.80000
    293.76,  2790.30000,  2180.80000
    294.24,  2790.90000,  2167.10000
    294.73,  2807.50000,  2152.70000
    295.21,  2813.40000,  2138.30000
    295.69,  2823.10000,  2134.70000
    296.18,  2796.70000,  2129.80000
    296.66,  2759.50000,  2116.10000
    297.14,  2758.00000,  2104.10000
    297.63,  2768.10000,  2090.70000
    298.11,  2784.50000,  2077.20000
    298.59,  2816.30000,  2072.10000
    299.08,  2820.80000,  2058.60000
    299.56,  2821.80000,  2042.20000
    300.04,  2841.70000,  2026.60000
    300.53,  2845.60000,  2018.10000
    301.01,  2846.50000,  1988.60000
    301.49,  2838.80000,  1970.20000
    301.98,  2808.60000,  1954.60000
    302.46,  2789.30000,  1944.90000
    302.94,  2791.80000,  1943.60000
    303.42,  2790.60000,  1939.70000
    303.91,  2772.70000,  1925.80000
    304.39,  2754.80000,  1897.60000
    304.87,  2753.30000,  1874.80000
    305.36,  2777.30000,  1868.10000
    305.84,  2815.30000,  1860.50000
    306.32,  2853.10000,  1855.80000
    306.81,  2832.60000,  1855.10000
    307.29,  2806.20000,  1843.20000
    307.77,  2785.60000,  1830.10000
    308.25,  2780.10000,  1824.30000
    308.74,  2798.70000,  1812.50000
    309.22,  2800.70000,  1806.10000
    309.70,  2786.80000,  1782.00000
    310.18,  2778.00000,  1769.20000
    310.67,  2781.40000,  1762.90000
    311.15,  2795.00000,  1747.00000
    311.63,  2815.20000,  1739.60000
    312.12,  2827.80000,  1725.20000
    312.60,  2801.60000,  1714.40000
    313.08,  2779.00000,  1710.10000
    313.56,  2766.40000,  1712.60000
    314.05,  2759.10000,  1706.90000
    314.53,  2776.30000,  1709.50000
    315.01,  2831.60000,  1706.50000
    315.49,  2826.60000,  1712.40000
    315.98,  2825.00000,  1700.80000
    316.46,  2800.50000,  1689.80000
    316.94,  2763.60000,  1676.10000
    317.42,  2751.10000,  1680.80000
    317.90,  2755.90000,  1683.70000
    318.39,  2731.70000,  1693.40000
    318.87,  2776.20000,  1684.90000
    319.35,  2802.00000,  1665.20000
    319.83,  2817.80000,  1652.50000
    320.32,  2827.90000,  1653.90000
    320.80,  2835.50000,  1653.20000
    321.28,  2788.30000,  1657.30000
    321.76,  2826.90000,  1662.90000
    322.24,  2832.40000,  1639.20000
    322.73,  2851.60000,  1626.40000
    323.21,  2851.80000,  1616.50000
    323.69,  2858.30000,  1615.70000
    324.17,  2805.20000,  1617.70000
    324.65,  2774.50000,  1633.60000
    325.14,  2774.00000,  1645.20000
    325.62,  2777.90000,  1656.20000
    326.10,  2822.00000,  1654.20000
    326.58,  2847.20000,  1637.60000
    327.06,  2814.00000,  1627.60000
    327.55,  2830.30000,  1617.40000
    328.03,  2859.40000,  1621.80000
    328.51,  2859.60000,  1623.90000
    328.99,  2876.00000,  1626.20000
    329.47,  2863.70000,  1620.30000
    329.95,  2794.30000,  1627.90000
    330.44,  2801.50000,  1627.90000
    330.92,  2778.70000,  1623.60000
    331.40,  2759.30000,  1617.10000
    331.88,  2748.60000,  1615.70000
    332.36,  2758.10000,  1616.70000
    332.84,  2777.00000,  1625.20000
    333.33,  2813.90000,  1634.00000
    333.81,  2821.80000,  1633.00000
    334.29,  2830.10000,  1617.50000
    334.77,  2835.30000,  1598.30000
    335.25,  2828.20000,  1584.60000
    335.73,  2841.10000,  1579.80000
    336.21,  2833.60000,  1588.00000
    336.69,  2816.40000,  1590.70000
    337.18,  2808.40000,  1580.90000
    337.66,  2788.70000,  1577.40000
    338.14,  2770.60000,  1575.20000
    338.62,  2763.30000,  1583.70000
    339.10,  2784.00000,  1587.20000
    339.58,  2820.20000,  1603.50000
    340.06,  2834.70000,  1600.00000
    340.54,  2838.50000,  1594.20000
    341.03,  2831.30000,  1578.20000
    341.51,  2800.40000,  1582.40000
    341.99,  2796.90000,  1573.40000
    342.47,  2800.70000,  1586.80000
    342.95,  2796.70000,  1586.00000
    343.43,  2799.80000,  1584.80000
    343.91,  2804.70000,  1577.40000
    344.39,  2780.70000,  1573.00000
    344.87,  2761.30000,  1561.20000
    345.35,  2771.10000,  1557.60000
    345.84,  2781.40000,  1557.90000
    346.32,  2825.00000,  1570.10000
    346.80,  2845.30000,  1576.50000
    347.28,  2840.20000,  1582.60000
    347.76,  2816.80000,  1583.90000
    348.24,  2812.90000,  1576.40000
    348.72,  2831.30000,  1572.90000
    349.20,  2857.20000,  1571.60000
    349.68,  2841.70000,  1563.90000
    350.16,  2806.40000,  1568.80000
    350.64,  2760.50000,  1573.60000
    351.12,  2744.30000,  1572.60000
    351.60,  2799.20000,  1566.50000
    352.08,  2854.10000,  1555.20000
    352.56,  2878.80000,  1541.90000
    353.04,  2871.10000,  1546.40000
    353.53,  2842.50000,  1560.80000
    354.01,  2815.60000,  1576.20000
    354.49,  2831.90000,  1569.00000
    354.97,  2839.70000,  1560.00000
    355.45,  2839.00000,  1548.90000
    355.93,  2816.20000,  1543.20000
    356.41,  2824.60000,  1552.70000
    356.89,  2798.60000,  1565.50000
    357.37,  2804.90000,  1571.00000
    357.85,  2784.60000,  1574.30000
    358.33,  2771.20000,  1576.50000
    358.81,  2753.50000,  1569.60000
    359.29,  2771.40000,  1570.90000
    359.77,  2789.70000,  1564.20000
    360.25,  2813.30000,  1562.80000
    360.73,  2821.30000,  1552.10000
    361.21,  2809.20000,  1553.20000
    361.69,  2813.80000,  1555.20000
    362.17,  2808.90000,  1564.10000
    362.65,  2818.70000,  1564.00000
    363.13,  2823.30000,  1563.60000
    363.61,  2838.20000,  1566.60000
    364.09,  2810.30000,  1566.40000
    364.57,  2801.30000,  1580.40000
    365.05,  2794.40000,  1586.10000
    365.53,  2776.10000,  1583.40000
    366.01,  2793.40000,  1571.20000
    366.49,  2838.20000,  1566.50000
    366.97,  2806.30000,  1557.50000
    367.45,  2815.10000,  1572.60000
    367.93,  2840.60000,  1588.20000
    368.41,  2825.50000,  1595.50000
    368.89,  2824.60000,  1592.70000
    369.37,  2834.30000,  1583.00000
    369.85,  2784.50000,  1574.80000
    370.33,  2805.00000,  1571.40000
    370.80,  2828.70000,  1575.60000
    371.28,  2827.40000,  1581.30000
    371.76,  2795.30000,  1591.00000
    372.24,  2773.90000,  1590.00000
    372.72,  2772.90000,  1590.60000
    373.20,  2799.40000,  1581.00000
    373.68,  2831.20000,  1584.30000
    374.16,  2853.80000,  1599.30000
    374.64,  2827.10000,  1611.50000
    375.12,  2797.30000,  1615.40000
    375.60,  2827.70000,  1620.10000
    376.08,  2809.90000,  1608.90000
    376.56,  2807.40000,  1610.80000
    377.04,  2803.20000,  1618.60000
    377.52,  2807.10000,  1616.00000
    377.99,  2797.60000,  1619.40000
    378.47,  2824.70000,  1625.10000
    378.95,  2808.50000,  1624.00000
    379.43,  2829.80000,  1620.00000
    379.91,  2830.70000,  1634.60000
    380.39,  2875.60000,  1637.60000
    380.87,  2896.30000,  1636.10000
    381.35,  2882.70000,  1637.70000
    381.83,  2847.40000,  1640.10000
    382.31,  2813.70000,  1629.30000
    382.79,  2769.50000,  1645.20000
    383.26,  2784.10000,  1660.30000
    383.74,  2793.20000,  1663.20000
    384.22,  2793.30000,  1665.60000
    384.70,  2798.50000,  1669.40000
    385.18,  2771.20000,  1669.70000
    385.66,  2776.00000,  1669.60000
    386.14,  2788.20000,  1673.10000
    386.62,  2809.50000,  1675.50000
    387.09,  2833.10000,  1668.60000
    387.57,  2844.50000,  1673.60000
    388.05,  2826.70000,  1688.10000
    388.53,  2819.90000,  1691.10000
    389.01,  2813.40000,  1701.00000
    389.49,  2829.60000,  1712.30000
    389.97,  2831.80000,  1712.80000
    390.44,  2819.40000,  1719.00000
    390.92,  2799.50000,  1722.10000
    391.40,  2788.40000,  1718.70000
    391.88,  2791.00000,  1716.90000
    392.36,  2804.70000,  1713.50000
    392.84,  2806.10000,  1716.60000
    393.32,  2813.30000,  1727.70000
    393.79,  2801.60000,  1733.10000
    394.27,  2852.60000,  1740.30000
    394.75,  2861.80000,  1738.70000
    395.23,  2861.50000,  1733.60000
    395.71,  2836.70000,  1733.10000
    396.18,  2835.40000,  1732.40000
    396.66,  2838.30000,  1735.90000
    397.14,  2870.40000,  1741.90000
    397.62,  2842.50000,  1735.30000
    398.10,  2839.60000,  1728.00000
    398.58,  2821.70000,  1730.70000
    399.05,  2832.80000,  1739.10000
    399.53,  2842.90000,  1755.00000
    400.01,  2842.00000,  1753.60000
    400.49,  2817.10000,  1742.80000
    400.97,  2797.10000,  1733.90000
    401.44,  2760.30000,  1725.60000
    401.92,  2775.20000,  1734.80000
    402.40,  2777.10000,  1736.90000
    402.88,  2807.30000,  1742.80000
    403.36,  2824.40000,  1747.80000
    403.83,  2845.50000,  1743.00000
    404.31,  2815.30000,  1727.30000
    404.79,  2826.50000,  1721.40000
    405.27,  2808.00000,  1712.20000
    405.74,  2797.90000,  1722.80000
    406.22,  2824.20000,  1731.50000
    406.70,  2848.00000,  1726.60000
    407.18,  2826.40000,  1727.60000
    407.65,  2804.10000,  1726.90000
    408.13,  2770.30000,  1728.10000
    408.61,  2777.80000,  1727.00000
    409.09,  2802.10000,  1720.90000
    409.56,  2806.60000,  1717.40000
    410.04,  2820.50000,  1712.70000
    410.52,  2806.10000,  1710.30000
    411.00,  2785.70000,  1700.10000
    411.47,  2782.40000,  1688.20000
    411.95,  2768.20000,  1674.20000
    412.43,  2764.70000,  1681.00000
    412.91,  2776.50000,  1672.80000
    413.38,  2791.60000,  1674.00000
    413.86,  2805.10000,  1671.60000
    414.34,  2808.70000,  1664.70000
    414.82,  2818.20000,  1656.80000
    415.29,  2816.30000,  1654.10000
    415.77,  2826.90000,  1634.00000
    416.25,  2825.60000,  1618.40000
    416.72,  2821.00000,  1616.20000
    417.20,  2806.50000,  1620.00000
    417.68,  2773.40000,  1625.20000
    418.16,  2768.20000,  1617.80000
    418.63,  2795.10000,  1604.70000
    419.11,  2800.60000,  1595.30000
    419.59,  2805.40000,  1604.90000
    420.06,  2774.10000,  1616.30000
    420.54,  2737.40000,  1630.50000
    421.02,  2760.70000,  1618.40000
    421.50,  2786.90000,  1612.00000
    421.97,  2801.00000,  1599.20000
    422.45,  2794.50000,  1590.30000
    422.93,  2785.60000,  1582.40000
    423.40,  2766.10000,  1585.70000
    423.88,  2765.70000,  1581.60000
    424.36,  2768.50000,  1584.80000
    424.83,  2780.40000,  1583.50000
    425.31,  2795.80000,  1586.20000
    425.79,  2847.10000,  1588.30000
    426.26,  2887.50000,  1576.40000
    426.74,  2872.10000,  1557.30000
    427.22,  2855.60000,  1545.20000
    427.69,  2835.30000,  1548.20000
    428.17,  2811.60000,  1558.80000
    428.65,  2799.10000,  1561.00000
    429.12,  2834.40000,  1551.50000
    429.60,  2821.70000,  1540.20000
    430.08,  2824.80000,  1546.70000
    430.55,  2823.80000,  1544.60000
    431.03,  2825.50000,  1535.50000
    431.50,  2825.20000,  1522.10000
    431.98,  2823.50000,  1523.70000
    432.46,  2826.00000,  1534.80000
    432.93,  2802.10000,  1553.30000
    433.41,  2780.00000,  1547.30000
    433.89,  2778.50000,  1539.00000
    434.36,  2791.20000,  1533.60000
    434.84,  2785.40000,  1537.50000
    435.31,  2806.60000,  1536.70000
    435.79,  2801.10000,  1533.90000
    436.27,  2793.40000,  1525.20000
    436.74,  2784.00000,  1531.30000
    437.22,  2792.70000,  1531.30000
    437.70,  2784.50000,  1535.30000
    438.17,  2780.60000,  1527.50000
    438.65,  2783.90000,  1508.10000
    439.12,  2798.60000,  1501.00000
    439.60,  2801.50000,  1505.50000
    440.08,  2813.10000,  1514.80000
    440.55,  2795.80000,  1519.00000
    441.03,  2804.50000,  1513.70000
    441.50,  2804.70000,  1503.00000
    441.98,  2818.90000,  1503.00000
    442.45,  2815.50000,  1501.90000
    442.93,  2807.90000,  1512.80000
    443.41,  2792.10000,  1511.70000
    443.88,  2796.50000,  1510.00000
    444.36,  2786.70000,  1508.60000
    444.83,  2789.10000,  1510.80000
    445.31,  2794.00000,  1512.60000
    445.78,  2770.70000,  1523.60000
    446.26,  2770.30000,  1533.50000
    446.74,  2773.80000,  1532.40000
    447.21,  2799.00000,  1517.80000
    447.69,  2818.70000,  1510.30000
    448.16,  2839.40000,  1502.40000
    448.64,  2811.40000,  1506.50000
    449.11,  2785.40000,  1522.20000
    449.59,  2789.80000,  1519.20000
    450.06,  2795.80000,  1502.70000
    450.54,  2801.30000,  1493.50000
    451.02,  2832.70000,  1488.20000
    451.49,  2842.40000,  1496.00000
    451.97,  2829.70000,  1511.30000
    452.44,  2816.80000,  1522.80000
    452.92,  2798.20000,  1525.30000
    453.39,  2775.70000,  1535.00000
    453.87,  2788.30000,  1532.80000
    454.34,  2802.40000,  1525.10000
    454.82,  2810.10000,  1510.00000
    455.29,  2819.80000,  1502.10000
    455.77,  2824.50000,  1506.30000
    456.24,  2788.90000,  1518.60000
    456.72,  2766.80000,  1519.80000
    457.19,  2762.40000,  1520.40000
    457.67,  2775.60000,  1525.50000
    458.14,  2799.90000,  1530.40000
    458.62,  2804.10000,  1540.30000
    459.09,  2794.80000,  1539.20000
    459.57,  2780.30000,  1524.00000
    460.04,  2795.50000,  1509.60000
    460.52,  2802.60000,  1504.00000
    460.99,  2789.70000,  1521.10000
    461.47,  2780.90000,  1525.60000
    461.94,  2754.70000,  1534.40000
    462.42,  2752.30000,  1526.30000
    462.89,  2777.40000,  1519.90000
    463.37,  2801.60000,  1509.70000
    463.84,  2805.50000,  1528.20000
    464.32,  2808.70000,  1528.80000
    464.79,  2797.20000,  1535.50000
    465.26,  2802.60000,  1523.00000
    465.74,  2788.20000,  1516.50000
    466.21,  2810.90000,  1510.90000
    466.69,  2815.40000,  1510.90000
    467.16,  2818.90000,  1513.30000
    467.64,  2812.90000,  1510.00000
    468.11,  2813.40000,  1499.40000
    468.59,  2806.60000,  1501.10000
    469.06,  2821.10000,  1515.60000
    469.54,  2833.00000,  1521.40000
    470.01,  2826.20000,  1522.20000
    470.48,  2784.40000,  1519.80000
    470.96,  2801.00000,  1515.20000
    471.43,  2824.10000,  1514.10000
    471.91,  2846.10000,  1516.60000
    472.38,  2879.50000,  1520.80000
    472.86,  2857.60000,  1518.90000
    473.33,  2815.00000,  1512.60000
    473.80,  2805.00000,  1506.10000
    474.28,  2804.30000,  1511.60000
    474.75,  2811.30000,  1510.40000
    475.23,  2842.20000,  1516.80000
    475.70,  2841.00000,  1523.50000
    476.17,  2825.30000,  1518.40000
    476.65,  2819.50000,  1507.20000
    477.12,  2816.80000,  1516.50000
    477.60,  2782.90000,  1516.40000
    478.07,  2785.00000,  1523.50000
    478.54,  2798.80000,  1525.40000
    479.02,  2812.40000,  1518.80000
    479.49,  2843.90000,  1505.30000
    479.97,  2848.90000,  1508.70000
    480.44,  2829.00000,  1511.60000
    480.91,  2796.30000,  1519.60000
    481.39,  2781.70000,  1524.00000
    481.86,  2787.30000,  1517.20000
    482.34,  2769.00000,  1518.50000
    482.81,  2776.30000,  1522.90000
    483.28,  2801.40000,  1525.80000
    483.76,  2790.00000,  1526.50000
    484.23,  2808.70000,  1534.50000
    484.70,  2804.30000,  1525.10000
    485.18,  2796.50000,  1515.10000
    485.65,  2801.00000,  1510.90000
    486.12,  2816.90000,  1500.00000
    486.60,  2805.50000,  1493.90000
    487.07,  2813.40000,  1505.40000
    487.55,  2831.80000,  1512.90000
    488.02,  2851.70000,  1513.50000
    488.49,  2845.00000,  1526.20000
    488.97,  2849.60000,  1527.70000
    489.44,  2836.60000,  1526.00000
    489.91,  2796.40000,  1524.20000
    490.39,  2786.70000,  1524.60000
    490.86,  2752.10000,  1522.90000
    491.33,  2719.90000,  1530.70000
    491.81,  2760.00000,  1532.90000
    492.28,  2804.40000,  1523.60000
    492.75,  2799.30000,  1515.40000
    493.23,  2851.80000,  1501.90000
    493.70,  2869.10000,  1501.70000
    494.17,  2863.80000,  1505.60000
    494.64,  2854.90000,  1514.80000
    495.12,  2815.50000,  1509.00000
    495.59,  2808.80000,  1508.20000
    496.06,  2840.60000,  1504.80000
    496.54,  2860.00000,  1508.30000
    497.01,  2845.50000,  1511.50000
    497.48,  2830.30000,  1513.90000
    497.96,  2811.80000,  1509.40000
    498.43,  2843.90000,  1502.10000
    498.90,  2836.70000,  1514.50000
    499.37,  2854.10000,  1517.30000
    499.85,  2819.90000,  1528.30000
    500.32,  2819.50000,  1525.10000
    500.79,  2804.40000,  1522.50000
    501.27,  2819.40000,  1515.60000
    501.74,  2806.00000,  1519.00000
    502.21,  2809.50000,  1515.30000
    502.68,  2799.40000,  1520.40000
    503.16,  2790.90000,  1513.80000
    503.63,  2778.10000,  1509.50000
    504.10,  2794.50000,  1503.00000
    504.57,  2780.10000,  1490.40000
    505.05,  2798.50000,  1490.20000
    505.52,  2823.00000,  1481.00000
    505.99,  2816.60000,  1480.80000
    506.46,  2808.50000,  1486.00000
    506.94,  2796.70000,  1490.60000
    507.41,  2775.30000,  1494.70000
    507.88,  2779.20000,  1499.20000
    508.35,  2780.60000,  1491.30000
    508.83,  2769.30000,  1493.70000
    509.30,  2798.40000,  1497.70000
    509.77,  2804.60000,  1495.00000
    510.24,  2796.00000,  1505.70000
    510.72,  2782.30000,  1495.90000
    511.19,  2776.50000,  1489.90000
    511.66,  2776.70000,  1482.10000
    512.13,  2810.60000,  1484.20000
    512.60,  2796.60000,  1488.90000
    513.08,  2781.40000,  1502.30000
    513.55,  2774.90000,  1493.80000
    514.02,  2762.30000,  1487.70000
    514.49,  2765.10000,  1476.60000
    514.97,  2771.90000,  1478.10000
    515.44,  2780.90000,  1491.30000
    515.91,  2781.40000,  1490.90000
    516.38,  2785.60000,  1492.70000
    516.85,  2753.60000,  1488.80000
    517.33,  2740.30000,  1481.30000
    517.80,  2739.20000,  1469.50000
    518.27,  2761.00000,  1473.30000
    518.74,  2840.90000,  1431.10000
    519.21,  2922.50000,  1381.30000
    519.68,  2928.20000,  1363.80000
    520.16,  2892.00000,  1380.50000
    520.63,  2832.00000,  1417.30000
    521.10,  2766.40000,  1475.70000
    521.57,  2781.70000,  1491.90000
    522.04,  2800.70000,  1477.30000
    522.52,  2803.40000,  1478.10000
    522.99,  2783.90000,  1477.40000
    523.46,  2795.10000,  1476.90000
    523.93,  2799.80000,  1477.50000
    524.40,  2827.30000,  1487.70000
    524.87,  2819.30000,  1485.50000
    525.34,  2812.80000,  1483.80000
    525.82,  2795.20000,  1476.60000
    526.29,  2799.30000,  1474.40000
    526.76,  2794.30000,  1477.20000
    527.23,  2807.70000,  1489.60000
    527.70,  2786.70000,  1496.80000
    528.17,  2786.00000,  1496.90000
    528.64,  2777.90000,  1495.80000
    529.12,  2785.70000,  1489.80000
    529.59,  2790.00000,  1486.10000
    530.06,  2798.60000,  1486.60000
    530.53,  2828.70000,  1501.30000
    531.00,  2800.50000,  1503.00000
    531.47,  2750.60000,  1512.90000
    531.94,  2750.10000,  1515.40000
    532.41,  2749.40000,  1518.10000
    532.89,  2775.50000,  1522.20000
    533.36,  2832.30000,  1535.30000
    533.83,  2809.10000,  1532.30000
    534.30,  2783.20000,  1543.40000
    534.77,  2801.00000,  1541.20000
    535.24,  2809.00000,  1537.00000
    535.71,  2803.40000,  1542.30000
    536.18,  2807.40000,  1553.70000
    536.65,  2798.90000,  1557.20000
    537.13,  2776.60000,  1557.60000
    537.60,  2772.90000,  1551.70000
    538.07,  2783.40000,  1538.70000
    538.54,  2770.50000,  1545.60000
    539.01,  2790.50000,  1552.60000
    539.48,  2824.20000,  1565.20000
    539.95,  2833.90000,  1568.90000
    540.42,  2840.70000,  1582.40000
    540.89,  2823.50000,  1588.50000
    541.36,  2793.80000,  1599.40000
    541.83,  2786.20000,  1608.50000
    542.30,  2782.30000,  1616.90000
    542.77,  2792.00000,  1623.10000
    543.25,  2821.80000,  1622.60000
    543.72,  2823.10000,  1632.40000
    544.19,  2818.50000,  1633.20000
    544.66,  2794.30000,  1642.00000
    545.13,  2774.70000,  1655.10000
    545.60,  2758.30000,  1656.50000
    546.07,  2792.30000,  1649.60000
    546.54,  2812.40000,  1644.30000
    547.01,  2821.40000,  1640.50000
    547.48,  2818.60000,  1645.80000
    547.95,  2799.00000,  1676.10000
    548.42,  2774.00000,  1690.20000
    548.89,  2808.90000,  1692.00000
    549.36,  2806.20000,  1687.10000
    549.83,  2791.70000,  1689.90000
    550.30,  2836.80000,  1683.50000
    550.77,  2840.30000,  1684.30000
    551.24,  2848.00000,  1682.20000
    551.71,  2863.30000,  1680.10000
    552.18,  2827.60000,  1697.00000
    552.65,  2764.10000,  1721.30000
    553.12,  2781.00000,  1751.60000
    553.59,  2788.70000,  1755.70000
    554.06,  2799.60000,  1743.80000
    554.53,  2810.20000,  1740.30000
    555.00,  2800.00000,  1741.80000
    555.47,  2784.20000,  1745.00000
    555.94,  2779.50000,  1763.80000
    556.41,  2779.00000,  1766.50000
    556.88,  2762.10000,  1761.50000
    557.35,  2761.10000,  1765.60000
    557.82,  2759.00000,  1766.10000
    558.29,  2774.20000,  1765.20000
    558.76,  2814.50000,  1765.10000
    559.23,  2827.50000,  1766.30000
    559.70,  2826.80000,  1766.60000
    560.17,  2818.40000,  1768.60000
    560.64,  2810.10000,  1775.00000
    561.11,  2799.20000,  1775.10000
    561.58,  2823.30000,  1777.70000
    562.05,  2806.20000,  1779.10000
    562.52,  2814.40000,  1779.90000
    562.99,  2805.00000,  1782.90000
    563.46,  2808.60000,  1790.10000
    563.93,  2794.60000,  1796.40000
    564.40,  2804.30000,  1803.00000
    564.87,  2808.50000,  1802.10000
    565.34,  2835.80000,  1800.90000
    565.81,  2818.60000,  1800.10000
    566.28,  2815.60000,  1794.10000
    566.74,  2791.90000,  1780.80000
    567.21,  2785.60000,  1773.50000
    567.68,  2804.50000,  1763.70000
    568.15,  2805.00000,  1770.70000
    568.62,  2787.20000,  1783.20000
    569.09,  2781.10000,  1795.50000
    569.56,  2772.10000,  1798.50000
    570.03,  2770.50000,  1796.50000
    570.50,  2813.20000,  1785.50000
    570.97,  2814.40000,  1773.90000
    571.44,  2799.80000,  1786.20000
    571.91,  2798.90000,  1790.90000
    572.38,  2788.30000,  1806.10000
    572.84,  2768.30000,  1805.00000
    573.31,  2785.50000,  1797.70000
    573.78,  2786.50000,  1782.20000
    574.25,  2779.10000,  1788.60000
    574.72,  2811.60000,  1768.30000
    575.19,  2809.50000,  1772.60000
    575.66,  2797.60000,  1775.90000
    576.13,  2788.60000,  1774.00000
    576.60,  2796.30000,  1773.10000
    577.07,  2819.10000,  1777.70000
    577.53,  2851.80000,  1767.70000
    578.00,  2844.50000,  1772.10000
    578.47,  2834.70000,  1767.40000
    578.94,  2805.90000,  1757.50000
    579.41,  2778.30000,  1750.30000
    579.88,  2794.10000,  1751.50000
    580.35,  2798.70000,  1748.90000
    580.82,  2800.80000,  1753.20000
    581.28,  2820.10000,  1755.00000
    581.75,  2811.90000,  1768.70000
    582.22,  2801.60000,  1775.20000
    582.69,  2815.30000,  1772.70000
    583.16,  2822.10000,  1757.40000
    583.63,  2817.90000,  1745.10000
    584.10,  2839.50000,  1736.00000
    584.56,  2845.00000,  1738.80000
    585.03,  2832.80000,  1748.80000
    585.50,  2818.30000,  1756.30000
    585.97,  2788.80000,  1761.50000
    586.44,  2784.00000,  1760.50000
    586.91,  2797.90000,  1758.00000
    587.37,  2797.70000,  1761.40000
    587.84,  2784.40000,  1765.90000
    588.31,  2773.10000,  1763.90000
    588.78,  2742.30000,  1764.20000
    589.25,  2777.10000,  1748.50000
    589.72,  2780.00000,  1734.40000
    590.18,  2809.20000,  1738.50000
    590.65,  2838.50000,  1745.30000
    591.12,  2829.00000,  1737.70000
    591.59,  2821.20000,  1739.90000
    592.06,  2806.30000,  1733.90000
    592.52,  2761.50000,  1726.10000
    592.99,  2777.30000,  1725.30000
    593.46,  2770.80000,  1739.00000
    593.93,  2731.40000,  1730.90000
    594.40,  2752.70000,  1732.70000
    594.86,  2776.80000,  1744.50000
    595.33,  2789.40000,  1745.70000
    595.80,  2818.20000,  1738.20000
    596.27,  2823.70000,  1736.90000
    596.74,  2804.10000,  1719.80000
    597.20,  2792.30000,  1714.70000
    597.67,  2800.90000,  1723.20000
    598.14,  2775.60000,  1726.80000
    598.61,  2770.90000,  1723.80000
    599.07,  2776.50000,  1723.20000
    599.54,  2770.90000,  1712.70000
    600.01,  2762.20000,  1713.40000
    600.48,  2817.70000,  1715.10000
    600.95,  2836.50000,  1720.00000
    601.41,  2842.20000,  1718.50000
    601.88,  2827.50000,  1720.90000
    602.35,  2780.20000,  1714.10000
    602.82,  2731.70000,  1717.30000
    603.28,  2749.00000,  1707.60000
    603.75,  2744.10000,  1705.40000
    604.22,  2765.70000,  1705.80000
    604.69,  2774.70000,  1701.60000
    605.15,  2783.40000,  1699.50000
    605.62,  2774.10000,  1702.50000
    606.09,  2778.20000,  1690.90000
    606.56,  2760.80000,  1682.90000
    607.02,  2765.90000,  1687.40000
    607.49,  2760.60000,  1682.90000
    607.96,  2786.20000,  1692.60000
    608.42,  2785.30000,  1688.40000
    608.89,  2835.90000,  1686.10000
    609.36,  2842.60000,  1673.80000
    609.83,  2823.20000,  1667.20000
    610.29,  2791.40000,  1660.10000
    610.76,  2768.00000,  1663.20000
    611.23,  2761.80000,  1651.40000
    611.69,  2798.90000,  1643.30000
    612.16,  2805.00000,  1631.70000
    612.63,  2800.90000,  1626.30000
    613.10,  2782.60000,  1624.40000
    613.56,  2762.10000,  1622.80000
    614.03,  2770.30000,  1620.90000
    614.50,  2782.60000,  1614.10000
    614.96,  2795.90000,  1605.00000
    615.43,  2802.40000,  1597.90000
    615.90,  2817.70000,  1590.60000
    616.36,  2822.70000,  1580.80000
    616.83,  2805.10000,  1584.60000
    617.30,  2800.70000,  1582.70000
    617.76,  2775.10000,  1574.40000
    618.23,  2750.80000,  1580.50000
    618.70,  2737.50000,  1585.10000
    619.16,  2752.00000,  1586.30000
    619.63,  2751.30000,  1578.80000
    620.10,  2764.80000,  1568.50000
    620.56,  2770.70000,  1550.50000
    621.03,  2796.30000,  1548.30000
    621.50,  2794.90000,  1552.60000
    621.96,  2797.80000,  1564.20000
    622.43,  2791.90000,  1557.60000
    622.90,  2790.30000,  1565.10000
    623.36,  2795.10000,  1560.90000
    623.83,  2806.60000,  1540.90000
    624.30,  2794.90000,  1538.60000
    624.76,  2798.60000,  1516.40000
    625.23,  2807.50000,  1502.30000
    625.70,  2819.20000,  1503.50000
    626.16,  2822.80000,  1512.30000
    626.63,  2795.70000,  1504.60000
    627.09,  2781.40000,  1511.80000
    627.56,  2794.80000,  1497.20000
    628.03,  2786.30000,  1501.90000
    628.49,  2793.80000,  1504.70000
    628.96,  2775.90000,  1515.80000
    629.43,  2768.80000,  1505.40000
    629.89,  2765.40000,  1495.40000
    630.36,  2777.60000,  1492.00000
    630.82,  2767.70000,  1485.40000
    631.29,  2776.50000,  1478.10000
    631.76,  2758.40000,  1473.70000
    632.22,  2744.30000,  1469.70000
    632.69,  2745.70000,  1467.20000
    633.15,  2762.00000,  1479.40000
    633.62,  2791.50000,  1476.80000
    634.09,  2816.40000,  1457.10000
    634.55,  2823.80000,  1440.70000
    635.02,  2799.80000,  1438.70000
    635.48,  2789.70000,  1438.10000
    635.95,  2773.30000,  1444.80000
    636.42,  2777.00000,  1448.60000
    636.88,  2762.90000,  1434.70000
    637.35,  2758.80000,  1438.80000
    637.81,  2773.10000,  1440.00000
    638.28,  2824.60000,  1395.10000
    638.74,  2876.50000,  1347.70000
    639.21,  2893.70000,  1331.90000
    639.68,  2856.30000,  1334.20000
    640.14,  2796.50000,  1370.40000
    640.61,  2767.80000,  1414.40000
    641.07,  2751.40000,  1414.70000
    641.54,  2767.50000,  1417.00000
    642.00,  2779.40000,  1415.60000
    642.47,  2791.70000,  1409.00000
    642.93,  2795.40000,  1394.40000
    643.40,  2795.00000,  1391.20000
    643.87,  2776.00000,  1378.20000
    644.33,  2776.10000,  1381.40000
    644.80,  2786.40000,  1376.60000
    645.26,  2776.50000,  1382.20000
    645.73,  2771.30000,  1382.80000
    646.19,  2759.70000,  1385.30000
    646.66,  2758.30000,  1382.90000
    647.12,  2748.50000,  1388.50000
    647.59,  2768.30000,  1380.60000
    648.05,  2783.40000,  1377.00000
    648.52,  2779.30000,  1367.90000
    648.98,  2767.90000,  1360.80000
    649.45,  2746.10000,  1374.70000
    649.91,  2718.50000,  1377.90000
    650.38,  2731.20000,  1366.20000
    650.84,  2787.80000,  1354.10000
    651.31,  2790.20000,  1341.60000
    651.77,  2788.50000,  1336.60000
    652.24,  2760.80000,  1347.80000
    652.70,  2738.70000,  1341.90000
    653.17,  2728.80000,  1331.90000
    653.63,  2761.00000,  1329.60000
    654.10,  2748.30000,  1338.80000
    654.56,  2757.10000,  1347.60000
    655.03,  2753.40000,  1352.10000
    655.49,  2759.00000,  1351.90000
    655.96,  2759.50000,  1344.70000
    656.42,  2758.80000,  1341.10000
    656.89,  2747.90000,  1332.50000
    657.35,  2805.70000,  1327.80000
    657.82,  2853.60000,  1313.40000
    658.28,  2879.50000,  1318.70000
    658.75,  2885.80000,  1315.50000
    659.21,  2842.20000,  1315.10000
    659.68,  2808.20000,  1309.90000
    660.14,  2801.80000,  1307.90000
    660.61,  2771.70000,  1298.40000
    661.07,  2801.20000,  1300.30000
    661.53,  2817.50000,  1302.40000
    662.00,  2837.80000,  1300.50000
    662.46,  2830.50000,  1295.50000
    662.93,  2817.70000,  1283.30000
    663.39,  2780.70000,  1278.30000
    663.86,  2807.80000,  1282.30000
    664.32,  2806.00000,  1286.90000
    664.79,  2830.80000,  1285.10000
    665.25,  2818.30000,  1275.20000
    665.71,  2805.60000,  1259.10000
    666.18,  2770.60000,  1259.50000
    666.64,  2790.30000,  1272.40000
    667.11,  2779.90000,  1277.10000
    667.57,  2795.90000,  1281.90000
    668.04,  2809.90000,  1269.50000
    668.50,  2805.90000,  1251.20000
    668.96,  2785.90000,  1245.00000
    669.43,  2802.40000,  1254.90000
    669.89,  2770.70000,  1253.00000
    670.36,  2756.00000,  1249.20000
    670.82,  2760.20000,  1233.30000
    671.28,  2769.30000,  1222.30000
    671.75,  2775.70000,  1214.80000
    672.21,  2794.90000,  1221.80000
    672.68,  2789.70000,  1233.60000
    673.14,  2804.40000,  1229.90000
    673.60,  2826.60000,  1224.90000
    674.07,  2807.20000,  1217.10000
    674.53,  2783.70000,  1205.10000
    675.00,  2771.40000,  1195.40000
    675.46,  2758.30000,  1197.20000
    675.92,  2762.40000,  1198.30000
    676.39,  2803.30000,  1201.30000
    676.85,  2802.90000,  1201.40000
    677.31,  2811.20000,  1197.90000
    677.78,  2811.50000,  1190.00000
    678.24,  2794.40000,  1174.20000
    678.70,  2775.30000,  1181.30000
    679.17,  2759.30000,  1184.60000
    679.63,  2728.40000,  1192.10000
    680.10,  2727.50000,  1192.30000
    680.56,  2749.90000,  1195.30000
    681.02,  2756.80000,  1190.50000
    681.49,  2798.60000,  1180.20000
    681.95,  2798.20000,  1172.30000
    682.41,  2786.40000,  1162.70000
    682.88,  2778.10000,  1153.20000
    683.34,  2773.60000,  1151.30000
    683.80,  2746.30000,  1159.50000
    684.27,  2760.30000,  1155.40000
    684.73,  2765.30000,  1158.90000
    685.19,  2787.00000,  1155.10000
    685.66,  2818.80000,  1147.80000
    686.12,  2823.90000,  1138.70000
    686.58,  2837.50000,  1138.30000
    687.05,  2828.20000,  1138.90000
    687.51,  2804.60000,  1143.70000
    687.97,  2790.80000,  1134.70000
    688.44,  2785.70000,  1138.80000
    688.90,  2777.10000,  1139.90000
    689.36,  2781.40000,  1145.10000
    689.83,  2787.30000,  1145.30000
    690.29,  2798.10000,  1142.20000
    690.75,  2822.30000,  1116.00000
    691.21,  2834.40000,  1110.20000
    691.68,  2815.70000,  1109.80000
    692.14,  2778.80000,  1110.70000
    692.60,  2781.10000,  1111.80000
    693.07,  2763.90000,  1112.70000
    693.53,  2788.10000,  1101.10000
    693.99,  2809.80000,  1097.20000
    694.45,  2806.90000,  1102.70000
    694.92,  2824.90000,  1101.00000
    695.38,  2833.80000,  1099.90000
    695.84,  2815.50000,  1100.10000
    696.31,  2806.40000,  1085.30000
    696.77,  2812.70000,  1083.90000
    697.23,  2802.20000,  1080.30000
    697.69,  2802.60000,  1084.40000
    698.16,  2785.90000,  1085.40000
    698.62,  2772.20000,  1085.60000
    699.08,  2757.40000,  1077.30000
    699.54,  2758.90000,  1082.50000
    700.01,  2749.50000,  1081.30000
    700.47,  2733.10000,  1091.10000
    700.93,  2732.30000,  1088.30000
    701.39,  2742.70000,  1078.10000
    701.86,  2759.10000,  1073.50000
    702.32,  2764.80000,  1060.10000
    702.78,  2777.50000,  1048.60000
    703.24,  2778.40000,  1037.60000
    703.71,  2781.30000,  1038.30000
    704.17,  2787.30000,  1037.10000
    704.63,  2770.80000,  1048.10000
    705.09,  2758.90000,  1043.70000
    705.56,  2790.70000,  1042.80000
    706.02,  2798.60000,  1032.00000
    706.48,  2779.60000,  1037.90000
    706.94,  2772.00000,  1033.40000
    707.40,  2745.10000,  1033.60000
    707.87,  2749.50000,  1028.00000
    708.33,  2771.30000,  1034.30000
    708.79,  2762.10000,  1027.40000
    709.25,  2727.70000,  1032.90000
    709.72,  2731.50000,  1034.60000
    710.18,  2713.00000,  1067.50000
    710.64,  2813.40000,   970.70000
    711.10,  2923.40000,   859.90000
    711.56,  2988.00000,   803.20000
    712.03,  2990.40000,   819.30000
    712.49,  2928.00000,   900.20000
    712.95,  2810.40000,  1042.40000
    713.41,  2778.20000,  1048.50000
    713.87,  2776.20000,  1037.60000
    714.33,  2782.20000,  1025.00000
    714.80,  2779.20000,  1017.90000
    715.26,  2746.50000,  1000.80000
    715.72,  2750.40000,   995.30000
    716.18,  2740.90000,   992.70000
    716.64,  2745.40000,  1013.00000
    717.11,  2751.40000,  1007.10000
    717.57,  2748.90000,  1009.10000
    718.03,  2734.10000,   992.00000
    718.49,  2751.10000,   984.10000
    718.95,  2795.70000,   977.80000
    719.41,  2799.80000,   992.90000
    719.87,  2764.50000,  1006.90000
    720.34,  2753.70000,  1007.20000
    720.80,  2750.60000,   999.30000
    721.26,  2744.20000,  1002.30000
    721.72,  2779.80000,   995.00000
    722.18,  2766.80000,   992.00000
    722.64,  2733.30000,   999.50000
    723.10,  2738.90000,   987.40000
    723.57,  2748.00000,   984.30000
    724.03,  2759.70000,   978.50000
    724.49,  2765.20000,   973.20000
    724.95,  2732.10000,   970.50000
    725.41,  2798.10000,   962.10000
    725.87,  2850.70000,   956.70000
    726.33,  2873.50000,   960.60000
    726.80,  2882.40000,   954.10000
    727.26,  2828.20000,   964.00000
    727.72,  2734.50000,   978.90000
    728.18,  2739.10000,   978.00000
    728.64,  2725.50000,   983.20000
    729.10,  2735.90000,   986.70000
    729.56,  2765.40000,   979.40000
    730.02,  2790.10000,   976.70000
    730.48,  2793.60000,   968.10000
    730.94,  2783.50000,   958.50000
    731.41,  2764.20000,   962.90000
    731.87,  2732.20000,   969.70000
    732.33,  2719.30000,   961.70000
    732.79,  2755.10000,   955.60000
    733.25,  2761.70000,   940.70000
    733.71,  2774.90000,   940.70000
    734.17,  2781.70000,   945.60000
    734.63,  2754.20000,   956.80000
    735.09,  2741.40000,   956.10000
    735.55,  2750.20000,   958.00000
    736.01,  2747.00000,   940.00000
    736.47,  2755.30000,   940.90000
    736.94,  2755.80000,   937.50000
    737.40,  2766.20000,   945.50000
    737.86,  2762.20000,   953.60000
    738.32,  2768.70000,   955.50000
    738.78,  2781.50000,   946.40000
    739.24,  2768.00000,   955.20000
    739.70,  2760.90000,   952.20000
    740.16,  2783.30000,   949.60000
    740.62,  2793.50000,   943.40000
    741.08,  2809.70000,   936.90000
    741.54,  2799.70000,   922.60000
    742.00,  2781.10000,   930.20000
    742.46,  2754.40000,   923.30000
    742.92,  2722.30000,   931.40000
    743.38,  2720.10000,   937.70000
    743.84,  2720.90000,   944.10000
    744.30,  2740.10000,   934.50000
    744.76,  2757.70000,   938.90000
    745.22,  2764.90000,   921.60000
    745.68,  2738.90000,   924.70000
    746.14,  2729.60000,   922.90000
    746.60,  2736.80000,   927.10000
    747.06,  2753.10000,   926.30000
    747.52,  2738.20000,   928.90000
    747.98,  2752.20000,   937.10000
    748.44,  2750.50000,   947.20000
    748.90,  2745.80000,   943.20000
    749.36,  2749.10000,   956.20000
    749.82,  2761.80000,   955.70000
    750.28,  2773.90000,   939.10000
    750.74,  2796.40000,   944.90000
    751.20,  2803.40000,   926.80000
    751.66,  2788.80000,   913.30000
    752.12,  2763.00000,   919.10000
    752.58,  2776.20000,   907.90000
    753.04,  2808.70000,   889.60000
    753.50,  2839.70000,   896.80000
    753.96,  2824.10000,   895.40000
    754.42,  2780.80000,   911.10000
    754.88,  2737.40000,   927.00000
    755.34,  2729.40000,   925.30000
    755.80,  2756.80000,   921.30000
    756.26,  2775.30000,   912.70000
    756.72,  2780.10000,   910.20000
    757.18,  2780.50000,   913.20000
    757.64,  2770.00000,   920.90000
    758.10,  2736.50000,   929.70000
    758.56,  2714.90000,   938.80000
    759.02,  2725.30000,   928.20000
    759.48,  2732.00000,   929.30000
    759.94,  2753.50000,   931.10000
    760.40,  2756.80000,   940.50000
    760.86,  2748.50000,   943.60000
    761.32,  2745.50000,   947.60000
    761.78,  2777.50000,   938.30000
    762.24,  2759.30000,   935.30000
    762.70,  2767.90000,   934.60000
    763.15,  2750.30000,   936.60000
    763.61,  2759.40000,   932.20000
    764.07,  2771.70000,   924.70000
    764.53,  2776.30000,   917.30000
    764.99,  2776.70000,   918.70000
    765.45,  2792.10000,   922.60000
    765.91,  2769.90000,   923.20000
    766.37,  2761.90000,   920.10000
    766.83,  2740.00000,   915.50000
    767.29,  2742.40000,   920.90000
    767.75,  2747.10000,   927.90000
    768.21,  2763.50000,   928.30000
    768.66,  2767.30000,   931.30000
    769.12,  2770.30000,   942.20000
    769.58,  2742.90000,   948.70000
    770.04,  2734.60000,   951.30000
    770.50,  2709.70000,   944.70000
    770.96,  2708.10000,   932.60000
    771.42,  2740.40000,   922.40000
    771.88,  2752.80000,   926.30000
    772.34,  2757.00000,   919.60000
    772.80,  2745.80000,   918.90000
    773.25,  2726.40000,   918.70000
    773.71,  2725.70000,   926.60000
    774.17,  2715.00000,   931.90000
    774.63,  2726.30000,   934.40000
    775.09,  2737.40000,   927.30000
    775.55,  2726.50000,   928.90000
    776.01,  2706.40000,   927.30000
    776.47,  2709.10000,   934.20000
    776.92,  2688.90000,   939.60000
    777.38,  2720.70000,   940.20000
    777.84,  2726.60000,   943.40000
    778.30,  2724.60000,   944.60000
    778.76,  2716.70000,   944.80000
    779.22,  2734.00000,   939.00000
    779.68,  2731.70000,   936.40000
    780.13,  2738.90000,   935.60000
    780.59,  2721.00000,   942.50000
    781.05,  2704.90000,   945.30000
    781.51,  2715.10000,   946.90000
    781.97,  2738.50000,   934.20000
    782.43,  2750.80000,   924.40000
    782.88,  2769.80000,   915.90000
    783.34,  2761.60000,   919.20000
    783.80,  2757.40000,   929.50000
    784.26,  2768.10000,   937.70000
    784.72,  2749.30000,   938.50000
    785.18,  2734.70000,   937.80000
    785.63,  2724.70000,   928.50000
    786.09,  2741.40000,   924.80000
    786.55,  2777.80000,   934.90000
    787.01,  2798.80000,   937.00000
    787.47,  2767.10000,   947.30000
    787.92,  2742.20000,   939.10000
    788.38,  2722.60000,   922.50000
    788.84,  2713.10000,   919.20000
    789.30,  2727.70000,   921.60000
    789.76,  2732.20000,   927.90000
    790.21,  2725.30000,   941.50000
    790.67,  2715.80000,   945.30000
    791.13,  2719.00000,   940.70000
    791.59,  2694.10000,   942.20000
    792.05,  2700.30000,   932.40000
    792.50,  2717.90000,   930.10000
    792.96,  2741.10000,   922.50000
    793.42,  2717.90000,   924.10000
    793.88,  2727.90000,   918.30000
    794.33,  2702.50000,   911.90000
    794.79,  2711.10000,   897.00000
    795.25,  2722.20000,   902.60000
    795.71,  2734.10000,   912.50000
    796.17,  2741.50000,   908.20000
    796.62,  2743.30000,   919.80000
    797.08,  2710.80000,   923.40000
    797.54,  2705.20000,   920.30000
    798.00,  2694.00000,   924.90000
    798.45,  2696.90000,   930.10000
    798.91,  2712.50000,   918.70000
    799.37,  2723.90000,   922.40000
    799.83,  2722.50000,   923.30000
    800.28,  2711.70000,   923.80000
    800.74,  2713.60000,   914.70000
    801.20,  2728.70000,   917.20000
    801.66,  2711.50000,   909.70000
    802.11,  2723.40000,   905.50000
    802.57,  2732.70000,   903.10000
    803.03,  2705.20000,   902.50000
    803.48,  2691.80000,   898.10000
    803.94,  2742.20000,   909.60000
    804.40,  2758.70000,   911.80000
    804.86,  2787.40000,   910.50000
    805.31,  2780.90000,   908.50000
    805.77,  2737.30000,   905.10000
    806.23,  2689.50000,   897.60000
    806.69,  2715.30000,   896.40000
    807.14,  2719.50000,   896.20000
    807.60,  2736.90000,   903.70000
    808.06,  2737.70000,   909.80000
    808.51,  2733.30000,   905.30000
    808.97,  2703.20000,   900.90000
    809.43,  2706.70000,   898.50000
    809.88,  2707.10000,   894.90000
    810.34,  2695.70000,   905.40000
    810.80,  2719.30000,   906.20000
    811.26,  2735.90000,   900.30000
    811.71,  2723.30000,   893.70000
    812.17,  2746.10000,   891.60000
    812.63,  2741.30000,   887.00000
    813.08,  2712.40000,   888.60000
    813.54,  2716.10000,   882.20000
    814.00,  2718.90000,   884.40000
    814.45,  2713.60000,   890.10000
    814.91,  2736.70000,   887.60000
    815.37,  2727.10000,   888.30000
    815.82,  2718.80000,   883.30000
    816.28,  2711.80000,   873.80000
    816.74,  2712.90000,   872.10000
    817.19,  2679.40000,   887.30000
    817.65,  2692.50000,   888.90000
    818.11,  2710.10000,   901.80000
    818.56,  2712.60000,   902.60000
    819.02,  2709.60000,   890.50000
    819.48,  2713.70000,   881.40000
    819.93,  2667.00000,   885.20000
    820.39,  2686.00000,   882.00000
    820.84,  2715.10000,   881.60000
    821.30,  2736.30000,   874.80000
    821.76,  2752.90000,   860.60000
    822.21,  2766.20000,   856.90000
    822.67,  2744.30000,   855.90000
    823.13,  2705.30000,   866.30000
    823.58,  2726.20000,   871.20000
    824.04,  2746.50000,   872.50000
    824.49,  2741.80000,   871.60000
    824.95,  2747.90000,   863.70000
    825.41,  2751.50000,   860.40000
    825.86,  2724.10000,   860.60000
    826.32,  2756.80000,   859.00000
    826.78,  2743.20000,   857.90000
    827.23,  2720.90000,   853.20000
    827.69,  2702.30000,   852.50000
    828.14,  2705.60000,   852.80000
    828.60,  2722.50000,   847.70000
    829.06,  2739.10000,   845.80000
    829.51,  2730.00000,   844.30000
    829.97,  2737.10000,   839.90000
    830.42,  2735.60000,   842.90000
    830.88,  2718.70000,   841.10000
    831.34,  2714.20000,   834.90000
    831.79,  2726.40000,   835.30000
    832.25,  2725.50000,   840.20000
    832.70,  2722.00000,   838.00000
    833.16,  2730.50000,   837.80000
    833.61,  2724.50000,   835.30000
    834.07,  2723.90000,   829.80000
    834.53,  2727.30000,   836.20000
    834.98,  2716.60000,   842.90000
    835.44,  2694.40000,   841.40000
    835.89,  2701.10000,   834.30000
    836.35,  2713.70000,   826.70000
    836.80,  2737.30000,   820.00000
    837.26,  2721.90000,   822.20000
    837.71,  2705.10000,   816.30000
    838.17,  2698.60000,   820.30000
    838.63,  2690.70000,   825.00000
    839.08,  2687.00000,   825.10000
    839.54,  2705.30000,   826.70000
    839.99,  2694.10000,   831.70000
    840.45,  2712.50000,   822.50000
    840.90,  2738.80000,   826.60000
    841.36,  2748.60000,   829.50000
    841.81,  2740.20000,   816.30000
    842.27,  2731.90000,   812.20000
    842.72,  2708.20000,   806.90000
    843.18,  2705.50000,   801.70000
    843.63,  2684.00000,   804.90000
    844.09,  2682.10000,   806.00000
    844.55,  2671.00000,   800.60000
    845.00,  2674.20000,   803.10000
    845.46,  2688.50000,   801.80000
    845.91,  2702.70000,   801.00000
    846.37,  2719.20000,   802.60000
    846.82,  2738.30000,   810.40000
    847.28,  2743.50000,   809.20000
    847.73,  2696.00000,   806.80000
    848.19,  2717.80000,   805.60000
    848.64,  2727.40000,   796.20000
    849.10,  2749.80000,   799.50000
    849.55,  2751.60000,   804.20000
    850.01,  2743.20000,   797.90000
    850.46,  2688.60000,   795.10000
    850.92,  2711.20000,   805.20000
    851.37,  2721.10000,   803.30000
    851.83,  2725.20000,   805.40000
    852.28,  2728.30000,   799.50000
    852.73,  2714.40000,   790.00000
    853.19,  2682.60000,   786.10000
    853.64,  2687.30000,   788.30000
    854.10,  2691.60000,   787.20000
    854.55,  2696.00000,   791.60000
    855.01,  2703.10000,   793.00000
    855.46,  2683.10000,   794.50000
    855.92,  2668.40000,   796.20000
    856.37,  2669.80000,   793.00000
    856.83,  2666.00000,   791.80000
    857.28,  2690.00000,   791.90000
    857.74,  2700.40000,   786.80000
    858.19,  2700.80000,   789.90000
    858.64,  2717.90000,   796.00000
    859.10,  2712.00000,   786.80000
    859.55,  2688.70000,   781.40000
    860.01,  2742.90000,   781.30000
    860.46,  2772.20000,   772.60000
    860.92,  2761.10000,   788.40000
    861.37,  2753.80000,   793.10000
    861.83,  2747.90000,   785.60000
    862.28,  2718.70000,   785.90000
    862.73,  2731.60000,   795.40000
    863.19,  2723.10000,   784.60000
    863.64,  2692.90000,   796.90000
    864.10,  2675.90000,   795.10000
    864.55,  2699.00000,   794.60000
    865.01,  2701.80000,   793.60000
    865.46,  2718.50000,   799.90000
    865.91,  2708.30000,   787.80000
    866.37,  2701.10000,   779.90000
    866.82,  2685.10000,   782.60000
    867.28,  2678.30000,   792.50000
    867.73,  2666.70000,   802.10000
    868.18,  2698.10000,   809.70000
    868.64,  2698.90000,   808.00000
    869.09,  2728.10000,   797.00000
    869.55,  2740.80000,   794.20000
    870.00,  2734.00000,   788.10000
    870.45,  2726.50000,   786.50000
    870.91,  2702.90000,   774.00000
    871.36,  2673.50000,   774.30000
    871.81,  2683.30000,   779.30000
    872.27,  2704.20000,   785.20000
    872.72,  2704.70000,   790.40000
    873.18,  2711.60000,   792.20000
    873.63,  2687.80000,   786.50000
    874.08,  2682.30000,   792.10000
    874.54,  2698.50000,   793.60000
    874.99,  2704.50000,   781.30000
    875.44,  2677.40000,   786.60000
    875.90,  2667.50000,   772.90000
    876.35,  2661.90000,   779.00000
    876.81,  2699.70000,   779.80000
    877.26,  2733.10000,   780.60000
    877.71,  2720.60000,   784.30000
    878.17,  2685.70000,   798.70000
    878.62,  2699.10000,   797.80000
    879.07,  2713.10000,   808.80000
    879.53,  2741.80000,   799.90000
    879.98,  2735.90000,   794.10000
    880.43,  2717.80000,   801.30000
    880.89,  2706.40000,   795.40000
    881.34,  2709.50000,   791.30000
    881.79,  2719.40000,   792.60000
    882.25,  2710.50000,   779.70000
    882.70,  2687.00000,   779.10000
    883.15,  2675.00000,   787.20000
    883.61,  2690.60000,   786.30000
    884.06,  2675.70000,   791.70000
    884.51,  2694.20000,   800.40000
    884.97,  2683.80000,   793.60000
    885.42,  2693.80000,   798.30000
    885.87,  2696.70000,   788.10000
    886.32,  2711.30000,   787.70000
    886.78,  2684.90000,   790.20000
    887.23,  2697.10000,   788.20000
    887.68,  2690.50000,   791.50000
    888.14,  2688.50000,   801.30000
    888.59,  2669.50000,   805.70000
    889.04,  2650.80000,   805.60000
    889.50,  2624.40000,   806.50000
    889.95,  2652.30000,   797.60000
    890.40,  2685.10000,   800.00000
    890.85,  2700.70000,   800.10000
    891.31,  2686.60000,   810.00000
    891.76,  2686.50000,   802.30000
    892.21,  2671.50000,   805.00000
    892.67,  2683.60000,   798.90000
    893.12,  2682.00000,   802.40000
    893.57,  2687.40000,   804.10000
    894.02,  2689.90000,   813.80000
    894.48,  2714.80000,   810.30000
    894.93,  2714.60000,   805.90000
    895.38,  2717.70000,   803.90000
    895.83,  2692.40000,   807.20000
    896.29,  2687.40000,   810.70000
    896.74,  2682.40000,   807.70000
    897.19,  2704.00000,   800.80000
    897.64,  2708.30000,   805.70000
    898.10,  2717.60000,   806.20000
    898.55,  2695.80000,   809.40000
    899.00,  2690.70000,   811.30000
    899.45,  2660.20000,   805.00000
    899.91,  2655.10000,   804.10000
    900.36,  2636.60000,   813.00000
    900.81,  2668.00000,   810.20000
    901.26,  2672.80000,   818.80000
    901.72,  2692.30000,   825.60000
    902.17,  2687.80000,   826.80000
    902.62,  2692.80000,   828.30000
    903.07,  2665.20000,   829.70000
    903.52,  2675.70000,   828.30000
    903.98,  2673.50000,   837.90000
    904.43,  2685.60000,   836.10000
    904.88,  2677.20000,   835.50000
    905.33,  2682.50000,   833.50000
    905.79,  2671.80000,   822.20000
    906.24,  2684.60000,   812.90000
    906.69,  2702.40000,   814.00000
    907.14,  2703.20000,   816.60000
    907.59,  2672.90000,   823.90000
    908.05,  2656.70000,   829.00000
    908.50,  2640.20000,   832.50000
    908.95,  2651.20000,   837.10000
    909.40,  2659.20000,   839.70000
    909.85,  2652.70000,   847.10000
    910.31,  2662.40000,   838.90000
    910.76,  2649.60000,   840.70000
    911.21,  2635.60000,   841.60000
    911.66,  2634.20000,   848.00000
    912.11,  2626.70000,   855.80000
    912.56,  2654.40000,   858.90000
    913.02,  2682.10000,   855.10000
    913.47,  2675.90000,   856.90000
    913.92,  2664.30000,   859.10000
    914.37,  2648.00000,   872.70000
    914.82,  2646.50000,   887.30000
    915.27,  2674.30000,   891.60000
    915.73,  2694.00000,   903.10000
    916.18,  2683.60000,   900.20000
    916.63,  2663.90000,   907.50000
    917.08,  2625.00000,   914.70000
    917.53,  2657.80000,   920.90000
    917.98,  2551.80000,   928.90000
    918.44,  2898.30000,   951.80000
    918.89,  3081.30000,   951.50000
    919.34,  3134.90000,   957.90000
    919.79,  3041.20000,   961.20000
    920.24,  2873.20000,   970.10000
    920.69,  2551.80000,   989.00000
    921.14,  2679.10000,  1011.70000
    921.59,  2673.40000,  1020.90000
    922.05,  2673.50000,  1033.80000
    922.50,  2679.50000,  1043.80000
    922.95,  2704.20000,  1057.60000
    923.40,  2722.30000,  1090.20000
    923.85,  2718.30000,  1131.90000
    924.30,  2721.00000,  1169.60000
    924.75,  2700.30000,  1230.60000
    925.20,  2686.80000,  1287.90000
    925.66,  2672.60000,  1365.10000
    926.11,  2665.30000,  1488.50000
    926.56,  2671.10000,  1622.80000
    927.01,  2693.20000,  1780.60000
    927.46,  2683.70000,  1973.20000
    927.91,  2655.10000,  2147.40000
    928.36,  2622.70000,  2327.90000
    928.81,  2623.70000,  2536.80000
    929.26,  2648.70000,  2772.50000
    929.71,  2679.00000,  3083.60000
    930.16,  2700.30000,  3400.90000
    930.62,  2672.40000,  3669.70000
    931.07,  2662.60000,  3932.70000
    931.52,  2660.90000,  4229.40000
    931.97,  2675.00000,  4577.90000
    932.42,  2680.30000,  4968.20000
    932.87,  2688.70000,  5277.30000
    933.32,  2666.50000,  5444.30000
    933.77,  2690.90000,  5547.10000
    934.22,  2689.60000,  5642.90000
    934.67,  2708.00000,  5824.30000
    935.12,  2703.60000,  6068.00000
    935.57,  2675.10000,  6265.10000
    936.02,  2640.00000,  6347.60000
    936.47,  2655.50000,  6338.50000
    936.93,  2636.20000,  6306.50000
    937.38,  2638.00000,  6374.90000
    937.83,  2655.40000,  6464.60000
    938.28,  2652.00000,  6527.00000
    938.73,  2646.20000,  6492.60000
    939.18,  2664.10000,  6426.00000
    939.63,  2670.80000,  6474.30000
    940.08,  2681.60000,  6710.60000
    940.53,  2708.90000,  6931.10000
    940.98,  2700.70000,  7120.30000
    941.43,  2673.30000,  7294.10000
    941.88,  2662.90000,  7538.30000
    942.33,  2669.60000,  7776.70000
    942.78,  2667.70000,  7979.40000
    943.23,  2688.50000,  8012.40000
    943.68,  2685.40000,  7977.80000
    944.13,  2690.90000,  8035.30000
    944.58,  2702.00000,  8192.70000
    945.03,  2694.60000,  8193.30000
    945.48,  2660.20000,  8083.90000
    945.93,  2655.60000,  8037.20000
    946.38,  2657.40000,  8091.90000
    946.83,  2684.00000,  8219.60000
    947.28,  2701.60000,  8292.90000
    947.73,  2701.40000,  8231.70000
    948.18,  2678.00000,  8201.10000
    948.63,  2664.10000,  8281.70000
    949.08,  2654.40000,  8278.00000
    949.53,  2637.70000,  8288.10000
    949.98,  2628.20000,  8356.40000
    950.43,  2642.00000,  8386.30000
    950.88,  2657.40000,  8358.90000
    951.33,  2673.10000,  8320.00000
    951.78,  2696.00000,  8146.40000
    952.23,  2692.70000,  7955.30000
    952.68,  2672.30000,  7929.30000
    953.13,  2670.60000,  7957.20000
    953.58,  2675.10000,  7881.30000
    954.03,  2669.00000,  7795.40000
    954.48,  2659.10000,  7683.50000
    954.93,  2652.20000,  7485.00000
    955.38,  2640.30000,  7401.50000
    955.83,  2644.20000,  7446.90000
    956.28,  2652.40000,  7420.50000
    956.73,  2668.40000,  7295.10000
    957.18,  2674.70000,  7208.80000
    957.62,  2665.60000,  7127.10000
    958.07,  2667.40000,  7078.90000
    958.52,  2653.10000,  7018.50000
    958.97,  2645.60000,  6838.80000
    959.42,  2646.20000,  6567.70000
    959.87,  2642.60000,  6393.10000
    960.32,  2644.30000,  6275.10000
    960.77,  2662.20000,  6191.40000
    961.22,  2703.70000,  6075.90000
    961.67,  2721.20000,  5894.80000
    962.12,  2699.00000,  5641.10000
    962.57,  2669.20000,  5448.60000
    963.02,  2674.60000,  5284.50000
    963.47,  2656.00000,  5157.10000
    963.92,  2682.20000,  5042.60000
    964.36,  2678.30000,  4966.70000
    964.81,  2673.60000,  4839.30000
    965.26,  2672.70000,  4735.20000
    965.71,  2683.00000,  4618.60000
    966.16,  2674.40000,  4523.30000
    966.61,  2662.60000,  4461.80000
    967.06,  2646.30000,  4428.30000
    967.51,  2666.00000,  4359.60000
    967.96,  2670.90000,  4279.00000
    968.41,  2682.60000,  4187.40000
    968.85,  2691.00000,  4104.30000
    969.30,  2677.80000,  4016.50000
    969.75,  2686.80000,  3879.70000
    970.20,  2682.90000,  3730.70000
    970.65,  2683.40000,  3580.60000
    971.10,  2672.60000,  3439.30000
    971.55,  2672.10000,  3295.30000
    972.00,  2656.30000,  3156.20000
    972.44,  2653.90000,  3011.00000
    972.89,  2674.90000,  2894.40000
    973.34,  2699.60000,  2812.30000
    973.79,  2700.00000,  2752.40000
    974.24,  2709.90000,  2669.90000
    974.69,  2681.10000,  2578.10000
    975.14,  2643.70000,  2501.80000
    975.59,  2642.20000,  2454.20000
    976.03,  2628.70000,  2425.70000
    976.48,  2622.80000,  2415.20000
    976.93,  2631.60000,  2399.30000
    977.38,  2637.90000,  2387.00000
    977.83,  2630.80000,  2383.30000
    978.28,  2640.00000,  2390.00000
    978.72,  2649.10000,  2393.80000
    979.17,  2664.10000,  2387.50000
    979.62,  2680.20000,  2372.00000
    980.07,  2689.00000,  2345.50000
    980.52,  2676.10000,  2325.70000
    980.97,  2649.70000,  2333.30000
    981.41,  2605.00000,  2340.40000
    981.86,  2584.80000,  2370.70000
    982.31,  2607.50000,  2395.30000
    982.76,  2629.60000,  2399.10000
    983.21,  2672.20000,  2383.60000
    983.66,  2684.90000,  2357.30000
    984.10,  2653.00000,  2300.30000
    984.55,  2633.70000,  2228.80000
    985.00,  2619.00000,  2156.00000
    985.45,  2596.20000,  2091.70000
    985.90,  2614.80000,  2054.20000
    986.34,  2633.30000,  2022.70000
    986.79,  2617.90000,  1975.40000
    987.24,  2618.90000,  1891.40000
    987.69,  2597.30000,  1823.10000
    988.14,  2587.60000,  1768.30000
    988.58,  2607.60000,  1726.10000
    989.03,  2626.40000,  1674.90000
    989.48,  2633.20000,  1623.40000
    989.93,  2642.70000,  1561.40000
    990.38,  2629.40000,  1518.40000
    990.82,  2627.90000,  1497.00000
    991.27,  2638.80000,  1478.40000
    991.72,  2659.20000,  1445.30000
    992.17,  2646.50000,  1415.60000
    992.61,  2657.50000,  1374.20000
    993.06,  2633.60000,  1333.40000
    993.51,  2651.20000,  1308.50000
    993.96,  2649.90000,  1290.70000
    994.41,  2645.70000,  1274.70000
    994.85,  2626.00000,  1272.20000
    995.30,  2645.40000,  1255.30000
    995.75,  2637.80000,  1250.90000
    996.20,  2676.00000,  1244.70000
    996.64,  2662.00000,  1229.20000
    997.09,  2629.60000,  1209.80000
    997.54,  2620.80000,  1188.70000
    997.99,  2608.20000,  1164.30000
    998.43,  2603.90000,  1157.20000
    998.88,  2609.60000,  1148.40000
    999.33,  2613.60000,  1137.10000
    999.77,  2634.00000,  1122.90000
   1000.22,  2659.50000,  1101.30000
   1000.67,  2665.80000,  1096.20000
   1001.12,  2674.00000,  1095.60000
   1001.56,  2644.00000,  1094.20000
   1002.01,  2625.80000,  1087.30000
   1002.46,  2630.70000,  1087.80000
   1002.91,  2611.50000,  1079.50000
   1003.35,  2621.40000,  1082.60000
   1003.80,  2622.60000,  1075.30000
   1004.25,  2624.10000,  1067.90000
   1004.69,  2627.70000,  1062.20000
   1005.14,  2615.80000,  1061.60000
   1005.59,  2609.90000,  1061.40000
   1006.04,  2637.30000,  1069.90000
   1006.48,  2651.20000,  1075.10000
   1006.93,  2677.00000,  1080.10000
   1007.38,  2674.60000,  1071.50000
   1007.82,  2639.30000,  1062.00000
   1008.27,  2619.40000,  1049.60000
   1008.72,  2607.90000,  1054.70000
   1009.16,  2600.60000,  1068.50000
   1009.61,  2608.70000,  1066.90000
   1010.06,  2615.00000,  1057.50000
   1010.50,  2642.70000,  1057.40000
   1010.95,  2668.10000,  1054.60000
   1011.40,  2669.10000,  1070.50000
   1011.85,  2645.50000,  1073.70000
   1012.29,  2635.60000,  1073.90000
   1012.74,  2610.40000,  1069.90000
   1013.19,  2608.90000,  1065.60000
   1013.63,  2655.70000,  1056.20000
   1014.08,  2676.70000,  1061.20000
   1014.53,  2668.30000,  1058.70000
   1014.97,  2651.50000,  1065.60000
   1015.42,  2622.80000,  1068.00000
   1015.86,  2581.60000,  1073.10000
   1016.31,  2608.20000,  1072.90000
   1016.76,  2636.80000,  1076.40000
   1017.20,  2627.70000,  1079.30000
   1017.65,  2608.90000,  1075.70000
   1018.10,  2606.40000,  1076.00000
   1018.54,  2585.90000,  1072.70000
   1018.99,  2610.50000,  1074.70000
   1019.44,  2625.00000,  1069.60000
   1019.88,  2621.30000,  1075.70000
   1020.33,  2613.10000,  1082.40000
   1020.78,  2616.30000,  1087.50000
   1021.22,  2626.50000,  1079.10000
   1021.67,  2636.10000,  1073.40000
   1022.11,  2627.90000,  1066.70000
   1022.56,  2629.00000,  1061.70000
   1023.01,  2612.00000,  1061.10000
   1023.45,  2596.70000,  1060.80000
   1023.90,  2595.60000,  1069.00000
   1024.34,  2586.00000,  1072.10000
   1024.79,  2591.60000,  1075.80000
   1025.24,  2612.90000,  1073.30000
   1025.68,  2610.90000,  1065.90000
   1026.13,  2614.90000,  1059.20000
   1026.58,  2616.80000,  1067.70000
   1027.02,  2629.50000,  1075.80000
   1027.47,  2636.10000,  1080.80000
   1027.91,  2632.30000,  1094.70000
   1028.36,  2602.90000,  1092.10000
   1028.80,  2591.70000,  1094.60000
   1029.25,  2573.20000,  1093.30000
   1029.70,  2583.00000,  1087.00000
   1030.14,  2582.50000,  1081.50000
   1030.59,  2584.50000,  1083.30000
   1031.03,  2584.80000,  1084.80000
   1031.48,  2599.20000,  1090.80000
   1031.93,  2624.00000,  1088.60000
   1032.37,  2652.40000,  1083.70000
   1032.82,  2653.40000,  1079.40000
   1033.26,  2662.00000,  1082.30000
   1033.71,  2637.60000,  1089.60000
   1034.15,  2626.40000,  1094.20000
   1034.60,  2619.30000,  1100.80000
   1035.05,  2629.10000,  1100.20000
   1035.49,  2613.60000,  1105.40000
   1035.94,  2615.50000,  1108.10000
   1036.38,  2582.80000,  1109.00000
   1036.83,  2569.30000,  1109.50000
   1037.27,  2556.20000,  1113.30000
   1037.72,  2560.00000,  1110.50000
   1038.16,  2660.40000,  1114.30000
   1038.61,  2733.90000,  1114.70000
   1039.05,  2745.10000,  1117.70000
   1039.50,  2733.60000,  1125.70000
   1039.95,  2674.60000,  1129.30000
   1040.39,  2603.30000,  1136.70000
   1040.84,  2612.20000,  1140.10000
   1041.28,  2609.50000,  1144.60000
   1041.73,  2601.00000,  1137.40000
   1042.17,  2605.10000,  1137.40000
   1042.62,  2607.60000,  1129.00000
   1043.06,  2618.00000,  1142.30000
   1043.51,  2595.40000,  1155.40000
   1043.95,  2610.40000,  1161.60000
   1044.40,  2604.60000,  1164.80000
   1044.84,  2592.30000,  1162.00000
   1045.29,  2582.50000,  1162.80000
   1045.73,  2587.30000,  1174.30000
   1046.18,  2568.20000,  1175.20000
   1046.62,  2572.50000,  1170.90000
   1047.07,  2569.70000,  1171.10000
   1047.51,  2556.00000,  1171.70000
   1047.96,  2582.70000,  1183.30000
   1048.40,  2626.80000,  1188.90000
   1048.85,  2640.70000,  1186.90000
   1049.29,  2626.70000,  1194.20000
   1049.74,  2589.80000,  1183.30000
   1050.18,  2548.50000,  1192.20000
   1050.63,  2551.80000,  1198.20000
   1051.07,  2564.60000,  1199.50000
   1051.52,  2589.60000,  1195.90000
   1051.96,  2576.30000,  1206.30000
   1052.41,  2566.50000,  1192.20000
   1052.85,  2565.90000,  1197.10000
   1053.30,  2559.20000,  1197.40000
   1053.74,  2558.70000,  1201.20000
   1054.18,  2574.10000,  1202.60000
   1054.63,  2556.20000,  1213.50000
   1055.07,  2551.10000,  1210.00000
   1055.52,  2546.90000,  1212.80000
   1055.96,  2538.20000,  1217.30000
   1056.41,  2529.70000,  1219.40000
   1056.85,  2524.00000,  1228.10000
   1057.30,  2530.80000,  1225.70000
   1057.74,  2526.80000,  1227.30000
   1058.18,  2522.80000,  1239.80000
   1058.63,  2495.50000,  1253.20000
   1059.07,  2496.80000,  1250.20000
   1059.52,  2509.20000,  1254.00000
   1059.96,  2520.00000,  1243.10000
   1060.41,  2516.50000,  1246.60000
   1060.85,  2524.50000,  1256.60000
   1061.30,  2509.30000,  1265.20000
   1061.74,  2505.60000,  1264.10000
   1062.18,  2502.70000,  1265.50000
   1062.63,  2481.70000,  1267.80000
   1063.07,  2476.30000,  1267.70000
   1063.52,  2476.00000,  1277.90000
   1063.96,  2497.80000,  1277.60000
   1064.40,  2493.80000,  1293.40000
   1064.85,  2480.70000,  1308.20000
   1065.29,  2461.50000,  1315.40000
   1065.74,  2447.50000,  1314.60000
   1066.18,  2415.30000,  1321.10000
