2D Measure spectrum data V5.74

<< MEASURE 1 >>
Data count = 2048
Exposure time = 30000 msec
Average = 10
Inspected time = 2020/10/25 17:10

Wave-dcm-1,Dark spec.  ,Spectrum
    108.17,  2181.00000,   514.10000
    108.66,  2192.00000,   500.40000
    109.15,  2207.00000,   486.60000
    109.65,  2236.40000,   469.10000
    110.14,  2240.00000,   467.60000
    110.63,  2253.90000,   457.60000
    111.13,  2269.80000,   456.10000
    111.62,  2257.30000,   451.00000
    112.11,  2269.10000,   448.10000
    112.60,  2288.60000,   444.00000
    113.10,  2272.00000,   446.30000
    113.59,  2293.10000,   450.90000
    114.08,  2310.40000,   450.80000
    114.58,  2297.30000,   454.80000
    115.07,  2340.30000,   454.80000
    115.56,  2348.60000,   455.40000
    116.06,  2337.70000,   455.60000
    116.55,  2342.20000,   454.40000
    117.04,  2330.30000,   459.20000
    117.53,  2311.30000,   462.00000
    118.03,  2350.00000,   466.20000
    118.52,  2356.50000,   464.90000
    119.01,  2352.40000,   466.50000
    119.51,  2443.20000,   455.90000
    120.00,  2530.10000,   467.80000
    120.49,  2561.20000,   479.50000
    120.98,  2557.30000,   507.00000
    121.48,  2477.60000,   523.80000
    121.97,  2370.10000,   546.50000
    122.46,  2358.20000,   552.80000
    122.95,  2392.10000,   549.20000
    123.45,  2425.20000,   555.50000
    123.94,  2430.80000,   565.20000
    124.43,  2452.50000,   574.10000
    124.92,  2481.30000,   583.60000
    125.42,  2474.00000,   597.10000
    125.91,  2503.00000,   591.30000
    126.40,  2494.90000,   608.20000
    126.89,  2468.50000,   628.30000
    127.39,  2459.50000,   643.20000
    127.88,  2450.40000,   650.30000
    128.37,  2443.90000,   661.30000
    128.86,  2469.50000,   669.90000
    129.35,  2462.80000,   685.90000
    129.85,  2471.50000,   706.40000
    130.34,  2463.40000,   723.10000
    130.83,  2465.10000,   729.00000
    131.32,  2474.80000,   727.70000
    131.81,  2478.60000,   744.20000
    132.31,  2474.80000,   747.40000
    132.80,  2476.70000,   753.20000
    133.29,  2460.20000,   757.70000
    133.78,  2473.10000,   751.80000
    134.27,  2492.00000,   743.90000
    134.77,  2501.00000,   755.00000
    135.26,  2522.60000,   761.80000
    135.75,  2514.10000,   790.80000
    136.24,  2523.70000,   812.50000
    136.73,  2506.70000,   829.10000
    137.23,  2515.30000,   837.50000
    137.72,  2511.00000,   828.00000
    138.21,  2508.40000,   830.20000
    138.70,  2499.00000,   836.30000
    139.19,  2536.80000,   843.40000
    139.68,  2526.90000,   847.70000
    140.18,  2534.70000,   844.00000
    140.67,  2552.30000,   833.60000
    141.16,  2547.40000,   844.10000
    141.65,  2535.70000,   852.10000
    142.14,  2538.70000,   858.30000
    142.63,  2556.10000,   867.50000
    143.13,  2562.00000,   873.20000
    143.62,  2594.40000,   886.30000
    144.11,  2588.30000,   903.50000
    144.60,  2547.80000,   918.30000
    145.09,  2539.80000,   917.50000
    145.58,  2590.40000,   931.10000
    146.07,  2615.40000,   927.60000
    146.56,  2622.90000,   932.20000
    147.06,  2614.60000,   936.50000
    147.55,  2575.80000,   949.00000
    148.04,  2536.30000,   954.60000
    148.53,  2563.40000,   974.40000
    149.02,  2543.50000,   991.70000
    149.51,  2617.50000,  1007.20000
    150.00,  2675.10000,  1023.90000
    150.49,  2691.10000,  1042.30000
    150.99,  2688.80000,  1061.90000
    151.48,  2667.80000,  1085.60000
    151.97,  2584.80000,  1132.90000
    152.46,  2591.10000,  1160.50000
    152.95,  2573.00000,  1176.50000
    153.44,  2575.00000,  1180.70000
    153.93,  2591.30000,  1179.60000
    154.42,  2612.20000,  1171.00000
    154.91,  2595.50000,  1174.50000
    155.40,  2582.50000,  1175.30000
    155.89,  2564.20000,  1187.30000
    156.39,  2581.90000,  1194.70000
    156.88,  2551.40000,  1209.60000
    157.37,  2558.40000,  1232.20000
    157.86,  2562.80000,  1247.50000
    158.35,  2574.70000,  1264.90000
    158.84,  2592.20000,  1289.70000
    159.33,  2641.90000,  1308.30000
    159.82,  2654.40000,  1319.20000
    160.31,  2671.70000,  1337.50000
    160.80,  2702.40000,  1358.70000
    161.29,  2653.90000,  1372.10000
    161.78,  2616.40000,  1390.80000
    162.27,  2586.50000,  1410.40000
    162.76,  2582.30000,  1420.70000
    163.25,  2598.20000,  1417.70000
    163.74,  2628.70000,  1435.30000
    164.23,  2632.60000,  1444.00000
    164.72,  2655.30000,  1463.20000
    165.21,  2632.90000,  1481.40000
    165.70,  2612.30000,  1508.40000
    166.20,  2652.90000,  1520.40000
    166.69,  2669.40000,  1547.60000
    167.18,  2682.90000,  1567.50000
    167.67,  2680.70000,  1576.70000
    168.16,  2654.20000,  1568.60000
    168.65,  2602.30000,  1561.20000
    169.14,  2633.60000,  1548.00000
    169.63,  2630.40000,  1534.60000
    170.12,  2621.70000,  1528.80000
    170.61,  2612.80000,  1519.50000
    171.10,  2660.80000,  1517.10000
    171.59,  2653.20000,  1519.70000
    172.08,  2670.60000,  1516.50000
    172.57,  2673.90000,  1508.10000
    173.06,  2677.00000,  1508.20000
    173.55,  2668.50000,  1507.10000
    174.04,  2644.30000,  1523.20000
    174.53,  2633.90000,  1532.30000
    175.02,  2625.90000,  1544.50000
    175.50,  2647.50000,  1555.40000
    175.99,  2683.10000,  1549.50000
    176.48,  2717.80000,  1531.90000
    176.97,  2698.30000,  1512.60000
    177.46,  2706.40000,  1497.80000
    177.95,  2674.20000,  1498.90000
    178.44,  2647.40000,  1513.50000
    178.93,  2626.90000,  1511.80000
    179.42,  2646.40000,  1506.50000
    179.91,  2660.00000,  1502.10000
    180.40,  2675.70000,  1506.40000
    180.89,  2675.90000,  1523.50000
    181.38,  2659.10000,  1547.30000
    181.87,  2652.10000,  1561.90000
    182.36,  2652.50000,  1569.80000
    182.85,  2621.40000,  1576.30000
    183.34,  2648.80000,  1559.20000
    183.83,  2653.00000,  1541.60000
    184.32,  2649.40000,  1528.80000
    184.81,  2691.50000,  1524.40000
    185.29,  2689.30000,  1525.10000
    185.78,  2657.10000,  1537.30000
    186.27,  2676.00000,  1523.70000
    186.76,  2671.70000,  1496.50000
    187.25,  2641.70000,  1486.70000
    187.74,  2709.30000,  1491.40000
    188.23,  2731.60000,  1494.80000
    188.72,  2748.90000,  1515.60000
    189.21,  2734.80000,  1528.40000
    189.70,  2706.10000,  1527.20000
    190.19,  2668.90000,  1533.10000
    190.67,  2658.80000,  1537.90000
    191.16,  2654.70000,  1533.00000
    191.65,  2669.30000,  1510.80000
    192.14,  2656.20000,  1498.80000
    192.63,  2683.50000,  1494.90000
    193.12,  2703.50000,  1500.00000
    193.61,  2684.60000,  1511.20000
    194.10,  2689.00000,  1524.80000
    194.59,  2682.00000,  1512.40000
    195.07,  2667.20000,  1511.20000
    195.56,  2683.70000,  1510.40000
    196.05,  2668.30000,  1513.60000
    196.54,  2658.80000,  1514.00000
    197.03,  2681.10000,  1516.80000
    197.52,  2725.20000,  1504.70000
    198.01,  2731.00000,  1510.10000
    198.49,  2730.20000,  1511.40000
    198.98,  2716.80000,  1506.20000
    199.47,  2672.40000,  1507.40000
    199.96,  2665.00000,  1499.40000
    200.45,  2681.40000,  1486.20000
    200.94,  2659.70000,  1491.20000
    201.43,  2664.80000,  1486.40000
    201.91,  2657.20000,  1484.00000
    202.40,  2649.40000,  1487.30000
    202.89,  2654.50000,  1482.30000
    203.38,  2672.80000,  1478.70000
    203.87,  2676.80000,  1472.40000
    204.36,  2670.90000,  1462.90000
    204.84,  2667.50000,  1468.00000
    205.33,  2681.70000,  1477.30000
    205.82,  2689.30000,  1495.00000
    206.31,  2682.90000,  1498.90000
    206.80,  2680.70000,  1496.90000
    207.28,  2684.70000,  1492.80000
    207.77,  2698.80000,  1489.20000
    208.26,  2715.20000,  1490.90000
    208.75,  2721.20000,  1500.50000
    209.24,  2698.90000,  1504.50000
    209.72,  2707.10000,  1515.60000
    210.21,  2711.60000,  1524.30000
    210.70,  2687.70000,  1537.50000
    211.19,  2709.50000,  1542.80000
    211.68,  2719.80000,  1553.60000
    212.16,  2724.70000,  1556.70000
    212.65,  2733.20000,  1557.00000
    213.14,  2712.10000,  1564.60000
    213.63,  2698.80000,  1567.70000
    214.12,  2680.40000,  1579.80000
    214.60,  2689.80000,  1598.50000
    215.09,  2707.10000,  1609.90000
    215.58,  2704.30000,  1624.00000
    216.07,  2703.90000,  1637.20000
    216.55,  2716.70000,  1639.30000
    217.04,  2650.20000,  1653.20000
    217.53,  2639.30000,  1669.00000
    218.02,  2633.90000,  1685.30000
    218.50,  2634.90000,  1705.30000
    218.99,  2667.10000,  1700.80000
    219.48,  2701.20000,  1704.90000
    219.97,  2671.40000,  1716.00000
    220.45,  2676.20000,  1741.50000
    220.94,  2667.00000,  1770.70000
    221.43,  2673.40000,  1803.80000
    221.92,  2701.60000,  1805.40000
    222.40,  2703.70000,  1806.40000
    222.89,  2696.40000,  1804.00000
    223.38,  2717.00000,  1808.00000
    223.86,  2730.10000,  1818.30000
    224.35,  2748.40000,  1834.00000
    224.84,  2747.30000,  1838.30000
    225.33,  2729.50000,  1829.60000
    225.81,  2703.50000,  1815.40000
    226.30,  2695.90000,  1802.00000
    226.79,  2697.20000,  1797.50000
    227.27,  2689.30000,  1799.60000
    227.76,  2685.00000,  1796.70000
    228.25,  2706.20000,  1795.20000
    228.74,  2728.20000,  1777.50000
    229.22,  2754.30000,  1755.30000
    229.71,  2748.00000,  1732.60000
    230.20,  2728.60000,  1699.20000
    230.68,  2714.10000,  1674.70000
    231.17,  2697.00000,  1665.00000
    231.66,  2676.00000,  1643.50000
    232.14,  2679.40000,  1618.60000
    232.63,  2670.80000,  1592.20000
    233.12,  2694.90000,  1564.70000
    233.60,  2714.10000,  1551.30000
    234.09,  2692.70000,  1534.80000
    234.58,  2678.00000,  1520.20000
    235.06,  2683.70000,  1502.10000
    235.55,  2681.40000,  1491.30000
    236.04,  2678.90000,  1485.10000
    236.52,  2687.80000,  1485.60000
    237.01,  2668.20000,  1470.90000
    237.50,  2698.80000,  1461.60000
    237.98,  2701.60000,  1447.70000
    238.47,  2760.50000,  1439.80000
    238.96,  2776.00000,  1415.30000
    239.44,  2764.20000,  1403.30000
    239.93,  2758.50000,  1390.00000
    240.41,  2708.70000,  1391.00000
    240.90,  2650.50000,  1378.80000
    241.39,  2669.30000,  1393.90000
    241.87,  2705.60000,  1402.50000
    242.36,  2722.90000,  1401.20000
    242.85,  2762.00000,  1404.30000
    243.33,  2748.10000,  1404.40000
    243.82,  2727.90000,  1392.10000
    244.30,  2705.10000,  1389.10000
    244.79,  2708.60000,  1387.90000
    245.28,  2700.20000,  1368.60000
    245.76,  2696.50000,  1373.80000
    246.25,  2685.30000,  1373.90000
    246.74,  2701.70000,  1384.30000
    247.22,  2724.40000,  1383.90000
    247.71,  2722.00000,  1371.40000
    248.19,  2713.60000,  1353.20000
    248.68,  2713.70000,  1358.30000
    249.16,  2679.30000,  1357.60000
    249.65,  2706.80000,  1367.70000
    250.14,  2717.00000,  1373.90000
    250.62,  2699.70000,  1365.60000
    251.11,  2670.40000,  1369.40000
    251.59,  2654.60000,  1373.30000
    252.08,  2642.20000,  1384.40000
    252.57,  2663.30000,  1383.70000
    253.05,  2669.80000,  1369.60000
    253.54,  2710.30000,  1351.60000
    254.02,  2733.20000,  1348.60000
    254.51,  2738.50000,  1347.40000
    254.99,  2742.50000,  1350.60000
    255.48,  2715.40000,  1357.70000
    255.96,  2683.90000,  1357.50000
    256.45,  2703.20000,  1362.70000
    256.94,  2707.80000,  1363.10000
    257.42,  2695.90000,  1364.90000
    257.91,  2702.60000,  1356.50000
    258.39,  2700.00000,  1352.40000
    258.88,  2687.60000,  1349.90000
    259.36,  2704.10000,  1367.20000
    259.85,  2704.70000,  1368.40000
    260.33,  2718.10000,  1359.40000
    260.82,  2740.50000,  1354.60000
    261.30,  2751.70000,  1345.80000
    261.79,  2730.10000,  1344.90000
    262.27,  2710.80000,  1354.70000
    262.76,  2695.40000,  1358.30000
    263.24,  2694.10000,  1364.50000
    263.73,  2716.80000,  1375.30000
    264.22,  2709.90000,  1385.50000
    264.70,  2777.60000,  1385.50000
    265.19,  2806.50000,  1378.00000
    265.67,  2814.00000,  1365.90000
    266.16,  2782.70000,  1363.40000
    266.64,  2757.20000,  1364.90000
    267.13,  2688.70000,  1374.10000
    267.61,  2694.40000,  1380.80000
    268.10,  2704.40000,  1400.70000
    268.58,  2712.50000,  1401.90000
    269.06,  2706.90000,  1396.40000
    269.55,  2729.60000,  1397.20000
    270.03,  2739.40000,  1403.70000
    270.52,  2736.20000,  1412.00000
    271.00,  2742.60000,  1430.10000
    271.49,  2739.90000,  1433.50000
    271.97,  2733.70000,  1433.60000
    272.46,  2746.00000,  1431.50000
    272.94,  2749.40000,  1434.90000
    273.43,  2745.00000,  1439.00000
    273.91,  2717.70000,  1450.00000
    274.40,  2698.90000,  1467.10000
    274.88,  2685.40000,  1485.30000
    275.37,  2684.80000,  1500.00000
    275.85,  2687.70000,  1504.30000
    276.33,  2690.20000,  1513.60000
    276.82,  2700.60000,  1514.50000
    277.30,  2716.60000,  1509.10000
    277.79,  2713.40000,  1507.10000
    278.27,  2718.00000,  1516.00000
    278.76,  2730.90000,  1524.30000
    279.24,  2733.70000,  1540.30000
    279.73,  2739.70000,  1543.90000
    280.21,  2736.70000,  1533.70000
    280.69,  2710.70000,  1536.20000
    281.18,  2706.30000,  1536.50000
    281.66,  2722.10000,  1539.30000
    282.15,  2764.40000,  1535.00000
    282.63,  2770.90000,  1534.60000
    283.11,  2765.10000,  1533.40000
    283.60,  2759.70000,  1542.20000
    284.08,  2767.40000,  1549.40000
    284.57,  2732.90000,  1562.80000
    285.05,  2724.80000,  1571.20000
    285.53,  2700.80000,  1567.60000
    286.02,  2674.80000,  1557.10000
    286.50,  2700.50000,  1552.60000
    286.99,  2724.40000,  1553.20000
    287.47,  2713.40000,  1545.10000
    287.95,  2705.70000,  1543.70000
    288.44,  2702.00000,  1530.60000
    288.92,  2694.90000,  1517.60000
    289.41,  2714.00000,  1512.10000
    289.89,  2734.10000,  1509.20000
    290.37,  2744.80000,  1495.90000
    290.86,  2764.10000,  1503.30000
    291.34,  2733.70000,  1498.50000
    291.82,  2713.30000,  1498.30000
    292.31,  2692.70000,  1489.70000
    292.79,  2707.30000,  1478.80000
    293.28,  2712.70000,  1464.80000
    293.76,  2728.60000,  1465.80000
    294.24,  2727.20000,  1453.90000
    294.73,  2742.40000,  1454.10000
    295.21,  2743.30000,  1452.90000
    295.69,  2752.30000,  1444.40000
    296.18,  2726.90000,  1431.00000
    296.66,  2694.20000,  1418.80000
    297.14,  2689.20000,  1412.60000
    297.63,  2699.30000,  1407.50000
    298.11,  2712.10000,  1399.30000
    298.59,  2745.50000,  1380.80000
    299.08,  2751.80000,  1372.40000
    299.56,  2748.70000,  1365.90000
    300.04,  2766.50000,  1365.20000
    300.53,  2769.30000,  1365.30000
    301.01,  2764.80000,  1354.40000
    301.49,  2756.70000,  1342.00000
    301.98,  2724.50000,  1333.80000
    302.46,  2695.80000,  1325.70000
    302.94,  2702.90000,  1308.50000
    303.42,  2708.00000,  1305.50000
    303.91,  2697.00000,  1290.00000
    304.39,  2682.30000,  1287.80000
    304.87,  2685.10000,  1282.60000
    305.36,  2697.80000,  1285.30000
    305.84,  2729.40000,  1282.50000
    306.32,  2765.50000,  1282.00000
    306.81,  2756.00000,  1263.60000
    307.29,  2735.70000,  1246.70000
    307.77,  2727.60000,  1229.10000
    308.25,  2719.70000,  1221.10000
    308.74,  2730.20000,  1219.30000
    309.22,  2722.60000,  1229.20000
    309.70,  2711.40000,  1230.10000
    310.18,  2700.10000,  1223.40000
    310.67,  2707.80000,  1221.70000
    311.15,  2720.10000,  1211.90000
    311.63,  2739.10000,  1208.50000
    312.12,  2741.90000,  1203.60000
    312.60,  2723.10000,  1194.20000
    313.08,  2695.60000,  1185.80000
    313.56,  2680.30000,  1185.30000
    314.05,  2676.10000,  1179.10000
    314.53,  2699.00000,  1179.80000
    315.01,  2750.70000,  1183.80000
    315.49,  2758.30000,  1173.30000
    315.98,  2763.90000,  1166.80000
    316.46,  2733.60000,  1170.60000
    316.94,  2695.30000,  1169.00000
    317.42,  2688.00000,  1151.80000
    317.90,  2693.90000,  1154.30000
    318.39,  2682.00000,  1135.70000
    318.87,  2737.90000,  1121.80000
    319.35,  2749.60000,  1138.70000
    319.83,  2754.20000,  1143.10000
    320.32,  2771.50000,  1141.70000
    320.80,  2771.60000,  1152.80000
    321.28,  2722.50000,  1160.00000
    321.76,  2756.60000,  1149.70000
    322.24,  2756.10000,  1149.90000
    322.73,  2770.40000,  1142.80000
    323.21,  2779.40000,  1144.90000
    323.69,  2780.90000,  1144.90000
    324.17,  2727.30000,  1148.50000
    324.65,  2695.10000,  1142.10000
    325.14,  2706.70000,  1133.00000
    325.62,  2714.90000,  1135.40000
    326.10,  2761.20000,  1140.70000
    326.58,  2781.10000,  1150.30000
    327.06,  2738.30000,  1151.50000
    327.55,  2749.30000,  1154.00000
    328.03,  2781.60000,  1143.20000
    328.51,  2790.50000,  1134.60000
    328.99,  2810.20000,  1131.40000
    329.47,  2798.20000,  1133.40000
    329.95,  2727.60000,  1129.50000
    330.44,  2734.30000,  1135.60000
    330.92,  2697.80000,  1144.70000
    331.40,  2677.60000,  1155.60000
    331.88,  2662.60000,  1166.40000
    332.36,  2669.00000,  1165.30000
    332.84,  2699.50000,  1150.20000
    333.33,  2741.80000,  1139.80000
    333.81,  2750.10000,  1131.70000
    334.29,  2762.20000,  1121.60000
    334.77,  2766.30000,  1114.60000
    335.25,  2754.70000,  1116.30000
    335.73,  2768.20000,  1109.20000
    336.21,  2758.60000,  1111.40000
    336.69,  2745.80000,  1104.80000
    337.18,  2732.00000,  1104.10000
    337.66,  2710.30000,  1108.10000
    338.14,  2688.60000,  1116.40000
    338.62,  2676.10000,  1116.70000
    339.10,  2697.30000,  1115.70000
    339.58,  2746.10000,  1099.10000
    340.06,  2761.10000,  1095.70000
    340.54,  2772.60000,  1094.40000
    341.03,  2762.90000,  1092.20000
    341.51,  2731.20000,  1087.10000
    341.99,  2729.80000,  1090.10000
    342.47,  2733.90000,  1089.30000
    342.95,  2722.50000,  1094.90000
    343.43,  2719.10000,  1099.90000
    343.91,  2712.90000,  1106.00000
    344.39,  2689.60000,  1104.20000
    344.87,  2683.00000,  1099.80000
    345.35,  2695.10000,  1104.20000
    345.84,  2714.50000,  1097.00000
    346.32,  2761.10000,  1094.00000
    346.80,  2774.60000,  1097.30000
    347.28,  2766.30000,  1097.90000
    347.76,  2740.70000,  1099.30000
    348.24,  2736.20000,  1104.80000
    348.72,  2760.70000,  1107.90000
    349.20,  2788.90000,  1103.50000
    349.68,  2774.30000,  1092.50000
    350.16,  2742.80000,  1081.30000
    350.64,  2697.90000,  1082.90000
    351.12,  2688.40000,  1074.10000
    351.60,  2740.20000,  1083.50000
    352.08,  2783.10000,  1085.10000
    352.56,  2798.10000,  1093.60000
    353.04,  2787.80000,  1098.40000
    353.53,  2761.90000,  1107.30000
    354.01,  2743.60000,  1102.20000
    354.49,  2754.00000,  1101.80000
    354.97,  2749.50000,  1098.90000
    355.45,  2742.40000,  1105.70000
    355.93,  2721.10000,  1105.50000
    356.41,  2733.90000,  1108.20000
    356.89,  2721.60000,  1107.90000
    357.37,  2740.20000,  1102.00000
    357.85,  2721.60000,  1094.20000
    358.33,  2710.30000,  1098.40000
    358.81,  2683.60000,  1103.10000
    359.29,  2691.90000,  1106.40000
    359.77,  2707.90000,  1106.20000
    360.25,  2739.70000,  1101.60000
    360.73,  2740.90000,  1098.60000
    361.21,  2730.60000,  1099.80000
    361.69,  2738.20000,  1102.40000
    362.17,  2734.90000,  1105.30000
    362.65,  2746.40000,  1104.60000
    363.13,  2755.40000,  1101.30000
    363.61,  2766.10000,  1095.70000
    364.09,  2736.20000,  1096.70000
    364.57,  2735.90000,  1102.20000
    365.05,  2734.60000,  1101.50000
    365.53,  2712.00000,  1107.00000
    366.01,  2727.00000,  1105.30000
    366.49,  2765.90000,  1098.80000
    366.97,  2725.20000,  1109.70000
    367.45,  2738.20000,  1117.20000
    367.93,  2770.30000,  1109.40000
    368.41,  2763.70000,  1102.80000
    368.89,  2770.40000,  1093.30000
    369.37,  2775.60000,  1087.70000
    369.85,  2714.30000,  1103.30000
    370.33,  2714.80000,  1124.90000
    370.80,  2733.90000,  1128.20000
    371.28,  2739.60000,  1127.30000
    371.76,  2716.60000,  1127.70000
    372.24,  2702.00000,  1126.20000
    372.72,  2696.30000,  1135.90000
    373.20,  2711.00000,  1142.10000
    373.68,  2745.60000,  1132.10000
    374.16,  2768.30000,  1131.50000
    374.64,  2742.50000,  1131.90000
    375.12,  2718.90000,  1132.20000
    375.60,  2749.80000,  1139.00000
    376.08,  2730.40000,  1139.10000
    376.56,  2729.30000,  1130.70000
    377.04,  2722.00000,  1136.50000
    377.52,  2723.90000,  1136.80000
    377.99,  2722.50000,  1130.40000
    378.47,  2751.10000,  1137.00000
    378.95,  2729.00000,  1143.80000
    379.43,  2742.20000,  1151.00000
    379.91,  2737.70000,  1159.70000
    380.39,  2787.90000,  1166.90000
    380.87,  2819.80000,  1150.30000
    381.35,  2810.20000,  1141.90000
    381.83,  2781.20000,  1130.60000
    382.31,  2743.90000,  1136.90000
    382.79,  2699.40000,  1145.00000
    383.26,  2717.50000,  1159.60000
    383.74,  2715.70000,  1168.80000
    384.22,  2708.50000,  1171.70000
    384.70,  2716.60000,  1161.60000
    385.18,  2697.80000,  1162.80000
    385.66,  2704.60000,  1167.40000
    386.14,  2720.90000,  1165.90000
    386.62,  2734.20000,  1172.50000
    387.09,  2747.50000,  1178.10000
    387.57,  2757.20000,  1166.90000
    388.05,  2744.50000,  1168.80000
    388.53,  2744.50000,  1163.40000
    389.01,  2747.10000,  1160.70000
    389.49,  2770.40000,  1159.80000
    389.97,  2769.70000,  1171.10000
    390.44,  2759.10000,  1168.80000
    390.92,  2732.20000,  1180.90000
    391.40,  2717.50000,  1177.30000
    391.88,  2714.20000,  1183.50000
    392.36,  2721.40000,  1176.80000
    392.84,  2724.50000,  1181.60000
    393.32,  2741.60000,  1175.90000
    393.79,  2735.30000,  1178.80000
    394.27,  2788.90000,  1184.10000
    394.75,  2796.90000,  1186.10000
    395.23,  2790.70000,  1171.40000
    395.71,  2765.90000,  1172.70000
    396.18,  2761.20000,  1174.10000
    396.66,  2765.50000,  1174.10000
    397.14,  2793.00000,  1190.80000
    397.62,  2762.10000,  1196.70000
    398.10,  2760.90000,  1185.90000
    398.58,  2742.60000,  1191.90000
    399.05,  2755.10000,  1196.20000
    399.53,  2767.20000,  1185.70000
    400.01,  2756.40000,  1188.90000
    400.49,  2727.30000,  1185.70000
    400.97,  2713.90000,  1175.20000
    401.44,  2681.80000,  1178.60000
    401.92,  2712.60000,  1177.10000
    402.40,  2718.30000,  1166.70000
    402.88,  2744.70000,  1162.50000
    403.36,  2757.70000,  1159.90000
    403.83,  2776.00000,  1154.30000
    404.31,  2743.10000,  1155.00000
    404.79,  2754.70000,  1161.70000
    405.27,  2730.00000,  1167.40000
    405.74,  2710.00000,  1178.10000
    406.22,  2732.90000,  1180.00000
    406.70,  2752.80000,  1175.00000
    407.18,  2740.10000,  1162.20000
    407.65,  2731.30000,  1155.50000
    408.13,  2699.00000,  1154.10000
    408.61,  2695.80000,  1160.70000
    409.09,  2714.60000,  1156.10000
    409.56,  2715.70000,  1156.20000
    410.04,  2738.90000,  1136.70000
    410.52,  2741.70000,  1134.70000
    411.00,  2718.70000,  1130.50000
    411.47,  2711.70000,  1139.30000
    411.95,  2697.00000,  1135.30000
    412.43,  2689.70000,  1136.00000
    412.91,  2698.70000,  1121.20000
    413.38,  2719.70000,  1117.20000
    413.86,  2733.50000,  1109.60000
    414.34,  2732.90000,  1121.00000
    414.82,  2739.10000,  1117.60000
    415.29,  2734.40000,  1118.60000
    415.77,  2744.60000,  1116.40000
    416.25,  2743.80000,  1110.80000
    416.72,  2741.00000,  1112.50000
    417.20,  2725.00000,  1106.60000
    417.68,  2690.60000,  1101.90000
    418.16,  2683.60000,  1100.60000
    418.63,  2718.00000,  1098.50000
    419.11,  2724.40000,  1098.50000
    419.59,  2731.40000,  1102.40000
    420.06,  2705.50000,  1084.70000
    420.54,  2670.20000,  1081.10000
    421.02,  2690.30000,  1078.80000
    421.50,  2720.30000,  1076.80000
    421.97,  2733.70000,  1086.00000
    422.45,  2726.50000,  1083.30000
    422.93,  2712.60000,  1071.30000
    423.40,  2690.90000,  1063.90000
    423.88,  2694.40000,  1065.40000
    424.36,  2694.80000,  1067.00000
    424.83,  2710.20000,  1083.60000
    425.31,  2727.20000,  1072.50000
    425.79,  2778.60000,  1069.60000
    426.26,  2810.70000,  1067.70000
    426.74,  2796.00000,  1069.70000
    427.22,  2780.40000,  1061.10000
    427.69,  2768.20000,  1058.40000
    428.17,  2743.00000,  1046.00000
    428.65,  2732.60000,  1042.70000
    429.12,  2758.30000,  1055.30000
    429.60,  2746.30000,  1058.10000
    430.08,  2749.90000,  1062.50000
    430.55,  2755.10000,  1066.20000
    431.03,  2751.00000,  1066.70000
    431.50,  2749.70000,  1058.40000
    431.98,  2747.10000,  1057.90000
    432.46,  2757.50000,  1044.80000
    432.93,  2734.30000,  1049.20000
    433.41,  2709.10000,  1061.40000
    433.89,  2703.00000,  1064.70000
    434.36,  2708.50000,  1058.40000
    434.84,  2700.40000,  1053.20000
    435.31,  2730.40000,  1037.90000
    435.79,  2728.60000,  1037.30000
    436.27,  2713.20000,  1049.30000
    436.74,  2712.50000,  1060.50000
    437.22,  2721.80000,  1062.30000
    437.70,  2719.70000,  1062.00000
    438.17,  2720.90000,  1054.50000
    438.65,  2716.50000,  1046.20000
    439.12,  2720.60000,  1041.10000
    439.60,  2717.70000,  1048.00000
    440.08,  2738.50000,  1040.10000
    440.55,  2729.20000,  1031.40000
    441.03,  2746.40000,  1035.70000
    441.50,  2743.60000,  1038.20000
    441.98,  2751.70000,  1045.90000
    442.45,  2731.80000,  1057.20000
    442.93,  2722.10000,  1068.80000
    443.41,  2704.30000,  1067.60000
    443.88,  2719.30000,  1052.80000
    444.36,  2714.60000,  1048.50000
    444.83,  2724.50000,  1045.20000
    445.31,  2725.80000,  1046.10000
    445.78,  2692.80000,  1063.50000
    446.26,  2689.10000,  1063.60000
    446.74,  2679.80000,  1063.20000
    447.21,  2706.70000,  1060.40000
    447.69,  2734.50000,  1058.30000
    448.16,  2759.10000,  1056.70000
    448.64,  2735.60000,  1050.70000
    449.11,  2722.30000,  1036.60000
    449.59,  2716.60000,  1041.10000
    450.06,  2724.40000,  1036.00000
    450.54,  2721.70000,  1046.80000
    451.02,  2747.80000,  1052.90000
    451.49,  2757.10000,  1052.60000
    451.97,  2757.70000,  1046.20000
    452.44,  2750.60000,  1049.10000
    452.92,  2731.90000,  1047.00000
    453.39,  2709.40000,  1046.20000
    453.87,  2715.60000,  1045.30000
    454.34,  2723.80000,  1039.90000
    454.82,  2733.40000,  1038.90000
    455.29,  2742.20000,  1046.50000
    455.77,  2746.70000,  1048.90000
    456.24,  2717.20000,  1044.10000
    456.72,  2696.90000,  1043.30000
    457.19,  2685.10000,  1051.40000
    457.67,  2706.60000,  1048.20000
    458.14,  2740.90000,  1055.00000
    458.62,  2754.80000,  1047.60000
    459.09,  2742.60000,  1040.20000
    459.57,  2720.60000,  1033.00000
    460.04,  2713.20000,  1047.20000
    460.52,  2717.30000,  1048.00000
    460.99,  2713.90000,  1055.60000
    461.47,  2712.30000,  1045.80000
    461.94,  2689.80000,  1039.40000
    462.42,  2687.70000,  1029.20000
    462.89,  2702.70000,  1040.00000
    463.37,  2724.50000,  1044.00000
    463.84,  2730.70000,  1053.80000
    464.32,  2736.30000,  1050.70000
    464.79,  2734.70000,  1048.20000
    465.26,  2736.20000,  1042.50000
    465.74,  2715.10000,  1046.70000
    466.21,  2739.00000,  1040.60000
    466.69,  2745.10000,  1044.10000
    467.16,  2746.30000,  1045.20000
    467.64,  2731.10000,  1050.90000
    468.11,  2711.40000,  1055.70000
    468.59,  2698.10000,  1063.50000
    469.06,  2717.60000,  1064.00000
    469.54,  2746.50000,  1053.60000
    470.01,  2750.40000,  1049.40000
    470.48,  2713.00000,  1030.90000
    470.96,  2728.10000,  1029.40000
    471.43,  2746.20000,  1040.70000
    471.91,  2763.70000,  1054.00000
    472.38,  2796.10000,  1059.00000
    472.86,  2772.10000,  1071.50000
    473.33,  2719.80000,  1061.40000
    473.80,  2707.50000,  1063.70000
    474.28,  2711.60000,  1062.70000
    474.75,  2718.80000,  1063.70000
    475.23,  2763.40000,  1055.80000
    475.70,  2768.90000,  1050.90000
    476.17,  2749.50000,  1050.40000
    476.65,  2738.60000,  1053.40000
    477.12,  2740.60000,  1048.70000
    477.60,  2701.20000,  1049.30000
    478.07,  2716.80000,  1038.80000
    478.54,  2729.80000,  1032.70000
    479.02,  2734.60000,  1037.40000
    479.49,  2759.20000,  1037.40000
    479.97,  2771.20000,  1031.90000
    480.44,  2751.50000,  1039.60000
    480.91,  2731.70000,  1035.40000
    481.39,  2720.60000,  1036.20000
    481.86,  2708.20000,  1047.30000
    482.34,  2688.60000,  1053.10000
    482.81,  2704.90000,  1053.00000
    483.28,  2728.20000,  1059.90000
    483.76,  2722.00000,  1050.90000
    484.23,  2750.10000,  1038.10000
    484.70,  2736.30000,  1039.10000
    485.18,  2718.80000,  1042.10000
    485.65,  2716.90000,  1046.00000
    486.12,  2717.70000,  1045.90000
    486.60,  2698.80000,  1051.10000
    487.07,  2715.50000,  1037.90000
    487.55,  2746.60000,  1032.10000
    488.02,  2769.50000,  1031.20000
    488.49,  2768.70000,  1032.60000
    488.97,  2773.10000,  1037.00000
    489.44,  2755.70000,  1051.50000
    489.91,  2717.40000,  1043.90000
    490.39,  2712.00000,  1050.30000
    490.86,  2675.30000,  1050.60000
    491.33,  2642.10000,  1048.90000
    491.81,  2679.00000,  1056.00000
    492.28,  2721.90000,  1046.80000
    492.75,  2722.50000,  1037.50000
    493.23,  2771.50000,  1039.50000
    493.70,  2793.70000,  1033.10000
    494.17,  2791.50000,  1030.00000
    494.64,  2784.20000,  1037.90000
    495.12,  2743.70000,  1034.50000
    495.59,  2736.30000,  1042.70000
    496.06,  2757.00000,  1052.80000
    496.54,  2778.90000,  1049.00000
    497.01,  2762.80000,  1043.60000
    497.48,  2748.40000,  1033.80000
    497.96,  2726.90000,  1028.10000
    498.43,  2760.50000,  1027.90000
    498.90,  2762.10000,  1040.70000
    499.37,  2784.40000,  1045.10000
    499.85,  2753.10000,  1048.60000
    500.32,  2747.50000,  1042.10000
    500.79,  2728.30000,  1038.80000
    501.27,  2741.00000,  1023.90000
    501.74,  2739.20000,  1025.90000
    502.21,  2738.20000,  1024.40000
    502.68,  2724.20000,  1033.40000
    503.16,  2710.10000,  1037.00000
    503.63,  2698.20000,  1043.10000
    504.10,  2710.30000,  1038.80000
    504.57,  2706.40000,  1038.50000
    505.05,  2722.50000,  1027.40000
    505.52,  2738.80000,  1028.30000
    505.99,  2739.20000,  1021.00000
    506.46,  2737.40000,  1024.50000
    506.94,  2724.90000,  1043.00000
    507.41,  2711.40000,  1042.30000
    507.88,  2717.30000,  1031.80000
    508.35,  2714.10000,  1015.90000
    508.83,  2712.90000,  1001.40000
    509.30,  2743.10000,   997.70000
    509.77,  2743.80000,  1014.70000
    510.24,  2737.50000,  1026.10000
    510.72,  2720.10000,  1027.60000
    511.19,  2700.60000,  1035.70000
    511.66,  2697.70000,  1036.00000
    512.13,  2729.70000,  1030.40000
    512.60,  2720.30000,  1020.90000
    513.08,  2720.10000,  1015.60000
    513.55,  2720.30000,  1003.60000
    514.02,  2709.80000,  1009.50000
    514.49,  2706.20000,  1011.00000
    514.97,  2714.20000,  1016.90000
    515.44,  2716.40000,  1026.50000
    515.91,  2705.50000,  1029.60000
    516.38,  2702.90000,  1030.30000
    516.85,  2675.80000,  1028.50000
    517.33,  2653.60000,  1034.00000
    517.80,  2661.20000,  1030.10000
    518.27,  2690.60000,  1025.60000
    518.74,  2736.30000,  1015.80000
    519.21,  2767.50000,  1011.70000
    519.68,  2745.10000,  1010.80000
    520.16,  2707.10000,  1018.40000
    520.63,  2686.40000,  1016.40000
    521.10,  2680.50000,  1012.50000
    521.57,  2712.70000,  1008.30000
    522.04,  2726.00000,  1011.60000
    522.52,  2721.90000,  1023.60000
    522.99,  2703.30000,  1027.30000
    523.46,  2716.70000,  1029.70000
    523.93,  2721.90000,  1025.80000
    524.40,  2752.60000,  1020.10000
    524.87,  2740.20000,  1031.70000
    525.34,  2733.00000,  1034.50000
    525.82,  2717.80000,  1025.50000
    526.29,  2727.00000,  1024.80000
    526.76,  2721.60000,  1018.10000
    527.23,  2741.20000,  1018.70000
    527.70,  2712.80000,  1030.90000
    528.17,  2708.00000,  1032.90000
    528.64,  2701.00000,  1032.30000
    529.12,  2714.90000,  1025.70000
    529.59,  2720.60000,  1015.50000
    530.06,  2728.60000,  1017.40000
    530.53,  2754.70000,  1027.90000
    531.00,  2720.60000,  1040.10000
    531.47,  2673.70000,  1039.90000
    531.94,  2674.30000,  1028.40000
    532.41,  2684.30000,  1007.30000
    532.89,  2718.20000,   993.50000
    533.36,  2779.00000,  1005.80000
    533.83,  2757.10000,  1019.20000
    534.30,  2727.20000,  1037.40000
    534.77,  2732.20000,  1058.30000
    535.24,  2739.80000,  1061.70000
    535.71,  2739.10000,  1058.80000
    536.18,  2745.00000,  1064.20000
    536.65,  2738.90000,  1059.40000
    537.13,  2711.30000,  1055.40000
    537.60,  2703.30000,  1047.50000
    538.07,  2703.80000,  1054.00000
    538.54,  2689.40000,  1059.40000
    539.01,  2701.60000,  1067.20000
    539.48,  2740.30000,  1073.00000
    539.95,  2753.50000,  1076.40000
    540.42,  2764.60000,  1072.30000
    540.89,  2740.70000,  1082.40000
    541.36,  2716.30000,  1082.60000
    541.83,  2703.10000,  1090.30000
    542.30,  2708.40000,  1095.40000
    542.77,  2720.00000,  1107.30000
    543.25,  2744.10000,  1113.60000
    543.72,  2741.00000,  1116.90000
    544.19,  2745.10000,  1107.70000
    544.66,  2723.50000,  1103.40000
    545.13,  2705.30000,  1103.30000
    545.60,  2689.30000,  1107.40000
    546.07,  2714.70000,  1117.90000
    546.54,  2727.90000,  1117.00000
    547.01,  2740.20000,  1111.10000
    547.48,  2739.50000,  1105.00000
    547.95,  2720.60000,  1116.50000
    548.42,  2705.40000,  1120.30000
    548.89,  2736.80000,  1136.20000
    549.36,  2728.30000,  1139.90000
    549.83,  2713.80000,  1142.70000
    550.30,  2756.90000,  1143.80000
    550.77,  2753.30000,  1155.10000
    551.24,  2762.20000,  1147.00000
    551.71,  2775.00000,  1147.30000
    552.18,  2741.90000,  1140.40000
    552.65,  2690.00000,  1134.70000
    553.12,  2717.90000,  1135.80000
    553.59,  2719.00000,  1142.90000
    554.06,  2723.50000,  1153.00000
    554.53,  2732.20000,  1162.40000
    555.00,  2720.90000,  1170.40000
    555.47,  2717.10000,  1163.00000
    555.94,  2716.70000,  1163.30000
    556.41,  2711.00000,  1159.10000
    556.88,  2693.80000,  1165.10000
    557.35,  2691.20000,  1157.80000
    557.82,  2686.30000,  1151.10000
    558.29,  2705.90000,  1139.80000
    558.76,  2744.80000,  1147.20000
    559.23,  2751.90000,  1167.60000
    559.70,  2753.70000,  1180.20000
    560.17,  2738.70000,  1187.40000
    560.64,  2730.60000,  1186.70000
    561.11,  2722.10000,  1172.50000
    561.58,  2750.10000,  1162.60000
    562.05,  2734.00000,  1165.40000
    562.52,  2748.20000,  1163.20000
    562.99,  2738.00000,  1173.00000
    563.46,  2742.40000,  1180.20000
    563.93,  2726.00000,  1189.20000
    564.40,  2730.40000,  1192.70000
    564.87,  2740.50000,  1182.00000
    565.34,  2770.20000,  1171.00000
    565.81,  2761.10000,  1163.60000
    566.28,  2756.50000,  1158.60000
    566.74,  2725.50000,  1166.90000
    567.21,  2708.00000,  1171.50000
    567.68,  2718.90000,  1170.80000
    568.15,  2714.90000,  1174.10000
    568.62,  2710.20000,  1172.30000
    569.09,  2712.90000,  1174.00000
    569.56,  2712.60000,  1170.10000
    570.03,  2714.30000,  1172.80000
    570.50,  2747.70000,  1178.40000
    570.97,  2748.10000,  1172.80000
    571.44,  2740.50000,  1166.40000
    571.91,  2738.70000,  1174.60000
    572.38,  2721.40000,  1180.40000
    572.84,  2704.70000,  1181.20000
    573.31,  2717.00000,  1182.60000
    573.78,  2717.50000,  1173.80000
    574.25,  2715.60000,  1169.50000
    574.72,  2735.50000,  1175.60000
    575.19,  2727.30000,  1181.50000
    575.66,  2724.50000,  1174.00000
    576.13,  2720.20000,  1172.20000
    576.60,  2725.70000,  1174.20000
    577.07,  2756.90000,  1174.90000
    577.53,  2782.50000,  1177.20000
    578.00,  2775.30000,  1179.40000
    578.47,  2760.60000,  1178.10000
    578.94,  2738.70000,  1166.50000
    579.41,  2704.00000,  1164.40000
    579.88,  2721.30000,  1163.30000
    580.35,  2721.00000,  1160.60000
    580.82,  2724.00000,  1157.30000
    581.28,  2744.80000,  1153.50000
    581.75,  2751.20000,  1146.00000
    582.22,  2739.20000,  1150.20000
    582.69,  2744.00000,  1158.00000
    583.16,  2736.30000,  1161.10000
    583.63,  2719.40000,  1165.00000
    584.10,  2748.20000,  1161.10000
    584.56,  2764.60000,  1158.20000
    585.03,  2758.50000,  1155.20000
    585.50,  2748.50000,  1157.90000
    585.97,  2724.80000,  1151.10000
    586.44,  2707.60000,  1155.50000
    586.91,  2728.30000,  1149.30000
    587.37,  2737.40000,  1149.10000
    587.84,  2722.10000,  1155.70000
    588.31,  2710.10000,  1158.00000
    588.78,  2685.70000,  1160.50000
    589.25,  2713.60000,  1153.70000
    589.72,  2708.70000,  1145.40000
    590.18,  2742.00000,  1137.60000
    590.65,  2764.00000,  1137.70000
    591.12,  2748.50000,  1143.50000
    591.59,  2745.60000,  1157.50000
    592.06,  2731.30000,  1155.50000
    592.52,  2682.50000,  1164.30000
    592.99,  2695.00000,  1167.20000
    593.46,  2692.00000,  1169.30000
    593.93,  2649.50000,  1170.00000
    594.40,  2676.70000,  1164.40000
    594.86,  2700.70000,  1156.60000
    595.33,  2717.10000,  1152.50000
    595.80,  2739.60000,  1143.60000
    596.27,  2746.50000,  1142.10000
    596.74,  2725.00000,  1138.90000
    597.20,  2713.60000,  1138.10000
    597.67,  2722.80000,  1143.30000
    598.14,  2707.50000,  1140.80000
    598.61,  2703.60000,  1136.30000
    599.07,  2710.50000,  1130.00000
    599.54,  2702.80000,  1129.30000
    600.01,  2684.00000,  1130.90000
    600.48,  2734.80000,  1139.30000
    600.95,  2755.40000,  1146.90000
    601.41,  2759.70000,  1160.40000
    601.88,  2747.50000,  1154.60000
    602.35,  2699.70000,  1139.50000
    602.82,  2645.90000,  1128.60000
    603.28,  2666.70000,  1123.40000
    603.75,  2669.50000,  1120.40000
    604.22,  2692.60000,  1131.10000
    604.69,  2709.20000,  1128.80000
    605.15,  2722.00000,  1111.70000
    605.62,  2711.60000,  1108.40000
    606.09,  2711.90000,  1108.40000
    606.56,  2697.70000,  1108.80000
    607.02,  2699.60000,  1107.10000
    607.49,  2688.30000,  1108.50000
    607.96,  2709.20000,  1101.20000
    608.42,  2711.20000,  1095.70000
    608.89,  2763.40000,  1096.30000
    609.36,  2780.50000,  1097.10000
    609.83,  2770.00000,  1088.10000
    610.29,  2732.70000,  1099.30000
    610.76,  2710.10000,  1101.70000
    611.23,  2699.60000,  1099.80000
    611.69,  2726.00000,  1101.10000
    612.16,  2721.60000,  1093.90000
    612.63,  2722.00000,  1090.70000
    613.10,  2704.40000,  1091.70000
    613.56,  2686.50000,  1097.90000
    614.03,  2699.20000,  1089.40000
    614.50,  2701.90000,  1093.10000
    614.96,  2711.30000,  1080.60000
    615.43,  2721.30000,  1073.40000
    615.90,  2731.40000,  1069.30000
    616.36,  2729.70000,  1072.90000
    616.83,  2717.20000,  1060.40000
    617.30,  2711.50000,  1058.90000
    617.76,  2692.50000,  1047.70000
    618.23,  2678.30000,  1047.60000
    618.70,  2673.10000,  1053.20000
    619.16,  2686.30000,  1057.60000
    619.63,  2682.60000,  1051.70000
    620.10,  2685.40000,  1045.60000
    620.56,  2683.10000,  1045.70000
    621.03,  2707.80000,  1047.30000
    621.50,  2720.90000,  1043.00000
    621.96,  2731.80000,  1041.20000
    622.43,  2728.40000,  1041.20000
    622.90,  2727.30000,  1040.10000
    623.36,  2735.60000,  1039.30000
    623.83,  2735.10000,  1036.00000
    624.30,  2733.50000,  1025.10000
    624.76,  2735.90000,  1018.30000
    625.23,  2741.90000,  1016.50000
    625.70,  2749.80000,  1020.50000
    626.16,  2746.90000,  1018.40000
    626.63,  2714.40000,  1024.80000
    627.09,  2703.60000,  1023.00000
    627.56,  2720.30000,  1014.60000
    628.03,  2720.40000,  1004.60000
    628.49,  2735.00000,   997.10000
    628.96,  2714.60000,   999.50000
    629.43,  2711.80000,  1003.30000
    629.89,  2702.50000,  1004.50000
    630.36,  2704.00000,  1010.10000
    630.82,  2689.20000,  1010.90000
    631.29,  2691.20000,   999.70000
    631.76,  2676.90000,  1005.10000
    632.22,  2672.30000,   999.60000
    632.69,  2679.80000,   991.10000
    633.15,  2702.50000,   991.00000
    633.62,  2732.90000,   985.60000
    634.09,  2742.30000,   987.20000
    634.55,  2745.60000,   993.20000
    635.02,  2715.90000,   998.10000
    635.48,  2699.60000,   996.80000
    635.95,  2689.30000,  1000.40000
    636.42,  2695.50000,   989.30000
    636.88,  2679.10000,   992.10000
    637.35,  2679.40000,   979.30000
    637.81,  2694.40000,   976.00000
    638.28,  2704.00000,   976.20000
    638.74,  2720.00000,   987.10000
    639.21,  2732.90000,   987.70000
    639.68,  2714.40000,   984.50000
    640.14,  2688.60000,   969.00000
    640.61,  2691.70000,   969.30000
    641.07,  2668.90000,   968.30000
    641.54,  2689.60000,   968.30000
    642.00,  2709.40000,   967.30000
    642.47,  2730.20000,   951.50000
    642.93,  2728.90000,   945.90000
    643.40,  2721.00000,   949.90000
    643.87,  2706.90000,   953.00000
    644.33,  2708.40000,   964.50000
    644.80,  2711.70000,   970.00000
    645.26,  2693.60000,   972.80000
    645.73,  2680.60000,   986.50000
    646.19,  2677.00000,   975.30000
    646.66,  2694.10000,   952.00000
    647.12,  2685.90000,   949.30000
    647.59,  2695.50000,   940.30000
    648.05,  2695.70000,   951.10000
    648.52,  2688.50000,   967.00000
    648.98,  2685.80000,   970.50000
    649.45,  2680.00000,   957.90000
    649.91,  2664.80000,   949.50000
    650.38,  2671.80000,   929.90000
    650.84,  2717.80000,   920.80000
    651.31,  2710.80000,   922.80000
    651.77,  2703.00000,   941.40000
    652.24,  2678.60000,   949.40000
    652.70,  2665.90000,   950.90000
    653.17,  2657.00000,   949.70000
    653.63,  2683.70000,   945.40000
    654.10,  2672.40000,   945.10000
    654.56,  2686.90000,   943.30000
    655.03,  2688.00000,   940.60000
    655.49,  2700.40000,   935.80000
    655.96,  2702.80000,   932.40000
    656.42,  2690.80000,   933.20000
    656.89,  2679.20000,   933.00000
    657.35,  2734.20000,   927.30000
    657.82,  2777.90000,   933.10000
    658.28,  2812.00000,   922.10000
    658.75,  2821.50000,   922.90000
    659.21,  2762.10000,   927.10000
    659.68,  2725.00000,   934.00000
    660.14,  2715.20000,   933.70000
    660.61,  2685.90000,   926.70000
    661.07,  2722.70000,   918.40000
    661.53,  2738.30000,   926.00000
    662.00,  2749.60000,   926.40000
    662.46,  2742.00000,   926.80000
    662.93,  2736.40000,   907.60000
    663.39,  2710.00000,   892.60000
    663.86,  2745.90000,   884.80000
    664.32,  2742.10000,   884.80000
    664.79,  2762.60000,   885.50000
    665.25,  2740.90000,   888.40000
    665.71,  2720.10000,   886.10000
    666.18,  2684.10000,   894.40000
    666.64,  2708.40000,   895.70000
    667.11,  2704.50000,   891.40000
    667.57,  2721.80000,   894.20000
    668.04,  2740.80000,   880.20000
    668.50,  2731.50000,   877.70000
    668.96,  2711.60000,   880.20000
    669.43,  2732.20000,   876.30000
    669.89,  2710.90000,   876.10000
    670.36,  2686.70000,   882.60000
    670.82,  2686.90000,   875.20000
    671.28,  2690.70000,   882.40000
    671.75,  2694.90000,   879.80000
    672.21,  2716.20000,   878.30000
    672.68,  2719.90000,   873.30000
    673.14,  2735.20000,   865.10000
    673.60,  2756.30000,   862.00000
    674.07,  2739.90000,   860.40000
    674.53,  2715.10000,   857.00000
    675.00,  2697.60000,   863.70000
    675.46,  2678.90000,   853.60000
    675.92,  2680.70000,   856.50000
    676.39,  2717.20000,   852.50000
    676.85,  2723.80000,   840.80000
    677.31,  2729.90000,   844.30000
    677.78,  2738.70000,   839.80000
    678.24,  2719.90000,   838.20000
    678.70,  2694.50000,   847.50000
    679.17,  2675.70000,   852.70000
    679.63,  2650.70000,   850.40000
    680.10,  2646.50000,   853.60000
    680.56,  2681.60000,   838.60000
    681.02,  2684.20000,   832.70000
    681.49,  2714.40000,   822.20000
    681.95,  2714.20000,   820.40000
    682.41,  2705.70000,   824.50000
    682.88,  2701.90000,   829.20000
    683.34,  2699.00000,   828.40000
    683.80,  2676.10000,   826.80000
    684.27,  2693.50000,   823.70000
    684.73,  2696.00000,   827.10000
    685.19,  2710.20000,   832.30000
    685.66,  2734.10000,   835.50000
    686.12,  2730.80000,   831.80000
    686.58,  2748.50000,   819.00000
    687.05,  2748.10000,   813.10000
    687.51,  2736.70000,   799.90000
    687.97,  2726.40000,   795.40000
    688.44,  2730.50000,   800.70000
    688.90,  2726.60000,   804.70000
    689.36,  2725.80000,   806.20000
    689.83,  2721.10000,   816.80000
    690.29,  2724.60000,   816.50000
    690.75,  2736.40000,   808.80000
    691.21,  2748.10000,   809.20000
    691.68,  2739.70000,   803.20000
    692.14,  2707.90000,   796.70000
    692.60,  2713.60000,   798.80000
    693.07,  2696.20000,   800.90000
    693.53,  2716.40000,   789.00000
    693.99,  2737.00000,   785.30000
    694.45,  2739.20000,   784.50000
    694.92,  2748.10000,   788.30000
    695.38,  2756.10000,   794.90000
    695.84,  2741.90000,   797.20000
    696.31,  2722.60000,   800.50000
    696.77,  2737.60000,   803.30000
    697.23,  2728.30000,   802.00000
    697.69,  2728.40000,   790.70000
    698.16,  2711.80000,   791.30000
    698.62,  2695.00000,   791.90000
    699.08,  2667.20000,   793.40000
    699.54,  2671.20000,   799.90000
    700.01,  2661.90000,   796.50000
    700.47,  2656.20000,   783.20000
    700.93,  2670.90000,   771.50000
    701.39,  2686.40000,   766.10000
    701.86,  2706.80000,   758.80000
    702.32,  2695.90000,   769.90000
    702.78,  2695.40000,   772.30000
    703.24,  2685.10000,   779.30000
    703.71,  2689.80000,   780.30000
    704.17,  2702.90000,   781.00000
    704.63,  2702.10000,   776.40000
    705.09,  2692.90000,   771.40000
    705.56,  2724.10000,   767.50000
    706.02,  2723.50000,   776.20000
    706.48,  2701.70000,   782.90000
    706.94,  2699.80000,   779.70000
    707.40,  2675.20000,   773.30000
    707.87,  2677.90000,   761.70000
    708.33,  2690.10000,   767.00000
    708.79,  2676.20000,   767.50000
    709.25,  2651.90000,   765.00000
    709.72,  2668.90000,   752.10000
    710.18,  2683.00000,   749.30000
    710.64,  2688.90000,   749.00000
    711.10,  2680.70000,   759.90000
    711.56,  2689.70000,   763.20000
    712.03,  2710.10000,   764.30000
    712.49,  2735.90000,   753.80000
    712.95,  2755.00000,   748.80000
    713.41,  2736.00000,   749.40000
    713.87,  2720.70000,   758.80000
    714.33,  2720.10000,   754.10000
    714.80,  2717.50000,   746.20000
    715.26,  2677.70000,   733.50000
    715.72,  2676.60000,   727.60000
    716.18,  2666.50000,   732.50000
    716.64,  2678.10000,   740.20000
    717.11,  2684.00000,   740.90000
    717.57,  2683.80000,   741.50000
    718.03,  2657.70000,   743.10000
    718.49,  2666.60000,   743.30000
    718.95,  2714.70000,   738.00000
    719.41,  2725.90000,   739.90000
    719.87,  2701.70000,   735.80000
    720.34,  2692.30000,   740.60000
    720.80,  2682.70000,   740.00000
    721.26,  2671.70000,   735.00000
    721.72,  2709.90000,   722.60000
    722.18,  2694.20000,   722.80000
    722.64,  2671.90000,   712.60000
    723.10,  2676.70000,   717.30000
    723.57,  2681.00000,   719.50000
    724.03,  2689.50000,   730.80000
    724.49,  2691.70000,   732.40000
    724.95,  2659.70000,   728.90000
    725.41,  2717.60000,   721.10000
    725.87,  2758.90000,   719.80000
    726.33,  2772.40000,   723.50000
    726.80,  2780.40000,   733.30000
    727.26,  2741.00000,   734.60000
    727.72,  2667.10000,   733.70000
    728.18,  2680.30000,   732.50000
    728.64,  2673.10000,   725.60000
    729.10,  2681.20000,   721.90000
    729.56,  2697.00000,   723.00000
    730.02,  2723.00000,   715.30000
    730.48,  2717.20000,   725.40000
    730.94,  2711.00000,   723.80000
    731.41,  2699.20000,   717.20000
    731.87,  2677.70000,   715.90000
    732.33,  2655.30000,   711.80000
    732.79,  2692.80000,   704.20000
    733.25,  2692.20000,   714.30000
    733.71,  2709.50000,   705.60000
    734.17,  2722.30000,   702.30000
    734.63,  2693.70000,   705.10000
    735.09,  2669.00000,   704.80000
    735.55,  2667.80000,   708.30000
    736.01,  2651.60000,   717.60000
    736.47,  2666.50000,   711.10000
    736.94,  2676.00000,   707.60000
    737.40,  2685.20000,   710.70000
    737.86,  2686.90000,   708.40000
    738.32,  2696.20000,   707.70000
    738.78,  2707.10000,   710.80000
    739.24,  2705.70000,   694.80000
    739.70,  2699.50000,   693.00000
    740.16,  2723.10000,   692.50000
    740.62,  2724.90000,   699.70000
    741.08,  2742.10000,   713.30000
    741.54,  2729.30000,   719.90000
    742.00,  2709.30000,   709.40000
    742.46,  2678.60000,   709.40000
    742.92,  2656.20000,   703.20000
    743.38,  2654.90000,   701.30000
    743.84,  2666.10000,   698.00000
    744.30,  2681.70000,   698.20000
    744.76,  2698.60000,   690.30000
    745.22,  2694.60000,   693.80000
    745.68,  2668.50000,   698.20000
    746.14,  2656.30000,   701.60000
    746.60,  2662.30000,   707.00000
    747.06,  2671.30000,   719.90000
    747.52,  2663.30000,   702.70000
    747.98,  2682.50000,   702.40000
    748.44,  2682.20000,   705.10000
    748.90,  2672.20000,   708.80000
    749.36,  2682.70000,   709.10000
    749.82,  2697.30000,   708.30000
    750.28,  2709.90000,   692.90000
    750.74,  2738.40000,   695.60000
    751.20,  2734.70000,   703.00000
    751.66,  2708.00000,   703.10000
    752.12,  2685.00000,   699.70000
    752.58,  2682.80000,   707.10000
    753.04,  2702.20000,   703.20000
    753.50,  2730.90000,   703.80000
    753.96,  2714.30000,   710.80000
    754.42,  2682.20000,   705.90000
    754.88,  2655.90000,   707.50000
    755.34,  2643.70000,   712.70000
    755.80,  2677.30000,   701.00000
    756.26,  2693.60000,   701.30000
    756.72,  2697.80000,   698.70000
    757.18,  2701.20000,   696.40000
    757.64,  2689.80000,   700.30000
    758.10,  2658.00000,   700.40000
    758.56,  2643.20000,   699.00000
    759.02,  2649.90000,   695.00000
    759.48,  2661.40000,   687.60000
    759.94,  2681.00000,   688.00000
    760.40,  2684.20000,   686.60000
    760.86,  2674.90000,   697.80000
    761.32,  2671.40000,   710.80000
    761.78,  2703.40000,   710.50000
    762.24,  2688.30000,   710.80000
    762.70,  2691.30000,   705.40000
    763.15,  2679.90000,   697.20000
    763.61,  2686.20000,   698.20000
    764.07,  2696.20000,   700.20000
    764.53,  2701.10000,   702.00000
    764.99,  2702.10000,   695.00000
    765.45,  2721.30000,   693.30000
    765.91,  2707.80000,   697.50000
    766.37,  2692.70000,   701.70000
    766.83,  2666.90000,   703.80000
    767.29,  2662.00000,   702.50000
    767.75,  2664.70000,   697.80000
    768.21,  2683.80000,   698.90000
    768.66,  2697.60000,   695.00000
    769.12,  2704.10000,   702.80000
    769.58,  2685.50000,   705.20000
    770.04,  2671.50000,   707.00000
    770.50,  2643.00000,   712.70000
    770.96,  2626.00000,   713.60000
    771.42,  2656.60000,   700.50000
    771.88,  2674.70000,   703.30000
    772.34,  2685.20000,   697.80000
    772.80,  2671.70000,   712.10000
    773.25,  2654.50000,   717.00000
    773.71,  2652.30000,   713.10000
    774.17,  2646.20000,   704.50000
    774.63,  2660.10000,   705.60000
    775.09,  2676.60000,   691.80000
    775.55,  2661.90000,   703.20000
    776.01,  2640.40000,   703.00000
    776.47,  2644.10000,   706.10000
    776.92,  2619.20000,   710.50000
    777.38,  2642.70000,   715.60000
    777.84,  2650.00000,   712.60000
    778.30,  2644.40000,   707.50000
    778.76,  2643.80000,   694.40000
    779.22,  2666.40000,   693.40000
    779.68,  2674.10000,   686.20000
    780.13,  2683.00000,   687.10000
    780.59,  2660.90000,   708.20000
    781.05,  2637.10000,   713.20000
    781.51,  2641.60000,   707.90000
    781.97,  2661.00000,   701.30000
    782.43,  2673.60000,   695.60000
    782.88,  2687.90000,   694.90000
    783.34,  2676.80000,   713.40000
    783.80,  2675.30000,   712.00000
    784.26,  2691.20000,   712.60000
    784.72,  2677.50000,   710.20000
    785.18,  2665.20000,   708.10000
    785.63,  2650.70000,   706.10000
    786.09,  2668.00000,   703.60000
    786.55,  2704.80000,   697.80000
    787.01,  2731.60000,   691.90000
    787.47,  2706.30000,   690.90000
    787.92,  2677.40000,   693.00000
    788.38,  2642.50000,   702.90000
    788.84,  2635.10000,   698.10000
    789.30,  2647.70000,   697.30000
    789.76,  2665.50000,   679.80000
    790.21,  2661.40000,   686.80000
    790.67,  2648.90000,   695.60000
    791.13,  2644.00000,   710.00000
    791.59,  2624.70000,   704.20000
    792.05,  2625.40000,   703.00000
    792.50,  2646.70000,   696.20000
    792.96,  2668.50000,   696.80000
    793.42,  2654.30000,   693.30000
    793.88,  2663.90000,   697.90000
    794.33,  2641.60000,   692.30000
    794.79,  2643.10000,   690.90000
    795.25,  2653.90000,   682.40000
    795.71,  2672.10000,   677.60000
    796.17,  2674.60000,   681.00000
    796.62,  2675.60000,   690.50000
    797.08,  2632.00000,   707.70000
    797.54,  2627.90000,   710.90000
    798.00,  2618.90000,   705.50000
    798.45,  2629.30000,   705.90000
    798.91,  2640.50000,   698.10000
    799.37,  2655.60000,   688.00000
    799.83,  2646.50000,   684.10000
    800.28,  2641.80000,   678.10000
    800.74,  2639.10000,   675.60000
    801.20,  2660.10000,   674.10000
    801.66,  2641.00000,   678.00000
    802.11,  2649.80000,   686.20000
    802.57,  2661.40000,   688.60000
    803.03,  2633.60000,   695.10000
    803.48,  2612.00000,   707.20000
    803.94,  2660.70000,   704.90000
    804.40,  2677.30000,   704.70000
    804.86,  2700.40000,   706.50000
    805.31,  2704.40000,   690.50000
    805.77,  2661.20000,   682.00000
    806.23,  2609.00000,   675.30000
    806.69,  2631.90000,   674.30000
    807.14,  2632.80000,   681.70000
    807.60,  2652.40000,   684.20000
    808.06,  2660.20000,   682.70000
    808.51,  2661.40000,   680.80000
    808.97,  2633.60000,   667.60000
    809.43,  2636.00000,   666.10000
    809.88,  2632.20000,   662.90000
    810.34,  2628.90000,   658.60000
    810.80,  2649.40000,   655.60000
    811.26,  2669.80000,   652.60000
    811.71,  2647.10000,   651.00000
    812.17,  2660.20000,   664.50000
    812.63,  2651.00000,   674.20000
    813.08,  2616.50000,   694.30000
    813.54,  2620.10000,   692.50000
    814.00,  2630.50000,   687.20000
    814.45,  2629.70000,   678.00000
    814.91,  2655.40000,   672.40000
    815.37,  2648.80000,   668.50000
    815.82,  2636.70000,   670.20000
    816.28,  2627.70000,   669.50000
    816.74,  2630.10000,   668.40000
    817.19,  2607.40000,   661.40000
    817.65,  2621.60000,   656.30000
    818.11,  2647.00000,   652.60000
    818.56,  2655.90000,   652.90000
    819.02,  2640.60000,   670.00000
    819.48,  2636.90000,   673.90000
    819.93,  2595.20000,   666.70000
    820.39,  2617.30000,   659.70000
    820.84,  2654.50000,   653.10000
    821.30,  2672.70000,   656.10000
    821.76,  2673.50000,   664.80000
    822.21,  2680.50000,   661.50000
    822.67,  2658.70000,   654.80000
    823.13,  2627.30000,   651.80000
    823.58,  2655.30000,   653.80000
    824.04,  2674.50000,   661.20000
    824.49,  2669.70000,   666.60000
    824.95,  2680.90000,   666.80000
    825.41,  2686.70000,   656.00000
    825.86,  2660.70000,   646.90000
    826.32,  2695.80000,   638.80000
    826.78,  2672.80000,   643.10000
    827.23,  2640.00000,   650.70000
    827.69,  2618.10000,   658.60000
    828.14,  2623.70000,   656.10000
    828.60,  2645.00000,   652.80000
    829.06,  2678.80000,   644.60000
    829.51,  2664.20000,   643.30000
    829.97,  2669.90000,   634.40000
    830.42,  2655.60000,   633.20000
    830.88,  2637.10000,   641.30000
    831.34,  2639.50000,   643.50000
    831.79,  2666.10000,   645.40000
    832.25,  2666.10000,   646.80000
    832.70,  2656.90000,   642.50000
    833.16,  2656.70000,   643.10000
    833.61,  2647.70000,   638.90000
    834.07,  2650.40000,   633.80000
    834.53,  2655.70000,   633.70000
    834.98,  2646.40000,   633.10000
    835.44,  2619.60000,   634.80000
    835.89,  2631.10000,   633.20000
    836.35,  2647.00000,   624.20000
    836.80,  2667.40000,   626.50000
    837.26,  2651.30000,   630.80000
    837.71,  2624.90000,   641.40000
    838.17,  2618.80000,   640.90000
    838.63,  2616.60000,   634.90000
    839.08,  2620.30000,   623.90000
    839.54,  2636.70000,   616.70000
    839.99,  2629.10000,   619.60000
    840.45,  2636.40000,   631.10000
    840.90,  2659.00000,   633.60000
    841.36,  2670.70000,   632.40000
    841.81,  2662.70000,   632.40000
    842.27,  2653.90000,   624.60000
    842.72,  2633.30000,   620.10000
    843.18,  2629.60000,   620.90000
    843.63,  2610.30000,   619.20000
    844.09,  2612.60000,   617.50000
    844.55,  2604.10000,   619.10000
    845.00,  2605.10000,   622.80000
    845.46,  2622.70000,   620.10000
    845.91,  2633.20000,   619.90000
    846.37,  2646.90000,   617.30000
    846.82,  2669.20000,   622.00000
    847.28,  2671.50000,   624.30000
    847.73,  2618.60000,   634.90000
    848.19,  2650.30000,   626.80000
    848.64,  2656.90000,   626.50000
    849.10,  2678.20000,   618.60000
    849.55,  2680.20000,   630.30000
    850.01,  2664.20000,   632.00000
    850.46,  2603.00000,   634.90000
    850.92,  2630.20000,   627.80000
    851.37,  2637.30000,   627.90000
    851.83,  2646.70000,   624.00000
    852.28,  2655.80000,   625.40000
    852.73,  2638.90000,   623.50000
    853.19,  2611.40000,   624.00000
    853.64,  2617.10000,   623.30000
    854.10,  2618.60000,   623.20000
    854.55,  2623.70000,   628.80000
    855.01,  2635.60000,   621.70000
    855.46,  2611.20000,   620.80000
    855.92,  2600.20000,   620.20000
    856.37,  2599.80000,   621.90000
    856.83,  2591.40000,   626.80000
    857.28,  2606.90000,   634.00000
    857.74,  2617.40000,   624.10000
    858.19,  2626.40000,   614.00000
    858.64,  2651.20000,   603.70000
    859.10,  2642.40000,   603.10000
    859.55,  2606.90000,   616.20000
    860.01,  2650.90000,   623.90000
    860.46,  2676.20000,   620.60000
    860.92,  2675.70000,   616.50000
    861.37,  2679.30000,   602.80000
    861.83,  2677.20000,   598.70000
    862.28,  2642.30000,   605.70000
    862.73,  2658.20000,   611.30000
    863.19,  2647.30000,   610.80000
    863.64,  2622.50000,   617.60000
    864.10,  2614.10000,   613.70000
    864.55,  2638.40000,   615.10000
    865.01,  2633.90000,   618.80000
    865.46,  2649.40000,   616.50000
    865.91,  2636.10000,   609.80000
    866.37,  2631.30000,   609.30000
    866.82,  2622.50000,   607.60000
    867.28,  2623.50000,   599.90000
    867.73,  2612.30000,   597.50000
    868.18,  2641.40000,   589.40000
    868.64,  2646.00000,   594.20000
    869.09,  2667.20000,   604.90000
    869.55,  2674.10000,   615.40000
    870.00,  2666.80000,   606.00000
    870.45,  2651.80000,   606.20000
    870.91,  2621.30000,   603.10000
    871.36,  2595.70000,   611.60000
    871.81,  2613.10000,   611.20000
    872.27,  2640.30000,   605.30000
    872.72,  2650.50000,   596.90000
    873.18,  2651.80000,   597.40000
    873.63,  2621.60000,   601.00000
    874.08,  2608.10000,   613.70000
    874.54,  2628.70000,   611.80000
    874.99,  2629.50000,   608.80000
    875.44,  2611.40000,   613.50000
    875.90,  2594.20000,   611.20000
    876.35,  2594.50000,   602.30000
    876.81,  2623.70000,   605.00000
    877.26,  2657.40000,   608.60000
    877.71,  2641.20000,   613.70000
    878.17,  2611.00000,   632.50000
    878.62,  2621.80000,   642.90000
    879.07,  2644.10000,   635.70000
    879.53,  2664.30000,   634.80000
    879.98,  2658.40000,   625.10000
    880.43,  2645.60000,   612.70000
    880.89,  2634.40000,   613.40000
    881.34,  2645.10000,   612.40000
    881.79,  2657.10000,   614.50000
    882.25,  2644.80000,   620.90000
    882.70,  2615.00000,   621.30000
    883.15,  2606.50000,   617.60000
    883.61,  2622.60000,   613.60000
    884.06,  2610.50000,   613.70000
    884.51,  2629.00000,   613.80000
    884.97,  2613.90000,   612.30000
    885.42,  2620.10000,   617.20000
    885.87,  2623.70000,   609.60000
    886.32,  2639.60000,   609.40000
    886.78,  2606.40000,   622.90000
    887.23,  2617.80000,   624.40000
    887.68,  2608.40000,   626.30000
    888.14,  2617.90000,   628.30000
    888.59,  2609.00000,   621.10000
    889.04,  2596.70000,   616.30000
    889.50,  2561.40000,   619.70000
    889.95,  2581.80000,   619.10000
    890.40,  2610.90000,   618.60000
    890.85,  2629.40000,   624.50000
    891.31,  2617.40000,   628.50000
    891.76,  2615.30000,   627.50000
    892.21,  2595.20000,   629.80000
    892.67,  2605.70000,   627.20000
    893.12,  2609.80000,   623.60000
    893.57,  2621.70000,   621.30000
    894.02,  2627.10000,   622.80000
    894.48,  2645.10000,   626.70000
    894.93,  2648.50000,   630.10000
    895.38,  2646.50000,   623.60000
    895.83,  2618.60000,   628.70000
    896.29,  2617.90000,   626.00000
    896.74,  2611.90000,   635.50000
    897.19,  2627.40000,   640.90000
    897.64,  2642.30000,   644.30000
    898.10,  2643.10000,   642.30000
    898.55,  2614.70000,   653.70000
    899.00,  2612.10000,   649.80000
    899.45,  2573.60000,   659.00000
    899.91,  2568.40000,   656.20000
    900.36,  2561.80000,   647.40000
    900.81,  2597.70000,   642.40000
    901.26,  2612.80000,   640.50000
    901.72,  2640.10000,   633.90000
    902.17,  2621.20000,   646.50000
    902.62,  2623.30000,   658.00000
    903.07,  2593.10000,   650.50000
    903.52,  2606.90000,   649.90000
    903.98,  2606.20000,   652.80000
    904.43,  2615.80000,   651.70000
    904.88,  2602.80000,   651.30000
    905.33,  2609.50000,   649.40000
    905.79,  2593.80000,   635.80000
    906.24,  2603.30000,   633.60000
    906.69,  2617.10000,   637.00000
    907.14,  2619.50000,   643.30000
    907.59,  2599.30000,   645.60000
    908.05,  2586.50000,   648.80000
    908.50,  2567.20000,   657.30000
    908.95,  2578.50000,   661.20000
    909.40,  2593.40000,   657.00000
    909.85,  2589.70000,   666.60000
    910.31,  2591.50000,   666.30000
    910.76,  2573.80000,   667.60000
    911.21,  2552.80000,   678.50000
    911.66,  2553.30000,   681.50000
    912.11,  2546.90000,   686.00000
    912.56,  2574.30000,   701.00000
    913.02,  2599.90000,   697.30000
    913.47,  2596.20000,   699.90000
    913.92,  2595.70000,   694.60000
    914.37,  2588.50000,   687.50000
    914.82,  2582.70000,   696.80000
    915.27,  2600.20000,   705.70000
    915.73,  2624.40000,   705.10000
    916.18,  2614.00000,   718.70000
    916.63,  2607.00000,   710.70000
    917.08,  2567.30000,   719.10000
    917.53,  2599.40000,   737.00000
    917.98,  2480.70000,   750.30000
    918.44,  2825.20000,   768.10000
    918.89,  3007.80000,   782.00000
    919.34,  3064.80000,   785.10000
    919.79,  2971.50000,   795.60000
    920.24,  2812.60000,   817.40000
    920.69,  2486.10000,   843.60000
    921.14,  2612.60000,   879.20000
    921.59,  2600.00000,   902.70000
    922.05,  2597.50000,   922.60000
    922.50,  2598.30000,   948.60000
    922.95,  2616.10000,   989.90000
    923.40,  2635.40000,  1033.10000
    923.85,  2645.10000,  1094.90000
    924.30,  2651.20000,  1169.90000
    924.75,  2641.60000,  1256.10000
    925.20,  2618.20000,  1388.70000
    925.66,  2595.00000,  1537.30000
    926.11,  2595.90000,  1713.60000
    926.56,  2598.70000,  1933.70000
    927.01,  2616.80000,  2179.50000
    927.46,  2615.40000,  2424.30000
    927.91,  2586.40000,  2681.80000
    928.36,  2556.90000,  2911.70000
    928.81,  2557.70000,  3156.60000
    929.26,  2572.00000,  3413.90000
    929.71,  2602.30000,  3701.80000
    930.16,  2629.70000,  3978.10000
    930.62,  2614.80000,  4246.20000
    931.07,  2603.40000,  4500.90000
    931.52,  2594.90000,  4755.30000
    931.97,  2606.60000,  4985.10000
    932.42,  2616.00000,  5192.90000
    932.87,  2631.10000,  5344.40000
    933.32,  2613.90000,  5499.50000
    933.77,  2631.10000,  5710.40000
    934.22,  2624.40000,  5975.50000
    934.67,  2629.30000,  6287.10000
    935.12,  2613.80000,  6573.90000
    935.57,  2589.00000,  6754.70000
    936.02,  2551.90000,  6829.30000
    936.47,  2571.90000,  6827.80000
    936.93,  2557.00000,  6767.00000
    937.38,  2567.20000,  6697.40000
    937.83,  2591.30000,  6692.60000
    938.28,  2590.10000,  6727.90000
    938.73,  2584.60000,  6766.00000
    939.18,  2598.10000,  6827.80000
    939.63,  2591.60000,  6877.60000
    940.08,  2604.70000,  6922.60000
    940.53,  2630.60000,  7013.90000
    940.98,  2624.90000,  7152.00000
    941.43,  2606.50000,  7307.10000
    941.88,  2597.80000,  7438.50000
    942.33,  2596.70000,  7525.30000
    942.78,  2599.70000,  7607.20000
    943.23,  2615.30000,  7719.50000
    943.68,  2616.20000,  7818.10000
    944.13,  2627.80000,  7935.60000
    944.58,  2635.60000,  8029.10000
    945.03,  2624.30000,  8044.10000
    945.48,  2597.30000,  8024.60000
    945.93,  2590.00000,  8076.30000
    946.38,  2592.70000,  8174.50000
    946.83,  2623.20000,  8314.70000
    947.28,  2638.20000,  8464.70000
    947.73,  2635.30000,  8545.20000
    948.18,  2611.40000,  8517.70000
    948.63,  2591.00000,  8449.20000
    949.08,  2584.60000,  8395.00000
    949.53,  2574.50000,  8389.20000
    949.98,  2566.20000,  8372.90000
    950.43,  2580.40000,  8358.00000
    950.88,  2592.90000,  8302.90000
    951.33,  2595.20000,  8187.90000
    951.78,  2620.70000,  8036.60000
    952.23,  2623.40000,  7969.60000
    952.68,  2604.50000,  7908.80000
    953.13,  2605.70000,  7833.30000
    953.58,  2613.20000,  7689.80000
    954.03,  2602.00000,  7508.40000
    954.48,  2596.90000,  7325.00000
    954.93,  2591.20000,  7239.50000
    955.38,  2582.10000,  7214.30000
    955.83,  2583.70000,  7170.30000
    956.28,  2583.80000,  7076.50000
    956.73,  2588.20000,  6977.30000
    957.18,  2593.10000,  6898.50000
    957.62,  2584.40000,  6884.60000
    958.07,  2598.80000,  6841.80000
    958.52,  2588.30000,  6697.20000
    958.97,  2574.70000,  6490.20000
    959.42,  2571.40000,  6250.40000
    959.87,  2570.30000,  6029.60000
    960.32,  2579.30000,  5820.10000
    960.77,  2608.60000,  5612.00000
    961.22,  2650.90000,  5405.00000
    961.67,  2665.20000,  5239.90000
    962.12,  2635.00000,  5141.70000
    962.57,  2607.00000,  5028.70000
    963.02,  2609.10000,  4887.50000
    963.47,  2592.00000,  4737.10000
    963.92,  2612.40000,  4592.90000
    964.36,  2612.60000,  4489.50000
    964.81,  2601.60000,  4423.10000
    965.26,  2614.00000,  4341.30000
    965.71,  2623.60000,  4294.10000
    966.16,  2610.50000,  4246.80000
    966.61,  2590.50000,  4178.20000
    967.06,  2577.90000,  4088.90000
    967.51,  2594.10000,  3975.00000
    967.96,  2609.70000,  3859.50000
    968.41,  2618.90000,  3743.90000
    968.85,  2620.10000,  3624.10000
    969.30,  2605.30000,  3496.90000
    969.75,  2613.60000,  3339.30000
    970.20,  2614.50000,  3167.40000
    970.65,  2623.80000,  3005.70000
    971.10,  2607.50000,  2875.20000
    971.55,  2609.90000,  2765.80000
    972.00,  2589.80000,  2698.10000
    972.44,  2573.70000,  2609.10000
    972.89,  2598.30000,  2507.00000
    973.34,  2622.80000,  2404.60000
    973.79,  2625.30000,  2333.70000
    974.24,  2640.30000,  2261.90000
    974.69,  2613.40000,  2206.20000
    975.14,  2572.00000,  2151.20000
    975.59,  2576.50000,  2100.40000
    976.03,  2562.70000,  2078.00000
    976.48,  2560.40000,  2084.70000
    976.93,  2567.60000,  2083.10000
    977.38,  2569.10000,  2073.40000
    977.83,  2556.80000,  2075.20000
    978.28,  2568.60000,  2058.10000
    978.72,  2583.10000,  2063.80000
    979.17,  2598.20000,  2069.50000
    979.62,  2612.10000,  2066.50000
    980.07,  2616.50000,  2043.60000
    980.52,  2603.10000,  2027.50000
    980.97,  2582.60000,  2006.60000
    981.41,  2541.20000,  1989.80000
    981.86,  2520.30000,  1972.20000
    982.31,  2529.80000,  1957.10000
    982.76,  2550.70000,  1922.10000
    983.21,  2591.90000,  1875.50000
    983.66,  2604.60000,  1828.60000
    984.10,  2574.80000,  1779.90000
    984.55,  2558.10000,  1731.80000
    985.00,  2540.90000,  1682.60000
    985.45,  2525.70000,  1629.40000
    985.90,  2542.20000,  1571.40000
    986.34,  2560.00000,  1518.60000
    986.79,  2549.20000,  1478.90000
    987.24,  2550.00000,  1437.10000
    987.69,  2526.20000,  1389.00000
    988.14,  2525.40000,  1333.00000
    988.58,  2540.70000,  1284.60000
    989.03,  2561.10000,  1241.10000
    989.48,  2572.60000,  1205.90000
    989.93,  2576.40000,  1171.20000
    990.38,  2556.50000,  1144.10000
    990.82,  2557.20000,  1123.00000
    991.27,  2567.00000,  1105.70000
    991.72,  2593.90000,  1084.20000
    992.17,  2579.70000,  1065.90000
    992.61,  2586.60000,  1043.10000
    993.06,  2560.80000,  1029.60000
    993.51,  2579.90000,  1015.50000
    993.96,  2581.20000,  1005.70000
    994.41,  2575.80000,   988.50000
    994.85,  2549.60000,   971.80000
    995.30,  2564.70000,   953.00000
    995.75,  2556.70000,   936.70000
    996.20,  2603.60000,   909.60000
    996.64,  2587.90000,   900.80000
    997.09,  2553.20000,   889.80000
    997.54,  2542.70000,   870.90000
    997.99,  2532.30000,   858.20000
    998.43,  2527.60000,   846.50000
    998.88,  2533.10000,   838.40000
    999.33,  2532.30000,   845.20000
    999.77,  2555.10000,   853.00000
   1000.22,  2578.60000,   842.30000
   1000.67,  2596.00000,   830.10000
   1001.12,  2605.30000,   809.30000
   1001.56,  2569.80000,   800.10000
   1002.01,  2550.80000,   794.60000
   1002.46,  2557.50000,   800.50000
   1002.91,  2542.60000,   796.40000
   1003.35,  2559.70000,   795.10000
   1003.80,  2555.30000,   793.70000
   1004.25,  2555.20000,   795.60000
   1004.69,  2558.70000,   796.80000
   1005.14,  2546.50000,   794.50000
   1005.59,  2551.60000,   788.10000
   1006.04,  2585.60000,   782.40000
   1006.48,  2597.10000,   786.30000
   1006.93,  2629.10000,   782.20000
   1007.38,  2617.30000,   792.10000
   1007.82,  2573.90000,   786.20000
   1008.27,  2543.10000,   790.00000
   1008.72,  2530.60000,   793.10000
   1009.16,  2525.00000,   795.50000
   1009.61,  2539.50000,   789.00000
   1010.06,  2539.90000,   787.50000
   1010.50,  2569.30000,   782.20000
   1010.95,  2594.40000,   783.10000
   1011.40,  2606.40000,   785.10000
   1011.85,  2585.10000,   791.50000
   1012.29,  2572.50000,   795.10000
   1012.74,  2538.10000,   786.30000
   1013.19,  2528.00000,   785.80000
   1013.63,  2569.10000,   783.80000
   1014.08,  2597.00000,   780.70000
   1014.53,  2597.40000,   790.20000
   1014.97,  2588.00000,   792.70000
   1015.42,  2564.60000,   786.10000
   1015.86,  2528.90000,   781.10000
   1016.31,  2547.20000,   782.40000
   1016.76,  2570.90000,   781.10000
   1017.20,  2563.40000,   787.50000
   1017.65,  2539.50000,   785.10000
   1018.10,  2538.30000,   780.90000
   1018.54,  2525.10000,   779.00000
   1018.99,  2548.30000,   784.30000
   1019.44,  2557.10000,   788.20000
   1019.88,  2551.20000,   790.10000
   1020.33,  2538.70000,   791.10000
   1020.78,  2542.20000,   784.30000
   1021.22,  2552.70000,   781.70000
   1021.67,  2556.60000,   780.20000
   1022.11,  2548.30000,   781.00000
   1022.56,  2553.60000,   772.60000
   1023.01,  2545.60000,   771.60000
   1023.45,  2532.00000,   769.50000
   1023.90,  2536.80000,   773.80000
   1024.34,  2518.40000,   786.80000
   1024.79,  2524.70000,   796.40000
   1025.24,  2547.50000,   797.90000
   1025.68,  2545.00000,   792.10000
   1026.13,  2541.20000,   785.90000
   1026.58,  2539.80000,   786.30000
   1027.02,  2557.50000,   785.00000
   1027.47,  2565.60000,   781.60000
   1027.91,  2560.40000,   794.50000
   1028.36,  2538.40000,   791.60000
   1028.80,  2525.30000,   790.00000
   1029.25,  2499.10000,   792.40000
   1029.70,  2515.80000,   786.80000
   1030.14,  2511.50000,   787.20000
   1030.59,  2502.00000,   799.20000
   1031.03,  2511.80000,   797.70000
   1031.48,  2523.40000,   806.30000
   1031.93,  2551.30000,   808.00000
   1032.37,  2582.50000,   807.90000
   1032.82,  2583.90000,   806.80000
   1033.26,  2586.80000,   805.50000
   1033.71,  2566.10000,   801.30000
   1034.15,  2551.90000,   805.80000
   1034.60,  2548.60000,   816.30000
   1035.05,  2557.50000,   820.10000
   1035.49,  2545.60000,   817.80000
   1035.94,  2548.20000,   817.40000
   1036.38,  2515.60000,   810.50000
   1036.83,  2496.40000,   806.30000
   1037.27,  2481.70000,   807.80000
   1037.72,  2487.00000,   802.90000
   1038.16,  2590.00000,   807.70000
   1038.61,  2668.70000,   814.20000
   1039.05,  2678.90000,   814.00000
   1039.50,  2656.10000,   824.90000
   1039.95,  2593.20000,   823.30000
   1040.39,  2522.30000,   820.90000
   1040.84,  2528.50000,   833.30000
   1041.28,  2531.60000,   835.70000
   1041.73,  2531.90000,   827.70000
   1042.17,  2538.30000,   824.50000
   1042.62,  2546.60000,   809.60000
   1043.06,  2560.00000,   803.70000
   1043.51,  2530.70000,   816.40000
   1043.95,  2558.70000,   805.10000
   1044.40,  2575.10000,   791.00000
   1044.84,  2568.50000,   788.30000
   1045.29,  2562.40000,   789.00000
   1045.73,  2550.00000,   812.00000
   1046.18,  2508.90000,   842.00000
   1046.62,  2511.00000,   841.90000
   1047.07,  2506.10000,   843.70000
   1047.51,  2486.20000,   845.00000
   1047.96,  2512.50000,   840.90000
   1048.40,  2557.40000,   843.30000
   1048.85,  2570.20000,   850.30000
   1049.29,  2565.90000,   854.00000
   1049.74,  2529.60000,   850.40000
   1050.18,  2495.90000,   848.30000
   1050.63,  2494.50000,   848.10000
   1051.07,  2504.50000,   853.10000
   1051.52,  2517.30000,   854.80000
   1051.96,  2507.80000,   863.30000
   1052.41,  2492.90000,   853.10000
   1052.85,  2497.90000,   852.50000
   1053.30,  2488.40000,   855.70000
   1053.74,  2484.90000,   862.30000
   1054.18,  2490.20000,   865.70000
   1054.63,  2473.90000,   871.60000
   1055.07,  2468.90000,   871.80000
   1055.52,  2472.00000,   867.40000
   1055.96,  2469.20000,   865.40000
   1056.41,  2463.00000,   867.70000
   1056.85,  2457.60000,   874.80000
   1057.30,  2457.20000,   878.30000
   1057.74,  2453.00000,   884.60000
   1058.18,  2450.30000,   884.80000
   1058.63,  2426.00000,   882.60000
   1059.07,  2423.90000,   878.50000
   1059.52,  2441.50000,   873.30000
   1059.96,  2453.30000,   874.40000
   1060.41,  2452.20000,   883.90000
   1060.85,  2455.60000,   899.00000
   1061.30,  2432.70000,   911.90000
   1061.74,  2420.40000,   923.30000
   1062.18,  2414.30000,   926.60000
   1062.63,  2400.70000,   917.10000
   1063.07,  2404.00000,   907.40000
   1063.52,  2415.10000,   902.90000
   1063.96,  2437.90000,   900.90000
   1064.40,  2436.40000,   912.60000
   1064.85,  2428.40000,   911.30000
   1065.29,  2406.00000,   905.80000
   1065.74,  2392.40000,   901.90000
   1066.18,  2365.40000,   901.20000
