2D Measure spectrum data V5.74

<< MEASURE 1 >>
Data count = 2048
Exposure time = 30000 msec
Average = 10
Inspected time = 2020/10/19 17:39

Wave-dcm-1,Dark spec.  ,Spectrum
    108.17,  2244.00000,  2755.80000
    108.66,  2251.30000,  2727.40000
    109.15,  2257.80000,  2700.20000
    109.65,  2284.20000,  2654.80000
    110.14,  2289.40000,  2651.40000
    110.63,  2297.40000,  2626.70000
    111.13,  2316.60000,  2606.30000
    111.62,  2304.20000,  2599.40000
    112.11,  2314.20000,  2597.50000
    112.60,  2333.70000,  2599.30000
    113.10,  2324.10000,  2601.90000
    113.59,  2345.80000,  2593.40000
    114.08,  2366.30000,  2580.60000
    114.58,  2357.80000,  2580.90000
    115.07,  2396.90000,  2585.00000
    115.56,  2406.20000,  2583.30000
    116.06,  2405.00000,  2552.30000
    116.55,  2407.90000,  2530.20000
    117.04,  2400.50000,  2504.10000
    117.53,  2382.60000,  2496.00000
    118.03,  2409.20000,  2520.50000
    118.52,  2419.40000,  2542.30000
    119.01,  2414.30000,  2554.80000
    119.51,  2498.60000,  2584.20000
    120.00,  2582.30000,  2623.50000
    120.49,  2614.10000,  2669.90000
    120.98,  2614.90000,  2730.50000
    121.48,  2540.40000,  2777.70000
    121.97,  2427.10000,  2843.10000
    122.46,  2415.50000,  2899.40000
    122.95,  2441.90000,  2974.80000
    123.45,  2477.50000,  3063.10000
    123.94,  2495.00000,  3139.90000
    124.43,  2520.40000,  3206.50000
    124.92,  2545.20000,  3266.60000
    125.42,  2540.60000,  3303.40000
    125.91,  2556.70000,  3357.00000
    126.40,  2546.10000,  3404.10000
    126.89,  2517.00000,  3453.10000
    127.39,  2508.50000,  3496.40000
    127.88,  2508.00000,  3551.70000
    128.37,  2511.80000,  3600.80000
    128.86,  2538.80000,  3664.60000
    129.35,  2538.70000,  3724.90000
    129.85,  2545.50000,  3784.60000
    130.34,  2531.50000,  3848.50000
    130.83,  2528.80000,  3914.90000
    131.32,  2533.50000,  3945.50000
    131.81,  2537.00000,  3966.20000
    132.31,  2534.00000,  3984.80000
    132.80,  2539.90000,  3994.00000
    133.29,  2518.40000,  4028.60000
    133.78,  2528.80000,  4052.50000
    134.27,  2547.30000,  4077.10000
    134.77,  2564.00000,  4105.10000
    135.26,  2584.40000,  4142.60000
    135.75,  2582.80000,  4178.30000
    136.24,  2597.50000,  4215.40000
    136.73,  2577.40000,  4232.90000
    137.23,  2586.40000,  4256.40000
    137.72,  2579.50000,  4280.30000
    138.21,  2579.80000,  4299.40000
    138.70,  2570.50000,  4314.80000
    139.19,  2609.20000,  4335.50000
    139.68,  2592.90000,  4346.70000
    140.18,  2597.70000,  4377.50000
    140.67,  2608.50000,  4417.60000
    141.16,  2612.30000,  4444.10000
    141.65,  2604.70000,  4483.80000
    142.14,  2600.10000,  4536.90000
    142.63,  2616.50000,  4563.10000
    143.13,  2617.20000,  4592.00000
    143.62,  2658.00000,  4590.10000
    144.11,  2656.10000,  4584.50000
    144.60,  2625.70000,  4593.60000
    145.09,  2608.20000,  4618.80000
    145.58,  2661.40000,  4667.20000
    146.07,  2672.40000,  4747.60000
    146.56,  2679.50000,  4814.50000
    147.06,  2666.80000,  4894.10000
    147.55,  2636.40000,  4943.70000
    148.04,  2596.70000,  4964.70000
    148.53,  2636.40000,  4981.80000
    149.02,  2614.20000,  4994.70000
    149.51,  2681.60000,  5016.80000
    150.00,  2744.40000,  5046.90000
    150.49,  2767.60000,  5078.60000
    150.99,  2763.00000,  5121.20000
    151.48,  2742.30000,  5141.10000
    151.97,  2657.60000,  5158.90000
    152.46,  2658.50000,  5169.30000
    152.95,  2634.70000,  5164.60000
    153.44,  2638.70000,  5150.40000
    153.93,  2657.00000,  5135.40000
    154.42,  2679.60000,  5107.10000
    154.91,  2663.30000,  5087.00000
    155.40,  2653.10000,  5057.70000
    155.89,  2627.60000,  5040.70000
    156.39,  2652.00000,  5018.80000
    156.88,  2623.80000,  5020.10000
    157.37,  2633.80000,  5042.20000
    157.86,  2637.00000,  5062.30000
    158.35,  2648.30000,  5061.10000
    158.84,  2663.80000,  5056.40000
    159.33,  2715.20000,  5035.30000
    159.82,  2720.00000,  5035.60000
    160.31,  2736.10000,  5031.50000
    160.80,  2772.70000,  5024.70000
    161.29,  2724.60000,  4970.00000
    161.78,  2689.80000,  4887.30000
    162.27,  2655.20000,  4813.10000
    162.76,  2644.70000,  4773.20000
    163.25,  2651.50000,  4761.40000
    163.74,  2695.30000,  4769.40000
    164.23,  2701.80000,  4758.90000
    164.72,  2731.40000,  4737.00000
    165.21,  2705.10000,  4699.60000
    165.70,  2680.50000,  4667.20000
    166.20,  2703.40000,  4635.60000
    166.69,  2724.30000,  4602.50000
    167.18,  2744.60000,  4562.60000
    167.67,  2748.60000,  4529.60000
    168.16,  2728.10000,  4493.80000
    168.65,  2677.10000,  4472.10000
    169.14,  2707.20000,  4427.40000
    169.63,  2704.30000,  4377.80000
    170.12,  2706.40000,  4307.30000
    170.61,  2691.10000,  4249.60000
    171.10,  2739.80000,  4220.00000
    171.59,  2730.10000,  4197.50000
    172.08,  2742.40000,  4162.90000
    172.57,  2739.40000,  4132.00000
    173.06,  2742.70000,  4094.20000
    173.55,  2730.10000,  4072.00000
    174.04,  2715.40000,  4066.00000
    174.53,  2705.40000,  4063.70000
    175.02,  2699.90000,  4055.80000
    175.50,  2733.70000,  4055.20000
    175.99,  2765.30000,  4034.80000
    176.48,  2794.50000,  4014.40000
    176.97,  2762.00000,  4002.10000
    177.46,  2750.80000,  3989.00000
    177.95,  2720.60000,  3955.10000
    178.44,  2706.60000,  3930.00000
    178.93,  2692.00000,  3901.40000
    179.42,  2720.70000,  3896.50000
    179.91,  2737.10000,  3913.00000
    180.40,  2747.10000,  3934.50000
    180.89,  2756.30000,  3969.40000
    181.38,  2735.70000,  3995.90000
    181.87,  2723.10000,  4007.80000
    182.36,  2718.60000,  4020.50000
    182.85,  2696.90000,  4011.30000
    183.34,  2716.30000,  4003.60000
    183.83,  2726.20000,  4007.20000
    184.32,  2725.50000,  3991.90000
    184.81,  2767.50000,  3972.40000
    185.29,  2764.60000,  3951.90000
    185.78,  2740.80000,  3915.90000
    186.27,  2752.30000,  3891.60000
    186.76,  2742.10000,  3886.40000
    187.25,  2717.70000,  3885.80000
    187.74,  2790.30000,  3904.40000
    188.23,  2815.90000,  3936.90000
    188.72,  2838.60000,  3966.40000
    189.21,  2825.90000,  3996.60000
    189.70,  2788.90000,  4037.40000
    190.19,  2739.90000,  4091.30000
    190.67,  2730.10000,  4123.90000
    191.16,  2730.40000,  4149.90000
    191.65,  2742.90000,  4163.90000
    192.14,  2728.40000,  4166.00000
    192.63,  2752.40000,  4163.00000
    193.12,  2758.70000,  4185.70000
    193.61,  2743.60000,  4163.30000
    194.10,  2763.30000,  4125.30000
    194.59,  2758.20000,  4085.60000
    195.07,  2749.40000,  4053.60000
    195.56,  2765.10000,  4028.70000
    196.05,  2745.10000,  4014.30000
    196.54,  2728.30000,  3983.50000
    197.03,  2746.50000,  3939.80000
    197.52,  2782.50000,  3895.60000
    198.01,  2792.60000,  3850.20000
    198.49,  2798.80000,  3802.00000
    198.98,  2795.50000,  3764.10000
    199.47,  2757.30000,  3747.10000
    199.96,  2748.20000,  3729.00000
    200.45,  2756.60000,  3713.30000
    200.94,  2735.10000,  3681.60000
    201.43,  2739.20000,  3639.40000
    201.91,  2736.60000,  3601.10000
    202.40,  2731.70000,  3584.10000
    202.89,  2743.80000,  3564.80000
    203.38,  2763.80000,  3559.40000
    203.87,  2760.00000,  3551.30000
    204.36,  2744.70000,  3545.50000
    204.84,  2739.80000,  3542.40000
    205.33,  2748.60000,  3548.10000
    205.82,  2762.70000,  3548.20000
    206.31,  2758.70000,  3540.80000
    206.80,  2756.80000,  3522.90000
    207.28,  2765.80000,  3518.00000
    207.77,  2777.70000,  3522.00000
    208.26,  2793.30000,  3512.50000
    208.75,  2796.00000,  3515.00000
    209.24,  2774.50000,  3502.30000
    209.72,  2785.50000,  3495.60000
    210.21,  2801.40000,  3493.70000
    210.70,  2776.30000,  3511.70000
    211.19,  2797.80000,  3508.20000
    211.68,  2802.00000,  3519.40000
    212.16,  2804.20000,  3520.00000
    212.65,  2808.70000,  3513.20000
    213.14,  2794.70000,  3502.80000
    213.63,  2780.00000,  3506.00000
    214.12,  2765.40000,  3508.40000
    214.60,  2778.10000,  3520.70000
    215.09,  2800.00000,  3527.70000
    215.58,  2796.70000,  3532.00000
    216.07,  2788.90000,  3542.80000
    216.55,  2788.80000,  3576.00000
    217.04,  2721.20000,  3604.20000
    217.53,  2718.80000,  3617.80000
    218.02,  2723.50000,  3612.20000
    218.50,  2730.50000,  3594.00000
    218.99,  2749.10000,  3581.20000
    219.48,  2775.50000,  3597.50000
    219.97,  2745.60000,  3602.80000
    220.45,  2758.30000,  3620.40000
    220.94,  2752.60000,  3632.90000
    221.43,  2768.90000,  3631.40000
    221.92,  2786.60000,  3627.80000
    222.40,  2798.40000,  3618.10000
    222.89,  2794.30000,  3597.40000
    223.38,  2816.60000,  3593.00000
    223.86,  2826.20000,  3586.70000
    224.35,  2844.60000,  3581.30000
    224.84,  2842.00000,  3569.90000
    225.33,  2827.00000,  3549.90000
    225.81,  2793.80000,  3525.40000
    226.30,  2768.80000,  3508.50000
    226.79,  2760.90000,  3483.80000
    227.27,  2755.90000,  3456.20000
    227.76,  2761.40000,  3414.90000
    228.25,  2793.40000,  3376.90000
    228.74,  2816.20000,  3331.00000
    229.22,  2835.30000,  3292.80000
    229.71,  2826.40000,  3251.00000
    230.20,  2798.40000,  3221.40000
    230.68,  2782.00000,  3196.80000
    231.17,  2770.80000,  3180.40000
    231.66,  2754.10000,  3158.20000
    232.14,  2754.90000,  3124.00000
    232.63,  2743.90000,  3084.60000
    233.12,  2763.30000,  3052.90000
    233.60,  2786.50000,  3021.80000
    234.09,  2765.10000,  2990.70000
    234.58,  2750.90000,  2981.30000
    235.06,  2753.70000,  2948.20000
    235.55,  2749.00000,  2922.00000
    236.04,  2750.80000,  2887.50000
    236.52,  2763.80000,  2855.30000
    237.01,  2742.40000,  2823.40000
    237.50,  2776.80000,  2806.00000
    237.98,  2780.70000,  2779.30000
    238.47,  2837.60000,  2769.10000
    238.96,  2847.50000,  2752.70000
    239.44,  2834.80000,  2744.60000
    239.93,  2827.60000,  2738.50000
    240.41,  2784.80000,  2731.20000
    240.90,  2722.70000,  2729.20000
    241.39,  2745.50000,  2724.30000
    241.87,  2784.10000,  2724.60000
    242.36,  2805.20000,  2706.50000
    242.85,  2846.70000,  2686.00000
    243.33,  2831.30000,  2671.50000
    243.82,  2800.20000,  2661.40000
    244.30,  2769.10000,  2654.00000
    244.79,  2776.00000,  2662.30000
    245.28,  2766.80000,  2660.40000
    245.76,  2770.00000,  2645.60000
    246.25,  2763.00000,  2637.90000
    246.74,  2787.00000,  2620.50000
    247.22,  2812.40000,  2611.20000
    247.71,  2805.90000,  2610.20000
    248.19,  2787.10000,  2605.40000
    248.68,  2781.70000,  2606.70000
    249.16,  2748.70000,  2599.60000
    249.65,  2788.70000,  2590.30000
    250.14,  2811.40000,  2581.50000
    250.62,  2792.20000,  2575.00000
    251.11,  2768.80000,  2553.60000
    251.59,  2746.30000,  2557.90000
    252.08,  2727.70000,  2557.50000
    252.57,  2742.30000,  2565.90000
    253.05,  2747.20000,  2561.50000
    253.54,  2786.30000,  2561.60000
    254.02,  2813.00000,  2557.80000
    254.51,  2811.70000,  2565.70000
    254.99,  2805.20000,  2567.80000
    255.48,  2776.80000,  2559.90000
    255.96,  2748.00000,  2541.20000
    256.45,  2782.70000,  2521.60000
    256.94,  2793.20000,  2518.30000
    257.42,  2786.40000,  2528.00000
    257.91,  2793.50000,  2522.90000
    258.39,  2795.10000,  2511.40000
    258.88,  2771.00000,  2507.90000
    259.36,  2788.50000,  2497.20000
    259.85,  2779.70000,  2495.60000
    260.33,  2792.40000,  2492.50000
    260.82,  2819.60000,  2475.10000
    261.30,  2834.90000,  2473.70000
    261.79,  2806.00000,  2483.80000
    262.27,  2784.30000,  2490.00000
    262.76,  2770.50000,  2489.40000
    263.24,  2770.30000,  2493.40000
    263.73,  2795.50000,  2487.90000
    264.22,  2797.00000,  2494.50000
    264.70,  2863.70000,  2498.20000
    265.19,  2887.80000,  2504.00000
    265.67,  2890.10000,  2508.90000
    266.16,  2856.30000,  2517.80000
    266.64,  2825.80000,  2521.00000
    267.13,  2758.60000,  2512.90000
    267.61,  2766.40000,  2513.10000
    268.10,  2778.60000,  2521.50000
    268.58,  2775.70000,  2537.00000
    269.06,  2776.20000,  2542.50000
    269.55,  2795.00000,  2545.40000
    270.03,  2807.40000,  2536.70000
    270.52,  2806.50000,  2538.00000
    271.00,  2819.50000,  2536.30000
    271.49,  2812.10000,  2537.40000
    271.97,  2812.50000,  2542.00000
    272.46,  2824.10000,  2539.40000
    272.94,  2828.80000,  2541.50000
    273.43,  2815.50000,  2550.40000
    273.91,  2795.20000,  2555.40000
    274.40,  2777.30000,  2558.90000
    274.88,  2764.50000,  2567.50000
    275.37,  2774.80000,  2557.10000
    275.85,  2771.30000,  2559.80000
    276.33,  2771.90000,  2566.80000
    276.82,  2782.30000,  2567.00000
    277.30,  2791.00000,  2565.30000
    277.79,  2788.10000,  2563.20000
    278.27,  2806.80000,  2564.80000
    278.76,  2817.80000,  2575.20000
    279.24,  2816.50000,  2581.10000
    279.73,  2808.10000,  2575.10000
    280.21,  2799.40000,  2567.00000
    280.69,  2782.90000,  2557.90000
    281.18,  2788.10000,  2554.30000
    281.66,  2807.20000,  2557.00000
    282.15,  2837.70000,  2570.70000
    282.63,  2831.70000,  2568.20000
    283.11,  2823.40000,  2568.30000
    283.60,  2825.50000,  2568.00000
    284.08,  2832.90000,  2555.90000
    284.57,  2809.10000,  2540.80000
    285.05,  2808.70000,  2526.50000
    285.53,  2783.90000,  2505.60000
    286.02,  2756.40000,  2493.90000
    286.50,  2779.20000,  2492.10000
    286.99,  2797.10000,  2495.70000
    287.47,  2779.80000,  2497.20000
    287.95,  2770.00000,  2480.40000
    288.44,  2761.30000,  2465.30000
    288.92,  2761.90000,  2443.60000
    289.41,  2783.40000,  2424.30000
    289.89,  2811.30000,  2414.90000
    290.37,  2814.90000,  2415.50000
    290.86,  2833.40000,  2414.80000
    291.34,  2802.50000,  2405.80000
    291.82,  2788.30000,  2392.20000
    292.31,  2760.10000,  2383.50000
    292.79,  2765.30000,  2376.30000
    293.28,  2768.60000,  2356.90000
    293.76,  2788.70000,  2342.50000
    294.24,  2794.80000,  2319.70000
    294.73,  2815.10000,  2296.30000
    295.21,  2818.10000,  2272.90000
    295.69,  2823.70000,  2257.20000
    296.18,  2800.30000,  2233.50000
    296.66,  2766.10000,  2213.40000
    297.14,  2768.00000,  2196.10000
    297.63,  2782.10000,  2182.60000
    298.11,  2794.30000,  2178.50000
    298.59,  2818.60000,  2183.70000
    299.08,  2820.00000,  2183.10000
    299.56,  2818.30000,  2168.70000
    300.04,  2841.30000,  2142.10000
    300.53,  2844.00000,  2127.20000
    301.01,  2836.90000,  2113.80000
    301.49,  2833.90000,  2109.90000
    301.98,  2802.90000,  2110.80000
    302.46,  2778.50000,  2100.50000
    302.94,  2775.90000,  2087.80000
    303.42,  2775.30000,  2080.70000
    303.91,  2768.90000,  2059.10000
    304.39,  2758.20000,  2059.40000
    304.87,  2756.50000,  2064.70000
    305.36,  2771.20000,  2056.00000
    305.84,  2798.40000,  2047.20000
    306.32,  2839.10000,  2028.50000
    306.81,  2832.90000,  1998.70000
    307.29,  2799.00000,  1993.90000
    307.77,  2788.40000,  1984.00000
    308.25,  2785.30000,  1981.70000
    308.74,  2796.90000,  1981.60000
    309.22,  2798.30000,  1970.10000
    309.70,  2787.00000,  1954.50000
    310.18,  2768.70000,  1942.60000
    310.67,  2776.60000,  1933.10000
    311.15,  2787.90000,  1928.70000
    311.63,  2799.00000,  1926.00000
    312.12,  2806.80000,  1914.50000
    312.60,  2781.80000,  1912.80000
    313.08,  2762.20000,  1901.80000
    313.56,  2752.60000,  1898.40000
    314.05,  2755.20000,  1892.00000
    314.53,  2773.50000,  1884.10000
    315.01,  2828.10000,  1874.30000
    315.49,  2824.10000,  1865.50000
    315.98,  2825.60000,  1862.30000
    316.46,  2801.80000,  1850.60000
    316.94,  2770.60000,  1846.30000
    317.42,  2757.40000,  1837.30000
    317.90,  2762.30000,  1831.40000
    318.39,  2748.40000,  1820.30000
    318.87,  2798.50000,  1825.70000
    319.35,  2824.60000,  1817.70000
    319.83,  2836.20000,  1816.90000
    320.32,  2843.80000,  1813.30000
    320.80,  2839.60000,  1804.00000
    321.28,  2791.20000,  1800.90000
    321.76,  2822.50000,  1806.40000
    322.24,  2821.80000,  1808.40000
    322.73,  2840.30000,  1809.40000
    323.21,  2846.10000,  1810.30000
    323.69,  2848.90000,  1798.90000
    324.17,  2795.60000,  1778.40000
    324.65,  2762.80000,  1770.30000
    325.14,  2770.70000,  1761.60000
    325.62,  2793.50000,  1758.00000
    326.10,  2848.20000,  1762.70000
    326.58,  2869.70000,  1767.40000
    327.06,  2826.20000,  1757.10000
    327.55,  2836.00000,  1753.00000
    328.03,  2863.70000,  1750.80000
    328.51,  2865.50000,  1761.60000
    328.99,  2883.80000,  1756.40000
    329.47,  2865.70000,  1757.20000
    329.95,  2791.00000,  1754.60000
    330.44,  2796.10000,  1752.90000
    330.92,  2765.30000,  1750.60000
    331.40,  2744.60000,  1761.00000
    331.88,  2740.70000,  1748.30000
    332.36,  2758.20000,  1737.70000
    332.84,  2792.60000,  1727.50000
    333.33,  2834.50000,  1727.90000
    333.81,  2837.50000,  1722.20000
    334.29,  2837.50000,  1735.20000
    334.77,  2822.10000,  1747.10000
    335.25,  2811.90000,  1744.00000
    335.73,  2833.60000,  1727.00000
    336.21,  2835.90000,  1716.80000
    336.69,  2823.20000,  1710.60000
    337.18,  2804.40000,  1716.90000
    337.66,  2777.80000,  1713.70000
    338.14,  2760.80000,  1706.30000
    338.62,  2759.70000,  1688.90000
    339.10,  2788.20000,  1681.40000
    339.58,  2830.70000,  1688.90000
    340.06,  2842.60000,  1695.40000
    340.54,  2852.90000,  1677.40000
    341.03,  2838.10000,  1671.30000
    341.51,  2809.10000,  1658.30000
    341.99,  2803.60000,  1647.40000
    342.47,  2810.70000,  1648.10000
    342.95,  2805.00000,  1657.20000
    343.43,  2804.70000,  1649.00000
    343.91,  2804.40000,  1647.00000
    344.39,  2782.10000,  1654.10000
    344.87,  2758.90000,  1665.40000
    345.35,  2771.00000,  1672.80000
    345.84,  2780.60000,  1684.50000
    346.32,  2832.60000,  1670.30000
    346.80,  2855.00000,  1656.70000
    347.28,  2854.40000,  1650.60000
    347.76,  2821.90000,  1653.30000
    348.24,  2814.10000,  1651.70000
    348.72,  2834.80000,  1651.10000
    349.20,  2861.90000,  1650.60000
    349.68,  2843.20000,  1646.70000
    350.16,  2814.30000,  1641.60000
    350.64,  2773.20000,  1639.00000
    351.12,  2755.40000,  1642.30000
    351.60,  2815.30000,  1638.00000
    352.08,  2849.50000,  1651.70000
    352.56,  2863.10000,  1658.10000
    353.04,  2855.30000,  1662.40000
    353.53,  2843.40000,  1656.40000
    354.01,  2823.30000,  1648.40000
    354.49,  2849.10000,  1624.40000
    354.97,  2850.10000,  1623.70000
    355.45,  2845.00000,  1625.20000
    355.93,  2818.30000,  1634.20000
    356.41,  2838.00000,  1631.90000
    356.89,  2815.80000,  1627.10000
    357.37,  2826.70000,  1616.10000
    357.85,  2811.20000,  1612.70000
    358.33,  2795.90000,  1610.70000
    358.81,  2768.90000,  1612.30000
    359.29,  2785.90000,  1610.10000
    359.77,  2796.30000,  1622.00000
    360.25,  2821.30000,  1625.30000
    360.73,  2825.10000,  1622.50000
    361.21,  2815.00000,  1621.70000
    361.69,  2817.80000,  1616.10000
    362.17,  2818.10000,  1607.20000
    362.65,  2832.80000,  1613.40000
    363.13,  2841.70000,  1609.30000
    363.61,  2849.20000,  1606.80000
    364.09,  2817.30000,  1611.40000
    364.57,  2801.10000,  1624.80000
    365.05,  2796.80000,  1627.30000
    365.53,  2787.20000,  1622.30000
    366.01,  2811.90000,  1614.20000
    366.49,  2848.70000,  1610.90000
    366.97,  2812.30000,  1610.40000
    367.45,  2820.50000,  1616.60000
    367.93,  2849.80000,  1615.40000
    368.41,  2837.40000,  1609.20000
    368.89,  2842.10000,  1611.90000
    369.37,  2849.60000,  1612.40000
    369.85,  2794.20000,  1617.60000
    370.33,  2817.30000,  1616.90000
    370.80,  2834.30000,  1623.00000
    371.28,  2830.50000,  1633.20000
    371.76,  2804.00000,  1645.30000
    372.24,  2788.00000,  1643.00000
    372.72,  2778.00000,  1644.10000
    373.20,  2804.10000,  1631.60000
    373.68,  2835.00000,  1625.60000
    374.16,  2859.70000,  1630.40000
    374.64,  2836.90000,  1642.60000
    375.12,  2806.80000,  1647.20000
    375.60,  2831.70000,  1657.00000
    376.08,  2804.70000,  1656.20000
    376.56,  2796.70000,  1653.60000
    377.04,  2789.90000,  1653.40000
    377.52,  2789.80000,  1654.00000
    377.99,  2787.80000,  1641.40000
    378.47,  2822.00000,  1637.10000
    378.95,  2809.30000,  1633.20000
    379.43,  2824.50000,  1644.70000
    379.91,  2827.90000,  1646.00000
    380.39,  2871.80000,  1650.10000
    380.87,  2894.40000,  1649.90000
    381.35,  2884.10000,  1651.70000
    381.83,  2849.90000,  1662.10000
    382.31,  2815.00000,  1662.30000
    382.79,  2772.00000,  1660.40000
    383.26,  2788.00000,  1658.80000
    383.74,  2789.70000,  1663.70000
    384.22,  2789.70000,  1666.30000
    384.70,  2789.30000,  1672.60000
    385.18,  2769.40000,  1663.10000
    385.66,  2780.40000,  1656.40000
    386.14,  2792.10000,  1653.80000
    386.62,  2803.90000,  1656.00000
    387.09,  2826.80000,  1652.00000
    387.57,  2839.00000,  1651.60000
    388.05,  2829.20000,  1654.00000
    388.53,  2829.20000,  1649.70000
    389.01,  2829.30000,  1657.30000
    389.49,  2842.90000,  1658.40000
    389.97,  2842.00000,  1655.70000
    390.44,  2839.60000,  1646.10000
    390.92,  2823.60000,  1642.70000
    391.40,  2804.50000,  1636.30000
    391.88,  2802.70000,  1632.90000
    392.36,  2806.30000,  1636.50000
    392.84,  2803.50000,  1632.20000
    393.32,  2816.80000,  1627.30000
    393.79,  2809.10000,  1639.40000
    394.27,  2861.00000,  1644.40000
    394.75,  2862.80000,  1653.50000
    395.23,  2854.40000,  1666.10000
    395.71,  2837.20000,  1650.10000
    396.18,  2831.40000,  1644.90000
    396.66,  2843.20000,  1637.20000
    397.14,  2879.70000,  1638.10000
    397.62,  2845.20000,  1648.50000
    398.10,  2854.10000,  1623.10000
    398.58,  2851.50000,  1598.50000
    399.05,  2865.90000,  1585.00000
    399.53,  2881.30000,  1580.70000
    400.01,  2861.30000,  1595.80000
    400.49,  2818.70000,  1615.30000
    400.97,  2795.20000,  1617.30000
    401.44,  2759.20000,  1619.40000
    401.92,  2783.00000,  1614.10000
    402.40,  2790.10000,  1611.40000
    402.88,  2823.50000,  1606.30000
    403.36,  2840.30000,  1605.70000
    403.83,  2855.20000,  1606.10000
    404.31,  2818.10000,  1598.00000
    404.79,  2823.10000,  1595.90000
    405.27,  2803.70000,  1584.70000
    405.74,  2793.30000,  1585.20000
    406.22,  2813.90000,  1592.20000
    406.70,  2840.00000,  1587.30000
    407.18,  2821.60000,  1585.80000
    407.65,  2804.50000,  1586.10000
    408.13,  2777.60000,  1574.90000
    408.61,  2775.90000,  1577.50000
    409.09,  2793.20000,  1568.60000
    409.56,  2801.40000,  1552.50000
    410.04,  2816.90000,  1552.40000
    410.52,  2813.60000,  1548.70000
    411.00,  2792.50000,  1549.00000
    411.47,  2785.90000,  1552.30000
    411.95,  2772.70000,  1550.60000
    412.43,  2774.00000,  1543.50000
    412.91,  2772.40000,  1547.80000
    413.38,  2791.10000,  1541.30000
    413.86,  2806.40000,  1530.20000
    414.34,  2815.00000,  1514.50000
    414.82,  2824.00000,  1513.50000
    415.29,  2827.00000,  1501.20000
    415.77,  2831.50000,  1495.10000
    416.25,  2830.10000,  1495.90000
    416.72,  2828.20000,  1494.50000
    417.20,  2818.50000,  1494.30000
    417.68,  2779.20000,  1495.50000
    418.16,  2771.70000,  1486.10000
    418.63,  2801.00000,  1485.60000
    419.11,  2804.40000,  1486.20000
    419.59,  2813.50000,  1484.60000
    420.06,  2787.30000,  1485.10000
    420.54,  2751.50000,  1484.10000
    421.02,  2769.70000,  1498.60000
    421.50,  2798.50000,  1512.30000
    421.97,  2805.10000,  1502.50000
    422.45,  2795.40000,  1487.90000
    422.93,  2778.60000,  1476.90000
    423.40,  2762.70000,  1465.90000
    423.88,  2768.80000,  1475.30000
    424.36,  2782.10000,  1481.70000
    424.83,  2799.80000,  1468.90000
    425.31,  2819.10000,  1464.70000
    425.79,  2870.10000,  1458.40000
    426.26,  2912.10000,  1449.40000
    426.74,  2895.90000,  1443.60000
    427.22,  2870.90000,  1449.00000
    427.69,  2858.70000,  1440.40000
    428.17,  2828.70000,  1445.60000
    428.65,  2803.60000,  1450.40000
    429.12,  2837.30000,  1445.90000
    429.60,  2820.40000,  1440.70000
    430.08,  2823.20000,  1443.40000
    430.55,  2837.00000,  1442.40000
    431.03,  2837.20000,  1441.50000
    431.50,  2831.30000,  1439.70000
    431.98,  2839.60000,  1427.50000
    432.46,  2840.00000,  1419.20000
    432.93,  2806.30000,  1427.80000
    433.41,  2783.20000,  1436.60000
    433.89,  2846.20000,  1372.90000
    434.36,  2910.40000,  1315.10000
    434.84,  2927.90000,  1296.80000
    435.31,  2925.40000,  1315.40000
    435.79,  2861.00000,  1370.80000
    436.27,  2787.50000,  1435.40000
    436.74,  2781.70000,  1439.00000
    437.22,  2790.30000,  1436.50000
    437.70,  2786.90000,  1433.20000
    438.17,  2786.80000,  1433.60000
    438.65,  2789.80000,  1425.90000
    439.12,  2798.40000,  1427.90000
    439.60,  2794.90000,  1437.20000
    440.08,  2807.90000,  1437.20000
    440.55,  2787.60000,  1430.30000
    441.03,  2796.50000,  1440.30000
    441.50,  2795.90000,  1431.80000
    441.98,  2815.40000,  1427.10000
    442.45,  2814.30000,  1425.90000
    442.93,  2817.40000,  1422.20000
    443.41,  2802.00000,  1416.90000
    443.88,  2805.50000,  1421.40000
    444.36,  2794.30000,  1415.50000
    444.83,  2789.50000,  1418.90000
    445.31,  2791.70000,  1418.80000
    445.78,  2771.10000,  1421.30000
    446.26,  2774.20000,  1423.70000
    446.74,  2771.20000,  1417.60000
    447.21,  2790.30000,  1419.90000
    447.69,  2809.30000,  1425.70000
    448.16,  2834.50000,  1426.90000
    448.64,  2819.20000,  1421.30000
    449.11,  2802.90000,  1418.10000
    449.59,  2800.00000,  1405.60000
    450.06,  2797.70000,  1404.90000
    450.54,  2798.70000,  1404.90000
    451.02,  2830.80000,  1408.40000
    451.49,  2843.50000,  1413.10000
    451.97,  2840.60000,  1422.50000
    452.44,  2833.30000,  1416.40000
    452.92,  2814.60000,  1414.90000
    453.39,  2794.20000,  1413.80000
    453.87,  2800.90000,  1416.60000
    454.34,  2803.00000,  1422.70000
    454.82,  2806.20000,  1424.50000
    455.29,  2817.70000,  1411.40000
    455.77,  2826.90000,  1405.70000
    456.24,  2801.00000,  1403.80000
    456.72,  2778.50000,  1399.40000
    457.19,  2768.10000,  1411.50000
    457.67,  2777.00000,  1422.60000
    458.14,  2805.20000,  1431.50000
    458.62,  2817.20000,  1434.80000
    459.09,  2811.20000,  1428.20000
    459.57,  2788.90000,  1417.40000
    460.04,  2795.90000,  1414.70000
    460.52,  2794.90000,  1418.80000
    460.99,  2784.30000,  1421.90000
    461.47,  2775.20000,  1426.30000
    461.94,  2754.60000,  1420.70000
    462.42,  2750.80000,  1417.80000
    462.89,  2780.00000,  1411.10000
    463.37,  2800.10000,  1416.70000
    463.84,  2809.60000,  1416.50000
    464.32,  2818.10000,  1410.80000
    464.79,  2817.70000,  1400.70000
    465.26,  2820.00000,  1397.30000
    465.74,  2806.00000,  1398.30000
    466.21,  2826.80000,  1408.80000
    466.69,  2835.30000,  1417.20000
    467.16,  2831.80000,  1421.00000
    467.64,  2809.50000,  1426.30000
    468.11,  2793.60000,  1415.90000
    468.59,  2784.90000,  1408.40000
    469.06,  2810.70000,  1399.90000
    469.54,  2839.80000,  1393.30000
    470.01,  2834.60000,  1403.80000
    470.48,  2789.80000,  1405.50000
    470.96,  2804.40000,  1405.00000
    471.43,  2828.10000,  1404.40000
    471.91,  2855.00000,  1402.60000
    472.38,  2887.10000,  1404.30000
    472.86,  2858.80000,  1411.60000
    473.33,  2803.30000,  1406.80000
    473.80,  2792.40000,  1412.80000
    474.28,  2799.20000,  1412.90000
    474.75,  2812.10000,  1412.70000
    475.23,  2845.30000,  1423.70000
    475.70,  2845.00000,  1422.90000
    476.17,  2820.20000,  1413.60000
    476.65,  2812.00000,  1408.90000
    477.12,  2808.30000,  1407.00000
    477.60,  2771.80000,  1401.50000
    478.07,  2779.70000,  1417.20000
    478.54,  2798.60000,  1423.60000
    479.02,  2808.70000,  1424.60000
    479.49,  2831.50000,  1427.00000
    479.97,  2834.50000,  1419.10000
    480.44,  2821.10000,  1405.90000
    480.91,  2805.80000,  1395.30000
    481.39,  2803.60000,  1392.10000
    481.86,  2804.00000,  1394.10000
    482.34,  2784.80000,  1400.70000
    482.81,  2795.10000,  1408.90000
    483.28,  2817.50000,  1418.60000
    483.76,  2809.30000,  1413.80000
    484.23,  2829.60000,  1417.00000
    484.70,  2822.40000,  1412.20000
    485.18,  2821.40000,  1399.90000
    485.65,  2827.40000,  1398.70000
    486.12,  2824.40000,  1412.30000
    486.60,  2799.30000,  1412.60000
    487.07,  2797.50000,  1418.80000
    487.55,  2815.80000,  1426.70000
    488.02,  2838.50000,  1414.20000
    488.49,  2839.80000,  1397.00000
    488.97,  2854.40000,  1393.40000
    489.44,  2846.80000,  1390.00000
    489.91,  2809.10000,  1389.20000
    490.39,  2795.00000,  1408.50000
    490.86,  2753.30000,  1411.30000
    491.33,  2722.90000,  1398.10000
    491.81,  2767.80000,  1391.50000
    492.28,  2806.70000,  1392.40000
    492.75,  2800.60000,  1383.80000
    493.23,  2845.20000,  1393.40000
    493.70,  2860.70000,  1400.00000
    494.17,  2856.10000,  1395.60000
    494.64,  2853.90000,  1396.10000
    495.12,  2812.50000,  1400.00000
    495.59,  2807.50000,  1397.70000
    496.06,  2843.70000,  1398.30000
    496.54,  2862.80000,  1395.20000
    497.01,  2853.90000,  1380.10000
    497.48,  2839.00000,  1374.80000
    497.96,  2807.90000,  1368.80000
    498.43,  2832.30000,  1371.10000
    498.90,  2840.50000,  1368.00000
    499.37,  2860.50000,  1371.90000
    499.85,  2845.60000,  1365.40000
    500.32,  2837.90000,  1370.70000
    500.79,  2815.00000,  1373.30000
    501.27,  2821.10000,  1379.70000
    501.74,  2811.90000,  1381.10000
    502.21,  2806.80000,  1386.10000
    502.68,  2799.60000,  1381.40000
    503.16,  2783.30000,  1380.40000
    503.63,  2772.70000,  1377.60000
    504.10,  2785.60000,  1373.20000
    504.57,  2772.60000,  1376.00000
    505.05,  2789.90000,  1375.00000
    505.52,  2820.20000,  1370.60000
    505.99,  2818.50000,  1369.90000
    506.46,  2821.80000,  1364.30000
    506.94,  2812.00000,  1356.40000
    507.41,  2791.80000,  1359.80000
    507.88,  2793.00000,  1353.10000
    508.35,  2789.70000,  1352.00000
    508.83,  2771.30000,  1355.10000
    509.30,  2803.50000,  1351.60000
    509.77,  2807.50000,  1356.70000
    510.24,  2809.90000,  1363.00000
    510.72,  2796.50000,  1355.80000
    511.19,  2786.70000,  1355.10000
    511.66,  2784.60000,  1353.00000
    512.13,  2815.60000,  1354.80000
    512.60,  2806.80000,  1356.10000
    513.08,  2796.80000,  1355.30000
    513.55,  2789.90000,  1351.70000
    514.02,  2776.70000,  1344.30000
    514.49,  2773.20000,  1356.30000
    514.97,  2775.60000,  1367.50000
    515.44,  2784.30000,  1370.00000
    515.91,  2774.30000,  1369.80000
    516.38,  2783.20000,  1358.40000
    516.85,  2754.20000,  1350.30000
    517.33,  2742.20000,  1350.30000
    517.80,  2740.10000,  1351.40000
    518.27,  2762.80000,  1357.10000
    518.74,  2805.40000,  1360.40000
    519.21,  2830.20000,  1368.70000
    519.68,  2808.70000,  1374.40000
    520.16,  2783.50000,  1366.30000
    520.63,  2761.90000,  1363.60000
    521.10,  2751.00000,  1355.80000
    521.57,  2784.50000,  1354.50000
    522.04,  2793.30000,  1360.80000
    522.52,  2797.60000,  1356.30000
    522.99,  2788.70000,  1351.50000
    523.46,  2801.60000,  1352.60000
    523.93,  2803.70000,  1352.70000
    524.40,  2834.60000,  1354.50000
    524.87,  2822.60000,  1358.20000
    525.34,  2812.10000,  1359.90000
    525.82,  2799.40000,  1366.20000
    526.29,  2800.20000,  1365.60000
    526.76,  2799.00000,  1369.80000
    527.23,  2816.10000,  1362.40000
    527.70,  2799.90000,  1359.30000
    528.17,  2800.10000,  1346.10000
    528.64,  2800.10000,  1333.70000
    529.12,  2804.40000,  1324.80000
    529.59,  2802.20000,  1335.70000
    530.06,  2798.50000,  1349.00000
    530.53,  2831.00000,  1360.20000
    531.00,  2801.10000,  1360.30000
    531.47,  2757.10000,  1356.80000
    531.94,  2754.80000,  1353.10000
    532.41,  2752.40000,  1354.20000
    532.89,  2771.90000,  1356.10000
    533.36,  2835.40000,  1354.70000
    533.83,  2815.70000,  1355.90000
    534.30,  2791.40000,  1369.00000
    534.77,  2806.20000,  1372.50000
    535.24,  2805.20000,  1387.70000
    535.71,  2797.70000,  1390.20000
    536.18,  2811.80000,  1376.50000
    536.65,  2806.30000,  1368.80000
    537.13,  2783.90000,  1364.40000
    537.60,  2768.30000,  1367.10000
    538.07,  2766.00000,  1386.70000
    538.54,  2758.20000,  1389.50000
    539.01,  2780.50000,  1387.10000
    539.48,  2813.80000,  1390.70000
    539.95,  2819.80000,  1390.00000
    540.42,  2821.60000,  1391.10000
    540.89,  2810.40000,  1402.90000
    541.36,  2801.30000,  1393.80000
    541.83,  2801.80000,  1394.90000
    542.30,  2805.90000,  1388.80000
    542.77,  2806.50000,  1387.20000
    543.25,  2823.80000,  1379.90000
    543.72,  2815.00000,  1397.40000
    544.19,  2813.00000,  1403.20000
    544.66,  2792.10000,  1412.10000
    545.13,  2785.80000,  1409.70000
    545.60,  2775.10000,  1408.60000
    546.07,  2801.00000,  1407.70000
    546.54,  2803.90000,  1411.10000
    547.01,  2807.10000,  1418.60000
    547.48,  2803.20000,  1428.20000
    547.95,  2797.00000,  1428.70000
    548.42,  2786.70000,  1433.20000
    548.89,  2825.00000,  1431.60000
    549.36,  2817.50000,  1417.50000
    549.83,  2802.40000,  1419.60000
    550.30,  2843.00000,  1424.70000
    550.77,  2837.70000,  1431.10000
    551.24,  2839.00000,  1444.50000
    551.71,  2855.80000,  1454.30000
    552.18,  2824.90000,  1457.60000
    552.65,  2774.30000,  1455.70000
    553.12,  2801.80000,  1454.10000
    553.59,  2805.30000,  1447.20000
    554.06,  2811.40000,  1444.10000
    554.53,  2823.70000,  1445.70000
    555.00,  2813.50000,  1449.60000
    555.47,  2802.90000,  1445.60000
    555.94,  2801.60000,  1445.50000
    556.41,  2796.20000,  1450.60000
    556.88,  2772.00000,  1451.00000
    557.35,  2768.60000,  1462.50000
    557.82,  2762.20000,  1458.20000
    558.29,  2780.50000,  1449.90000
    558.76,  2828.40000,  1440.90000
    559.23,  2841.70000,  1454.30000
    559.70,  2837.10000,  1459.10000
    560.17,  2821.60000,  1482.30000
    560.64,  2808.80000,  1480.40000
    561.11,  2789.80000,  1478.10000
    561.58,  2814.30000,  1473.30000
    562.05,  2797.40000,  1477.40000
    562.52,  2811.10000,  1471.20000
    562.99,  2813.50000,  1465.60000
    563.46,  2823.40000,  1466.90000
    563.93,  2812.20000,  1463.30000
    564.40,  2814.30000,  1470.00000
    564.87,  2808.90000,  1477.50000
    565.34,  2833.00000,  1476.00000
    565.81,  2824.00000,  1473.10000
    566.28,  2811.70000,  1486.20000
    566.74,  2790.90000,  1484.00000
    567.21,  2776.90000,  1488.20000
    567.68,  2788.70000,  1486.60000
    568.15,  2791.50000,  1473.80000
    568.62,  2786.50000,  1466.40000
    569.09,  2780.30000,  1474.90000
    569.56,  2780.00000,  1481.50000
    570.03,  2783.60000,  1479.10000
    570.50,  2821.10000,  1483.90000
    570.97,  2816.90000,  1486.80000
    571.44,  2805.60000,  1488.90000
    571.91,  2798.00000,  1501.70000
    572.38,  2788.70000,  1500.10000
    572.84,  2775.70000,  1486.40000
    573.31,  2795.20000,  1471.50000
    573.78,  2792.70000,  1465.20000
    574.25,  2788.40000,  1458.00000
    574.72,  2804.30000,  1468.30000
    575.19,  2797.70000,  1474.10000
    575.66,  2795.40000,  1482.40000
    576.13,  2789.40000,  1484.50000
    576.60,  2802.70000,  1473.60000
    577.07,  2832.50000,  1465.00000
    577.53,  2855.50000,  1472.90000
    578.00,  2845.40000,  1480.70000
    578.47,  2829.30000,  1488.70000
    578.94,  2796.50000,  1485.10000
    579.41,  2773.30000,  1465.80000
    579.88,  2794.30000,  1457.10000
    580.35,  2799.00000,  1467.60000
    580.82,  2803.80000,  1477.50000
    581.28,  2818.40000,  1490.60000
    581.75,  2817.60000,  1487.40000
    582.22,  2808.50000,  1476.70000
    582.69,  2818.10000,  1472.40000
    583.16,  2818.80000,  1466.30000
    583.63,  2813.00000,  1463.60000
    584.10,  2838.60000,  1460.90000
    584.56,  2848.40000,  1453.50000
    585.03,  2839.00000,  1446.10000
    585.50,  2823.50000,  1454.90000
    585.97,  2795.60000,  1458.00000
    586.44,  2787.20000,  1468.90000
    586.91,  2809.50000,  1464.40000
    587.37,  2813.20000,  1454.70000
    587.84,  2804.50000,  1447.10000
    588.31,  2793.10000,  1443.10000
    588.78,  2762.20000,  1445.00000
    589.25,  2790.90000,  1454.00000
    589.72,  2786.50000,  1464.00000
    590.18,  2806.00000,  1473.60000
    590.65,  2828.80000,  1471.00000
    591.12,  2816.40000,  1461.00000
    591.59,  2812.30000,  1452.80000
    592.06,  2805.10000,  1447.40000
    592.52,  2765.20000,  1446.00000
    592.99,  2784.40000,  1444.80000
    593.46,  2783.60000,  1446.00000
    593.93,  2739.00000,  1448.10000
    594.40,  2759.10000,  1460.10000
    594.86,  2779.90000,  1458.80000
    595.33,  2794.30000,  1450.10000
    595.80,  2826.10000,  1441.00000
    596.27,  2831.50000,  1440.70000
    596.74,  2812.30000,  1440.70000
    597.20,  2805.80000,  1448.40000
    597.67,  2817.10000,  1447.00000
    598.14,  2797.50000,  1443.10000
    598.61,  2787.80000,  1438.20000
    599.07,  2788.50000,  1435.90000
    599.54,  2776.00000,  1436.20000
    600.01,  2765.10000,  1428.70000
    600.48,  2822.40000,  1423.20000
    600.95,  2848.10000,  1427.30000
    601.41,  2854.80000,  1428.80000
    601.88,  2838.80000,  1433.10000
    602.35,  2778.90000,  1431.40000
    602.82,  2730.70000,  1426.50000
    603.28,  2748.70000,  1423.20000
    603.75,  2748.80000,  1428.40000
    604.22,  2774.60000,  1422.30000
    604.69,  2790.40000,  1416.10000
    605.15,  2804.40000,  1394.10000
    605.62,  2797.00000,  1390.90000
    606.09,  2796.80000,  1394.50000
    606.56,  2776.00000,  1394.20000
    607.02,  2774.10000,  1400.20000
    607.49,  2769.90000,  1403.30000
    607.96,  2789.90000,  1411.40000
    608.42,  2778.90000,  1421.10000
    608.89,  2832.60000,  1424.90000
    609.36,  2843.20000,  1426.60000
    609.83,  2833.10000,  1421.70000
    610.29,  2807.10000,  1409.10000
    610.76,  2778.20000,  1405.70000
    611.23,  2766.40000,  1396.70000
    611.69,  2801.90000,  1378.50000
    612.16,  2800.10000,  1377.40000
    612.63,  2800.60000,  1376.30000
    613.10,  2785.90000,  1373.00000
    613.56,  2763.20000,  1374.50000
    614.03,  2774.70000,  1383.50000
    614.50,  2778.40000,  1386.30000
    614.96,  2779.60000,  1390.40000
    615.43,  2788.40000,  1390.90000
    615.90,  2798.20000,  1386.40000
    616.36,  2802.00000,  1371.80000
    616.83,  2793.00000,  1360.20000
    617.30,  2788.70000,  1354.40000
    617.76,  2770.10000,  1347.80000
    618.23,  2757.20000,  1342.90000
    618.70,  2744.70000,  1354.90000
    619.16,  2759.10000,  1351.30000
    619.63,  2757.10000,  1350.60000
    620.10,  2759.10000,  1348.30000
    620.56,  2759.30000,  1345.30000
    621.03,  2782.30000,  1335.60000
    621.50,  2791.30000,  1333.20000
    621.96,  2804.70000,  1328.60000
    622.43,  2809.20000,  1323.20000
    622.90,  2779.40000,  1355.10000
    623.36,  2869.70000,  1271.30000
    623.83,  2928.00000,  1207.90000
    624.30,  2939.90000,  1185.30000
    624.76,  2915.50000,  1211.80000
    625.23,  2867.20000,  1264.90000
    625.70,  2791.30000,  1356.40000
    626.16,  2819.50000,  1338.30000
    626.63,  2789.00000,  1330.50000
    627.09,  2779.20000,  1322.60000
    627.56,  2789.70000,  1322.30000
    628.03,  2789.70000,  1320.10000
    628.49,  2799.30000,  1325.90000
    628.96,  2777.40000,  1333.00000
    629.43,  2770.80000,  1324.20000
    629.89,  2773.10000,  1307.70000
    630.36,  2786.70000,  1292.40000
    630.82,  2779.40000,  1291.90000
    631.29,  2779.40000,  1297.20000
    631.76,  2758.20000,  1307.20000
    632.22,  2745.20000,  1308.60000
    632.69,  2756.30000,  1306.00000
    633.15,  2769.00000,  1309.00000
    633.62,  2799.90000,  1301.30000
    634.09,  2816.30000,  1296.00000
    634.55,  2816.90000,  1302.30000
    635.02,  2796.20000,  1288.00000
    635.48,  2789.40000,  1283.70000
    635.95,  2769.30000,  1293.20000
    636.42,  2773.90000,  1291.20000
    636.88,  2758.90000,  1297.10000
    637.35,  2753.00000,  1306.80000
    637.81,  2774.50000,  1294.30000
    638.28,  2788.50000,  1284.00000
    638.74,  2805.00000,  1281.10000
    639.21,  2815.80000,  1269.80000
    639.68,  2791.60000,  1263.50000
    640.14,  2760.70000,  1261.80000
    640.61,  2768.60000,  1260.40000
    641.07,  2747.50000,  1252.20000
    641.54,  2768.10000,  1252.60000
    642.00,  2785.80000,  1249.60000
    642.47,  2803.10000,  1245.80000
    642.93,  2804.50000,  1247.60000
    643.40,  2802.80000,  1253.30000
    643.87,  2783.50000,  1250.50000
    644.33,  2783.20000,  1257.60000
    644.80,  2778.80000,  1262.20000
    645.26,  2770.50000,  1256.30000
    645.73,  2767.70000,  1247.30000
    646.19,  2767.10000,  1237.80000
    646.66,  2776.70000,  1239.80000
    647.12,  2766.50000,  1245.50000
    647.59,  2772.50000,  1248.40000
    648.05,  2784.90000,  1245.80000
    648.52,  2773.20000,  1245.50000
    648.98,  2773.10000,  1245.80000
    649.45,  2764.50000,  1252.40000
    649.91,  2743.90000,  1248.30000
    650.38,  2749.40000,  1242.60000
    650.84,  2794.90000,  1241.90000
    651.31,  2780.90000,  1247.60000
    651.77,  2780.40000,  1253.20000
    652.24,  2754.90000,  1262.50000
    652.70,  2740.80000,  1263.40000
    653.17,  2727.00000,  1265.50000
    653.63,  2753.30000,  1267.40000
    654.10,  2741.70000,  1268.40000
    654.56,  2760.20000,  1259.50000
    655.03,  2754.60000,  1257.10000
    655.49,  2769.30000,  1248.30000
    655.96,  2769.30000,  1236.70000
    656.42,  2767.40000,  1229.70000
    656.89,  2756.70000,  1239.50000
    657.35,  2814.10000,  1238.00000
    657.82,  2849.20000,  1235.70000
    658.28,  2879.90000,  1223.60000
    658.75,  2887.20000,  1215.10000
    659.21,  2840.20000,  1217.20000
    659.68,  2809.70000,  1221.60000
    660.14,  2809.10000,  1215.30000
    660.61,  2774.20000,  1208.80000
    661.07,  2805.80000,  1206.70000
    661.53,  2815.90000,  1216.00000
    662.00,  2828.20000,  1228.50000
    662.46,  2823.50000,  1236.30000
    662.93,  2814.00000,  1231.00000
    663.39,  2782.60000,  1225.60000
    663.86,  2815.60000,  1213.10000
    664.32,  2805.40000,  1209.70000
    664.79,  2826.10000,  1204.00000
    665.25,  2808.70000,  1202.10000
    665.71,  2783.20000,  1203.60000
    666.18,  2751.80000,  1203.50000
    666.64,  2778.50000,  1201.90000
    667.11,  2773.00000,  1215.40000
    667.57,  2793.30000,  1217.80000
    668.04,  2813.80000,  1203.40000
    668.50,  2802.30000,  1190.90000
    668.96,  2785.10000,  1176.70000
    669.43,  2811.20000,  1169.00000
    669.89,  2790.70000,  1170.80000
    670.36,  2766.50000,  1195.20000
    670.82,  2763.70000,  1217.30000
    671.28,  2761.60000,  1237.90000
    671.75,  2766.80000,  1240.00000
    672.21,  2798.50000,  1223.10000
    672.68,  2802.40000,  1195.50000
    673.14,  2816.30000,  1175.00000
    673.60,  2834.40000,  1174.60000
    674.07,  2810.10000,  1178.40000
    674.53,  2783.50000,  1172.90000
    675.00,  2773.10000,  1167.50000
    675.46,  2760.30000,  1155.70000
    675.92,  2765.80000,  1145.70000
    676.39,  2802.20000,  1152.70000
    676.85,  2791.50000,  1159.40000
    677.31,  2797.60000,  1167.10000
    677.78,  2802.50000,  1170.60000
    678.24,  2792.50000,  1155.60000
    678.70,  2773.00000,  1151.70000
    679.17,  2760.90000,  1144.30000
    679.63,  2731.80000,  1133.50000
    680.10,  2732.00000,  1139.70000
    680.56,  2753.10000,  1144.50000
    681.02,  2751.00000,  1141.40000
    681.49,  2781.40000,  1143.60000
    681.95,  2786.10000,  1141.20000
    682.41,  2781.80000,  1136.00000
    682.88,  2773.20000,  1137.60000
    683.34,  2768.60000,  1127.40000
    683.80,  2743.00000,  1125.90000
    684.27,  2766.00000,  1125.30000
    684.73,  2773.10000,  1124.90000
    685.19,  2795.80000,  1133.70000
    685.66,  2820.00000,  1138.90000
    686.12,  2819.00000,  1137.20000
    686.58,  2829.80000,  1134.40000
    687.05,  2825.30000,  1126.80000
    687.51,  2806.70000,  1111.60000
    687.97,  2793.10000,  1112.30000
    688.44,  2799.20000,  1111.10000
    688.90,  2795.10000,  1116.00000
    689.36,  2800.60000,  1111.00000
    689.83,  2800.80000,  1110.20000
    690.29,  2813.90000,  1103.10000
    690.75,  2819.20000,  1103.90000
    691.21,  2832.80000,  1098.60000
    691.68,  2818.40000,  1095.80000
    692.14,  2789.10000,  1095.90000
    692.60,  2794.10000,  1100.40000
    693.07,  2776.20000,  1104.90000
    693.53,  2788.00000,  1112.80000
    693.99,  2809.00000,  1106.30000
    694.45,  2807.90000,  1102.60000
    694.92,  2822.80000,  1096.90000
    695.38,  2838.80000,  1089.70000
    695.84,  2816.30000,  1092.90000
    696.31,  2801.80000,  1095.90000
    696.77,  2808.70000,  1098.90000
    697.23,  2794.80000,  1108.50000
    697.69,  2791.00000,  1104.20000
    698.16,  2785.20000,  1093.10000
    698.62,  2774.70000,  1087.70000
    699.08,  2763.00000,  1073.80000
    699.54,  2761.20000,  1076.80000
    700.01,  2749.50000,  1085.30000
    700.47,  2732.00000,  1095.30000
    700.93,  2732.90000,  1099.70000
    701.39,  2744.50000,  1104.30000
    701.86,  2767.80000,  1089.00000
    702.32,  2772.60000,  1071.80000
    702.78,  2782.20000,  1062.80000
    703.24,  2775.90000,  1068.10000
    703.71,  2777.30000,  1072.00000
    704.17,  2787.60000,  1075.80000
    704.63,  2782.20000,  1075.30000
    705.09,  2769.00000,  1076.10000
    705.56,  2789.10000,  1083.80000
    706.02,  2791.60000,  1082.10000
    706.48,  2779.70000,  1079.60000
    706.94,  2772.30000,  1079.80000
    707.40,  2753.20000,  1076.50000
    707.87,  2750.10000,  1078.30000
    708.33,  2762.60000,  1079.40000
    708.79,  2758.10000,  1068.50000
    709.25,  2734.60000,  1068.50000
    709.72,  2734.20000,  1080.40000
    710.18,  2752.50000,  1080.30000
    710.64,  2750.60000,  1078.90000
    711.10,  2749.20000,  1072.30000
    711.56,  2762.30000,  1072.00000
    712.03,  2781.30000,  1066.20000
    712.49,  2803.00000,  1069.40000
    712.95,  2828.60000,  1062.30000
    713.41,  2808.30000,  1060.60000
    713.87,  2806.20000,  1051.00000
    714.33,  2807.60000,  1054.70000
    714.80,  2793.90000,  1057.60000
    715.26,  2751.60000,  1058.90000
    715.72,  2746.50000,  1062.40000
    716.18,  2735.50000,  1071.20000
    716.64,  2754.00000,  1060.40000
    717.11,  2758.90000,  1059.30000
    717.57,  2754.20000,  1058.80000
    718.03,  2731.30000,  1057.90000
    718.49,  2737.20000,  1061.10000
    718.95,  2781.90000,  1064.50000
    719.41,  2796.70000,  1059.90000
    719.87,  2767.20000,  1064.00000
    720.34,  2761.70000,  1060.90000
    720.80,  2753.50000,  1060.00000
    721.26,  2743.60000,  1051.80000
    721.72,  2783.70000,  1044.20000
    722.18,  2770.80000,  1042.90000
    722.64,  2741.40000,  1041.70000
    723.10,  2750.80000,  1040.90000
    723.57,  2758.50000,  1040.30000
    724.03,  2772.40000,  1033.00000
    724.49,  2776.70000,  1029.20000
    724.95,  2742.20000,  1024.50000
    725.41,  2797.10000,  1026.30000
    725.87,  2839.90000,  1030.90000
    726.33,  2857.50000,  1036.30000
    726.80,  2863.00000,  1035.90000
    727.26,  2821.00000,  1038.00000
    727.72,  2745.60000,  1041.50000
    728.18,  2752.00000,  1048.50000
    728.64,  2741.80000,  1042.40000
    729.10,  2752.60000,  1041.10000
    729.56,  2771.50000,  1034.00000
    730.02,  2794.50000,  1022.30000
    730.48,  2792.60000,  1026.50000
    730.94,  2774.90000,  1035.30000
    731.41,  2761.90000,  1033.50000
    731.87,  2745.40000,  1028.20000
    732.33,  2731.50000,  1024.20000
    732.79,  2766.60000,  1017.00000
    733.25,  2770.70000,  1018.70000
    733.71,  2782.90000,  1025.40000
    734.17,  2795.80000,  1028.80000
    734.63,  2778.70000,  1015.70000
    735.09,  2754.40000,  1008.30000
    735.55,  2749.40000,  1006.80000
    736.01,  2724.80000,  1014.40000
    736.47,  2737.50000,  1014.00000
    736.94,  2747.20000,  1026.80000
    737.40,  2764.30000,  1033.40000
    737.86,  2767.40000,  1024.50000
    738.32,  2774.40000,  1023.50000
    738.78,  2779.30000,  1022.10000
    739.24,  2774.00000,  1011.50000
    739.70,  2766.50000,  1015.40000
    740.16,  2788.70000,  1018.80000
    740.62,  2802.10000,  1012.60000
    741.08,  2819.20000,  1023.50000
    741.54,  2808.70000,  1022.10000
    742.00,  2784.50000,  1032.90000
    742.46,  2752.20000,  1030.90000
    742.92,  2726.80000,  1026.60000
    743.38,  2726.00000,  1021.20000
    743.84,  2724.30000,  1024.50000
    744.30,  2741.70000,  1021.00000
    744.76,  2747.20000,  1039.40000
    745.22,  2750.60000,  1031.00000
    745.68,  2733.00000,  1028.40000
    746.14,  2727.90000,  1023.70000
    746.60,  2733.00000,  1025.90000
    747.06,  2747.50000,  1036.10000
    747.52,  2731.10000,  1036.50000
    747.98,  2746.60000,  1029.70000
    748.44,  2753.60000,  1015.50000
    748.90,  2751.00000,  1008.40000
    749.36,  2759.20000,  1014.90000
    749.82,  2773.00000,  1013.40000
    750.28,  2782.60000,  1016.40000
    750.74,  2796.90000,  1023.30000
    751.20,  2801.40000,  1019.20000
    751.66,  2784.70000,  1013.00000
    752.12,  2767.70000,  1017.10000
    752.58,  2772.40000,  1007.90000
    753.04,  2783.90000,  1016.80000
    753.50,  2807.90000,  1020.00000
    753.96,  2788.00000,  1021.80000
    754.42,  2759.40000,  1006.00000
    754.88,  2739.00000,  1001.10000
    755.34,  2735.50000,   997.60000
    755.80,  2757.90000,   994.80000
    756.26,  2775.80000,  1000.00000
    756.72,  2775.60000,  1010.10000
    757.18,  2778.50000,  1008.70000
    757.64,  2768.90000,  1017.00000
    758.10,  2737.60000,  1020.00000
    758.56,  2721.40000,  1015.50000
    759.02,  2725.00000,  1019.20000
    759.48,  2733.20000,  1021.30000
    759.94,  2756.20000,  1011.00000
    760.40,  2759.60000,  1017.20000
    760.86,  2751.00000,  1008.40000
    761.32,  2760.20000,   999.50000
    761.78,  2788.90000,  1002.10000
    762.24,  2764.50000,  1015.20000
    762.70,  2763.30000,  1021.20000
    763.15,  2741.90000,  1034.60000
    763.61,  2742.90000,  1032.20000
    764.07,  2757.10000,  1028.10000
    764.53,  2769.20000,  1016.80000
    764.99,  2771.20000,  1020.70000
    765.45,  2793.10000,  1020.80000
    765.91,  2779.10000,  1024.70000
    766.37,  2766.40000,  1023.70000
    766.83,  2738.10000,  1019.60000
    767.29,  2740.60000,  1010.10000
    767.75,  2743.80000,  1012.90000
    768.21,  2762.40000,  1010.80000
    768.66,  2768.70000,  1015.50000
    769.12,  2771.60000,  1021.80000
    769.58,  2747.90000,  1018.40000
    770.04,  2740.10000,  1013.90000
    770.50,  2715.70000,  1013.60000
    770.96,  2707.90000,  1010.50000
    771.42,  2739.90000,  1001.00000
    771.88,  2754.30000,  1009.00000
    772.34,  2762.80000,  1006.40000
    772.80,  2753.40000,  1002.70000
    773.25,  2733.90000,   999.10000
    773.71,  2726.90000,  1008.00000
    774.17,  2716.60000,   996.80000
    774.63,  2732.20000,  1001.50000
    775.09,  2746.50000,  1004.10000
    775.55,  2731.10000,  1016.50000
    776.01,  2704.00000,  1014.30000
    776.47,  2703.70000,  1019.30000
    776.92,  2683.30000,  1006.10000
    777.38,  2716.10000,  1005.30000
    777.84,  2730.30000,  1002.30000
    778.30,  2725.80000,  1008.40000
    778.76,  2714.00000,  1007.70000
    779.22,  2737.60000,  1011.00000
    779.68,  2738.30000,  1008.10000
    780.13,  2747.20000,  1010.30000
    780.59,  2734.30000,  1000.00000
    781.05,  2713.40000,  1000.70000
    781.51,  2715.70000,  1004.80000
    781.97,  2735.80000,  1011.70000
    782.43,  2746.00000,  1016.50000
    782.88,  2763.70000,  1013.80000
    783.34,  2754.20000,  1009.50000
    783.80,  2750.10000,  1014.50000
    784.26,  2767.50000,  1013.40000
    784.72,  2758.10000,  1009.90000
    785.18,  2738.60000,  1019.30000
    785.63,  2722.50000,  1024.90000
    786.09,  2737.40000,  1017.30000
    786.55,  2771.60000,  1016.70000
    787.01,  2795.50000,  1008.80000
    787.47,  2776.70000,  1002.50000
    787.92,  2742.70000,  1003.20000
    788.38,  2720.20000,  1003.20000
    788.84,  2711.80000,   992.40000
    789.30,  2722.60000,   997.90000
    789.76,  2731.90000,   999.70000
    790.21,  2732.90000,  1005.60000
    790.67,  2723.10000,  1007.50000
    791.13,  2727.80000,  1014.30000
    791.59,  2701.40000,  1020.10000
    792.05,  2702.10000,  1020.10000
    792.50,  2722.80000,  1010.50000
    792.96,  2745.00000,  1006.90000
    793.42,  2724.40000,  1005.50000
    793.88,  2737.90000,  1004.60000
    794.33,  2710.40000,  1009.90000
    794.79,  2717.00000,  1004.80000
    795.25,  2724.50000,  1004.70000
    795.71,  2733.20000,  1003.40000
    796.17,  2735.60000,   996.00000
    796.62,  2739.00000,   992.80000
    797.08,  2707.70000,   995.20000
    797.54,  2709.10000,   992.70000
    798.00,  2704.60000,  1000.40000
    798.45,  2711.90000,   999.40000
    798.91,  2722.20000,   997.90000
    799.37,  2730.90000,   994.50000
    799.83,  2728.10000,   987.90000
    800.28,  2721.60000,   980.40000
    800.74,  2718.20000,   978.60000
    801.20,  2736.90000,   980.00000
    801.66,  2712.50000,   985.70000
    802.11,  2716.80000,   997.40000
    802.57,  2729.60000,  1003.60000
    803.03,  2708.30000,  1004.70000
    803.48,  2690.90000,  1000.70000
    803.94,  2744.80000,  1002.20000
    804.40,  2761.00000,   995.00000
    804.86,  2778.20000,   999.30000
    805.31,  2769.90000,   998.80000
    805.77,  2725.80000,   993.60000
    806.23,  2683.60000,   976.30000
    806.69,  2707.10000,   979.50000
    807.14,  2716.70000,   986.20000
    807.60,  2732.00000,   990.70000
    808.06,  2731.60000,   998.70000
    808.51,  2727.50000,   998.70000
    808.97,  2703.50000,   976.50000
    809.43,  2707.80000,   962.30000
    809.88,  2712.40000,   964.10000
    810.34,  2707.50000,   962.60000
    810.80,  2722.80000,   963.50000
    811.26,  2730.10000,   973.20000
    811.71,  2709.30000,   977.20000
    812.17,  2724.90000,   984.40000
    812.63,  2721.80000,   988.40000
    813.08,  2697.40000,   987.30000
    813.54,  2705.00000,   971.70000
    814.00,  2718.00000,   961.60000
    814.45,  2722.00000,   961.50000
    814.91,  2743.70000,   966.20000
    815.37,  2730.20000,   971.00000
    815.82,  2714.10000,   975.00000
    816.28,  2704.60000,   970.50000
    816.74,  2707.20000,   963.10000
    817.19,  2681.50000,   965.30000
    817.65,  2696.40000,   968.80000
    818.11,  2713.50000,   979.00000
    818.56,  2719.90000,   978.40000
    819.02,  2712.60000,   976.70000
    819.48,  2714.80000,   973.20000
    819.93,  2670.00000,   980.10000
    820.39,  2693.10000,   980.50000
    820.84,  2724.50000,   982.90000
    821.30,  2742.90000,   985.00000
    821.76,  2748.10000,   981.00000
    822.21,  2754.20000,   977.10000
    822.67,  2728.20000,   974.60000
    823.13,  2697.80000,   971.20000
    823.58,  2729.20000,   971.30000
    824.04,  2747.30000,   986.90000
    824.49,  2742.20000,   980.00000
    824.95,  2747.50000,   977.90000
    825.41,  2751.80000,   968.90000
    825.86,  2727.60000,   967.50000
    826.32,  2761.80000,   957.70000
    826.78,  2740.10000,   961.40000
    827.23,  2712.60000,   953.20000
    827.69,  2692.20000,   954.20000
    828.14,  2695.60000,   960.30000
    828.60,  2718.30000,   955.80000
    829.06,  2744.70000,   953.20000
    829.51,  2736.10000,   947.20000
    829.97,  2740.90000,   945.20000
    830.42,  2735.20000,   941.70000
    830.88,  2718.60000,   943.70000
    831.34,  2716.50000,   936.70000
    831.79,  2735.10000,   939.60000
    832.25,  2735.80000,   939.90000
    832.70,  2731.80000,   942.80000
    833.16,  2734.10000,   951.10000
    833.61,  2723.80000,   952.20000
    834.07,  2722.10000,   948.90000
    834.53,  2724.40000,   936.50000
    834.98,  2718.80000,   924.70000
    835.44,  2699.00000,   917.40000
    835.89,  2703.30000,   928.30000
    836.35,  2717.00000,   936.10000
    836.80,  2745.00000,   951.00000
    837.26,  2733.30000,   948.60000
    837.71,  2712.50000,   946.30000
    838.17,  2703.80000,   944.20000
    838.63,  2699.90000,   940.70000
    839.08,  2699.30000,   943.30000
    839.54,  2719.70000,   939.20000
    839.99,  2711.50000,   932.90000
    840.45,  2716.40000,   938.00000
    840.90,  2737.70000,   937.90000
    841.36,  2749.80000,   935.70000
    841.81,  2741.80000,   938.70000
    842.27,  2734.10000,   929.60000
    842.72,  2717.00000,   924.20000
    843.18,  2718.90000,   924.50000
    843.63,  2698.40000,   926.20000
    844.09,  2697.30000,   927.60000
    844.55,  2681.30000,   937.60000
    845.00,  2668.70000,   944.30000
    845.46,  2677.90000,   944.90000
    845.91,  2693.70000,   944.00000
    846.37,  2707.50000,   951.30000
    846.82,  2736.10000,   950.20000
    847.28,  2747.50000,   943.70000
    847.73,  2699.00000,   935.10000
    848.19,  2723.90000,   924.40000
    848.64,  2731.20000,   915.20000
    849.10,  2750.70000,   921.40000
    849.55,  2750.60000,   927.20000
    850.01,  2739.50000,   930.80000
    850.46,  2678.30000,   939.80000
    850.92,  2704.80000,   941.90000
    851.37,  2715.70000,   937.30000
    851.83,  2724.10000,   935.30000
    852.28,  2726.70000,   930.00000
    852.73,  2710.70000,   929.60000
    853.19,  2678.20000,   935.70000
    853.64,  2685.50000,   935.40000
    854.10,  2690.90000,   933.90000
    854.55,  2695.10000,   939.10000
    855.01,  2707.50000,   931.70000
    855.46,  2682.30000,   938.70000
    855.92,  2669.50000,   947.00000
    856.37,  2669.00000,   946.00000
    856.83,  2666.90000,   936.80000
    857.28,  2690.60000,   926.30000
    857.74,  2701.10000,   911.60000
    858.19,  2697.80000,   923.50000
    858.64,  2712.40000,   940.20000
    859.10,  2699.20000,   942.80000
    859.55,  2676.60000,   936.20000
    860.01,  2734.10000,   924.30000
    860.46,  2757.90000,   912.70000
    860.92,  2754.50000,   912.00000
    861.37,  2752.50000,   909.50000
    861.83,  2743.60000,   913.50000
    862.28,  2715.70000,   923.10000
    862.73,  2738.90000,   931.00000
    863.19,  2726.50000,   931.00000
    863.64,  2705.90000,   926.40000
    864.10,  2693.90000,   916.10000
    864.55,  2709.80000,   918.60000
    865.01,  2706.40000,   926.00000
    865.46,  2722.40000,   938.10000
    865.91,  2710.80000,   941.50000
    866.37,  2704.20000,   943.10000
    866.82,  2689.60000,   943.90000
    867.28,  2681.60000,   932.60000
    867.73,  2671.40000,   930.00000
    868.18,  2698.40000,   924.40000
    868.64,  2704.40000,   920.00000
    869.09,  2735.60000,   918.40000
    869.55,  2750.00000,   923.80000
    870.00,  2736.90000,   927.50000
    870.45,  2718.70000,   937.30000
    870.91,  2687.50000,   937.90000
    871.36,  2671.00000,   930.80000
    871.81,  2700.40000,   918.00000
    872.27,  2726.80000,   911.50000
    872.72,  2722.80000,   918.00000
    873.18,  2714.50000,   926.90000
    873.63,  2686.50000,   937.20000
    874.08,  2687.00000,   933.50000
    874.54,  2706.40000,   928.00000
    874.99,  2700.60000,   926.40000
    875.44,  2671.20000,   931.10000
    875.90,  2660.70000,   928.10000
    876.35,  2656.80000,   932.10000
    876.81,  2691.30000,   932.70000
    877.26,  2720.80000,   940.20000
    877.71,  2707.30000,   943.20000
    878.17,  2685.50000,   935.40000
    878.62,  2714.70000,   932.10000
    879.07,  2737.00000,   929.50000
    879.53,  2758.10000,   928.80000
    879.98,  2738.60000,   941.80000
    880.43,  2711.00000,   947.40000
    880.89,  2699.30000,   938.30000
    881.34,  2707.30000,   942.40000
    881.79,  2728.40000,   933.40000
    882.25,  2717.80000,   935.70000
    882.70,  2687.40000,   948.30000
    883.15,  2669.80000,   950.50000
    883.61,  2683.50000,   952.90000
    884.06,  2669.10000,   950.80000
    884.51,  2695.70000,   939.60000
    884.97,  2683.40000,   936.60000
    885.42,  2694.40000,   941.30000
    885.87,  2692.40000,   950.90000
    886.32,  2701.50000,   964.40000
    886.78,  2669.80000,   964.90000
    887.23,  2685.50000,   954.40000
    887.68,  2679.00000,   944.20000
    888.14,  2693.80000,   935.80000
    888.59,  2683.00000,   937.90000
    889.04,  2667.20000,   945.60000
    889.50,  2634.60000,   952.20000
    889.95,  2655.80000,   945.20000
    890.40,  2684.00000,   953.10000
    890.85,  2709.30000,   948.80000
    891.31,  2702.90000,   945.20000
    891.76,  2698.60000,   954.60000
    892.21,  2678.00000,   954.90000
    892.67,  2686.60000,   947.20000
    893.12,  2681.40000,   953.70000
    893.57,  2688.50000,   951.30000
    894.02,  2694.40000,   949.80000
    894.48,  2715.20000,   955.80000
    894.93,  2713.80000,   953.90000
    895.38,  2719.50000,   953.60000
    895.83,  2689.80000,   959.00000
    896.29,  2690.10000,   956.30000
    896.74,  2689.20000,   959.30000
    897.19,  2710.00000,   955.40000
    897.64,  2716.70000,   952.10000
    898.10,  2719.80000,   956.90000
    898.55,  2694.70000,   965.10000
    899.00,  2689.70000,   970.90000
    899.45,  2655.70000,   981.00000
    899.91,  2647.30000,   981.90000
    900.36,  2631.10000,   981.70000
    900.81,  2662.20000,   991.30000
    901.26,  2680.90000,   986.70000
    901.72,  2711.30000,   978.60000
    902.17,  2700.90000,   982.00000
    902.62,  2705.00000,   985.80000
    903.07,  2668.60000,   985.80000
    903.52,  2681.60000,   987.10000
    903.98,  2682.60000,   985.20000
    904.43,  2694.30000,   979.50000
    904.88,  2681.40000,   988.30000
    905.33,  2683.60000,   995.10000
    905.79,  2664.50000,   994.10000
    906.24,  2683.00000,   979.40000
    906.69,  2696.70000,   980.30000
    907.14,  2696.80000,   977.60000
    907.59,  2674.10000,   972.80000
    908.05,  2659.40000,   977.40000
    908.50,  2642.80000,   983.70000
    908.95,  2656.70000,   986.20000
    909.40,  2663.50000,   999.10000
    909.85,  2659.10000,  1007.50000
    910.31,  2663.30000,  1001.10000
    910.76,  2649.80000,  1006.30000
    911.21,  2634.30000,  1012.10000
    911.66,  2633.00000,  1023.90000
    912.11,  2645.90000,  1021.00000
    912.56,  2680.60000,  1017.50000
    913.02,  2707.40000,  1014.50000
    913.47,  2698.40000,  1022.30000
    913.92,  2679.60000,  1042.00000
    914.37,  2654.90000,  1064.30000
    914.82,  2656.30000,  1083.20000
    915.27,  2670.70000,  1096.10000
    915.73,  2687.40000,  1106.20000
    916.18,  2678.30000,  1104.60000
    916.63,  2658.50000,  1116.30000
    917.08,  2623.90000,  1119.90000
    917.53,  2658.50000,  1139.20000
    917.98,  2552.50000,  1145.80000
    918.44,  2899.60000,  1156.30000
    918.89,  3085.10000,  1165.00000
    919.34,  3130.80000,  1183.20000
    919.79,  3035.20000,  1209.00000
    920.24,  2873.90000,  1234.60000
    920.69,  2560.80000,  1254.70000
    921.14,  2697.70000,  1274.30000
    921.59,  2692.60000,  1311.20000
    922.05,  2683.00000,  1363.90000
    922.50,  2669.70000,  1441.30000
    922.95,  2684.90000,  1529.20000
    923.40,  2698.70000,  1632.90000
    923.85,  2711.30000,  1749.70000
    924.30,  2719.80000,  1883.10000
    924.75,  2705.80000,  2039.00000
    925.20,  2683.00000,  2216.70000
    925.66,  2670.40000,  2404.20000
    926.11,  2666.70000,  2633.80000
    926.56,  2670.30000,  2890.00000
    927.01,  2686.20000,  3152.90000
    927.46,  2680.10000,  3435.50000
    927.91,  2651.30000,  3738.70000
    928.36,  2624.60000,  4056.60000
    928.81,  2633.70000,  4420.80000
    929.26,  2651.30000,  4791.80000
    929.71,  2685.90000,  5156.40000
    930.16,  2711.10000,  5490.00000
    930.62,  2686.10000,  5760.00000
    931.07,  2664.60000,  5980.20000
    931.52,  2665.20000,  6153.40000
    931.97,  2679.40000,  6288.60000
    932.42,  2686.70000,  6414.60000
    932.87,  2695.00000,  6554.40000
    933.32,  2675.60000,  6692.40000
    933.77,  2684.40000,  6806.90000
    934.22,  2688.30000,  6871.70000
    934.67,  2704.30000,  6884.20000
    935.12,  2694.30000,  6896.80000
    935.57,  2673.50000,  6934.80000
    936.02,  2642.80000,  6993.70000
    936.47,  2658.50000,  7004.00000
    936.93,  2642.20000,  6991.30000
    937.38,  2647.80000,  6999.90000
    937.83,  2661.00000,  7115.40000
    938.28,  2651.90000,  7329.10000
    938.73,  2643.50000,  7585.00000
    939.18,  2659.30000,  7845.10000
    939.63,  2659.80000,  8064.80000
    940.08,  2680.20000,  8245.30000
    940.53,  2703.50000,  8428.10000
    940.98,  2694.90000,  8627.90000
    941.43,  2670.60000,  8735.70000
    941.88,  2660.10000,  8803.10000
    942.33,  2663.20000,  8801.70000
    942.78,  2667.10000,  8764.30000
    943.23,  2683.90000,  8768.80000
    943.68,  2691.70000,  8783.30000
    944.13,  2700.30000,  8746.40000
    944.58,  2714.70000,  8706.00000
    945.03,  2702.70000,  8709.10000
    945.48,  2671.20000,  8786.30000
    945.93,  2658.50000,  8898.90000
    946.38,  2662.10000,  8951.60000
    946.83,  2684.90000,  8952.40000
    947.28,  2706.10000,  8936.70000
    947.73,  2707.80000,  8973.40000
    948.18,  2683.30000,  9017.40000
    948.63,  2662.20000,  9023.60000
    949.08,  2654.40000,  8993.50000
    949.53,  2637.20000,  8931.20000
    949.98,  2632.00000,  8856.30000
    950.43,  2645.30000,  8822.80000
    950.88,  2650.20000,  8714.40000
    951.33,  2665.70000,  8549.00000
    951.78,  2694.70000,  8380.60000
    952.23,  2700.70000,  8240.10000
    952.68,  2684.80000,  8155.10000
    953.13,  2679.90000,  8143.10000
    953.58,  2680.50000,  8112.90000
    954.03,  2672.80000,  8049.00000
    954.48,  2653.60000,  7996.80000
    954.93,  2648.60000,  7962.10000
    955.38,  2636.90000,  7863.10000
    955.83,  2644.80000,  7722.60000
    956.28,  2656.30000,  7518.60000
    956.73,  2669.40000,  7250.20000
    957.18,  2663.10000,  7014.50000
    957.62,  2654.80000,  6844.30000
    958.07,  2668.60000,  6635.10000
    958.52,  2660.70000,  6492.40000
    958.97,  2657.30000,  6412.00000
    959.42,  2655.90000,  6297.00000
    959.87,  2648.50000,  6195.10000
    960.32,  2647.10000,  6049.00000
    960.77,  2669.30000,  5829.60000
    961.22,  2705.40000,  5636.60000
    961.67,  2719.90000,  5460.00000
    962.12,  2699.30000,  5246.60000
    962.57,  2671.50000,  5096.50000
    963.02,  2680.20000,  4955.10000
    963.47,  2668.40000,  4860.20000
    963.92,  2690.20000,  4811.80000
    964.36,  2686.10000,  4766.60000
    964.81,  2680.90000,  4691.50000
    965.26,  2677.10000,  4633.00000
    965.71,  2690.80000,  4558.60000
    966.16,  2682.90000,  4496.70000
    966.61,  2665.70000,  4422.80000
    967.06,  2655.50000,  4331.40000
    967.51,  2670.70000,  4205.40000
    967.96,  2680.10000,  4056.50000
    968.41,  2689.60000,  3903.50000
    968.85,  2688.70000,  3756.10000
    969.30,  2679.80000,  3603.40000
    969.75,  2689.30000,  3455.10000
    970.20,  2687.10000,  3329.10000
    970.65,  2692.60000,  3210.30000
    971.10,  2681.20000,  3118.00000
    971.55,  2679.60000,  3027.60000
    972.00,  2664.20000,  2930.30000
    972.44,  2652.40000,  2844.10000
    972.89,  2668.30000,  2765.90000
    973.34,  2683.70000,  2694.00000
    973.79,  2676.10000,  2646.40000
    974.24,  2687.60000,  2615.60000
    974.69,  2661.40000,  2610.20000
    975.14,  2631.40000,  2611.70000
    975.59,  2636.60000,  2619.80000
    976.03,  2624.50000,  2630.40000
    976.48,  2624.00000,  2646.80000
    976.93,  2631.30000,  2648.20000
    977.38,  2633.50000,  2642.80000
    977.83,  2629.00000,  2621.00000
    978.28,  2640.90000,  2594.90000
    978.72,  2650.30000,  2570.70000
    979.17,  2671.60000,  2556.00000
    979.62,  2685.50000,  2551.20000
    980.07,  2691.20000,  2562.50000
    980.52,  2682.00000,  2577.80000
    980.97,  2654.40000,  2597.90000
    981.41,  2610.80000,  2606.00000
    981.86,  2588.20000,  2595.30000
    982.31,  2606.80000,  2571.50000
    982.76,  2629.90000,  2537.00000
    983.21,  2667.40000,  2472.60000
    983.66,  2673.60000,  2397.00000
    984.10,  2649.10000,  2305.50000
    984.55,  2628.80000,  2220.90000
    985.00,  2616.80000,  2149.20000
    985.45,  2594.90000,  2094.90000
    985.90,  2605.20000,  2032.90000
    986.34,  2627.30000,  1964.40000
    986.79,  2624.80000,  1904.50000
    987.24,  2634.10000,  1849.90000
    987.69,  2613.40000,  1814.40000
    988.14,  2601.80000,  1792.60000
    988.58,  2613.90000,  1757.90000
    989.03,  2628.20000,  1709.00000
    989.48,  2635.90000,  1655.40000
    989.93,  2640.00000,  1598.70000
    990.38,  2622.30000,  1565.00000
    990.82,  2621.60000,  1547.50000
    991.27,  2638.70000,  1519.30000
    991.72,  2663.60000,  1491.40000
    992.17,  2653.30000,  1466.80000
    992.61,  2661.10000,  1447.20000
    993.06,  2640.90000,  1435.30000
    993.51,  2655.10000,  1431.20000
    993.96,  2651.60000,  1423.60000
    994.41,  2640.90000,  1403.70000
    994.85,  2616.70000,  1386.10000
    995.30,  2630.40000,  1365.90000
    995.75,  2625.80000,  1345.00000
    996.20,  2668.20000,  1331.70000
    996.64,  2655.30000,  1317.40000
    997.09,  2627.20000,  1295.30000
    997.54,  2616.40000,  1275.70000
    997.99,  2607.90000,  1259.20000
    998.43,  2607.60000,  1255.00000
    998.88,  2610.90000,  1260.00000
    999.33,  2615.40000,  1255.80000
    999.77,  2632.80000,  1258.50000
   1000.22,  2645.50000,  1253.30000
   1000.67,  2658.70000,  1237.80000
   1001.12,  2666.90000,  1232.40000
   1001.56,  2640.60000,  1227.30000
   1002.01,  2630.30000,  1224.50000
   1002.46,  2637.90000,  1231.40000
   1002.91,  2618.00000,  1233.00000
   1003.35,  2627.60000,  1232.20000
   1003.80,  2617.20000,  1227.00000
   1004.25,  2617.50000,  1212.80000
   1004.69,  2617.10000,  1218.00000
   1005.14,  2605.40000,  1219.90000
   1005.59,  2611.20000,  1224.00000
   1006.04,  2652.80000,  1221.60000
   1006.48,  2668.90000,  1217.10000
   1006.93,  2702.10000,  1207.20000
   1007.38,  2686.80000,  1209.90000
   1007.82,  2641.50000,  1203.50000
   1008.27,  2621.70000,  1202.40000
   1008.72,  2609.50000,  1206.20000
   1009.16,  2599.20000,  1218.50000
   1009.61,  2613.90000,  1223.60000
   1010.06,  2615.90000,  1227.90000
   1010.50,  2644.10000,  1223.60000
   1010.95,  2672.40000,  1220.20000
   1011.40,  2675.20000,  1219.60000
   1011.85,  2651.70000,  1215.10000
   1012.29,  2644.10000,  1216.30000
   1012.74,  2613.80000,  1222.10000
   1013.19,  2610.10000,  1226.40000
   1013.63,  2653.40000,  1236.40000
   1014.08,  2677.20000,  1224.40000
   1014.53,  2675.30000,  1214.30000
   1014.97,  2664.60000,  1206.20000
   1015.42,  2627.00000,  1212.80000
   1015.86,  2590.20000,  1220.80000
   1016.31,  2612.00000,  1234.20000
   1016.76,  2639.10000,  1238.20000
   1017.20,  2635.40000,  1232.90000
   1017.65,  2615.30000,  1224.50000
   1018.10,  2605.90000,  1224.30000
   1018.54,  2583.30000,  1231.30000
   1018.99,  2604.70000,  1240.40000
   1019.44,  2623.40000,  1243.20000
   1019.88,  2626.70000,  1233.10000
   1020.33,  2628.10000,  1224.60000
   1020.78,  2635.50000,  1213.80000
   1021.22,  2643.60000,  1212.80000
   1021.67,  2643.40000,  1216.50000
   1022.11,  2637.60000,  1208.70000
   1022.56,  2633.10000,  1212.30000
   1023.01,  2622.90000,  1209.00000
   1023.45,  2605.90000,  1208.40000
   1023.90,  2609.60000,  1204.10000
   1024.34,  2593.60000,  1206.60000
   1024.79,  2597.30000,  1211.90000
   1025.24,  2613.60000,  1223.20000
   1025.68,  2604.70000,  1230.30000
   1026.13,  2606.60000,  1234.50000
   1026.58,  2605.70000,  1235.80000
   1027.02,  2625.70000,  1223.30000
   1027.47,  2630.30000,  1225.70000
   1027.91,  2632.40000,  1224.60000
   1028.36,  2603.90000,  1228.80000
   1028.80,  2596.70000,  1232.10000
   1029.25,  2578.00000,  1228.50000
   1029.70,  2589.50000,  1221.30000
   1030.14,  2585.40000,  1222.50000
   1030.59,  2580.20000,  1226.80000
   1031.03,  2576.10000,  1233.40000
   1031.48,  2588.50000,  1239.10000
   1031.93,  2624.20000,  1229.70000
   1032.37,  2655.20000,  1224.60000
   1032.82,  2659.40000,  1221.70000
   1033.26,  2665.60000,  1219.60000
   1033.71,  2635.70000,  1225.40000
   1034.15,  2619.50000,  1224.60000
   1034.60,  2610.00000,  1230.90000
   1035.05,  2618.30000,  1237.30000
   1035.49,  2601.60000,  1248.50000
   1035.94,  2606.30000,  1247.00000
   1036.38,  2578.30000,  1240.50000
   1036.83,  2567.10000,  1231.10000
   1037.27,  2555.60000,  1230.00000
   1037.72,  2565.40000,  1223.50000
   1038.16,  2667.90000,  1222.90000
   1038.61,  2739.00000,  1222.00000
   1039.05,  2746.60000,  1230.00000
   1039.50,  2734.30000,  1238.90000
   1039.95,  2677.70000,  1241.10000
   1040.39,  2608.70000,  1243.20000
   1040.84,  2617.10000,  1236.60000
   1041.28,  2611.00000,  1232.30000
   1041.73,  2595.90000,  1237.30000
   1042.17,  2606.50000,  1222.00000
   1042.62,  2609.90000,  1224.30000
   1043.06,  2624.20000,  1233.90000
   1043.51,  2606.80000,  1239.30000
   1043.95,  2613.40000,  1259.80000
   1044.40,  2601.90000,  1271.60000
   1044.84,  2586.10000,  1268.50000
   1045.29,  2580.00000,  1266.50000
   1045.73,  2591.40000,  1253.20000
   1046.18,  2577.60000,  1246.10000
   1046.62,  2574.20000,  1248.20000
   1047.07,  2565.50000,  1248.20000
   1047.51,  2546.40000,  1254.90000
   1047.96,  2580.00000,  1257.50000
   1048.40,  2624.60000,  1260.70000
   1048.85,  2638.20000,  1263.90000
   1049.29,  2626.60000,  1267.60000
   1049.74,  2585.40000,  1264.40000
   1050.18,  2546.30000,  1270.10000
   1050.63,  2554.90000,  1264.10000
   1051.07,  2566.50000,  1273.60000
   1051.52,  2588.10000,  1272.60000
   1051.96,  2576.00000,  1284.10000
   1052.41,  2556.80000,  1283.00000
   1052.85,  2550.60000,  1283.10000
   1053.30,  2549.70000,  1270.50000
   1053.74,  2552.80000,  1268.80000
   1054.18,  2566.60000,  1256.10000
   1054.63,  2547.30000,  1264.80000
   1055.07,  2540.00000,  1273.80000
   1055.52,  2540.30000,  1277.10000
   1055.96,  2536.80000,  1279.80000
   1056.41,  2534.80000,  1282.60000
   1056.85,  2529.60000,  1283.70000
   1057.30,  2527.00000,  1287.60000
   1057.74,  2523.10000,  1289.50000
   1058.18,  2522.50000,  1283.00000
   1058.63,  2496.50000,  1281.80000
   1059.07,  2491.60000,  1288.50000
   1059.52,  2501.70000,  1296.00000
   1059.96,  2507.60000,  1303.80000
   1060.41,  2507.20000,  1302.70000
   1060.85,  2518.20000,  1300.70000
   1061.30,  2506.90000,  1304.50000
   1061.74,  2498.40000,  1306.20000
   1062.18,  2495.40000,  1310.70000
   1062.63,  2473.30000,  1314.30000
   1063.07,  2469.90000,  1314.70000
   1063.52,  2473.30000,  1315.20000
   1063.96,  2495.00000,  1312.70000
   1064.40,  2496.60000,  1311.00000
   1064.85,  2488.00000,  1313.50000
   1065.29,  2467.80000,  1312.70000
   1065.74,  2455.90000,  1315.30000
   1066.18,  2427.40000,  1315.90000
