2D Measure spectrum data V5.74

<< MEASURE 1 >>
Data count = 2048
Exposure time = 30000 msec
Average = 10
Inspected time = 2020/10/25 16:52

Wave-dcm-1,Dark spec.  ,Spectrum
    108.17,  2184.00000,  1097.60000
    108.66,  2189.60000,  1093.30000
    109.15,  2199.00000,  1086.70000
    109.65,  2224.90000,  1068.30000
    110.14,  2239.30000,  1050.40000
    110.63,  2253.50000,  1023.00000
    111.13,  2271.10000,  1010.50000
    111.62,  2253.00000,  1001.00000
    112.11,  2266.80000,   990.20000
    112.60,  2285.50000,   983.90000
    113.10,  2276.00000,   975.10000
    113.59,  2298.50000,   975.60000
    114.08,  2312.80000,   990.10000
    114.58,  2294.90000,   995.70000
    115.07,  2339.50000,   992.20000
    115.56,  2356.10000,   977.10000
    116.06,  2350.80000,   961.40000
    116.55,  2362.80000,   959.40000
    117.04,  2348.90000,   973.70000
    117.53,  2324.50000,   979.60000
    118.03,  2349.00000,   992.40000
    118.52,  2353.20000,   996.90000
    119.01,  2349.00000,   999.80000
    119.51,  2441.00000,  1011.00000
    120.00,  2525.00000,  1031.50000
    120.49,  2559.10000,  1040.70000
    120.98,  2555.80000,  1063.00000
    121.48,  2475.80000,  1088.30000
    121.97,  2376.40000,  1097.60000
    122.46,  2366.70000,  1122.00000
    122.95,  2393.30000,  1142.90000
    123.45,  2430.90000,  1159.80000
    123.94,  2441.60000,  1182.80000
    124.43,  2461.80000,  1213.60000
    124.92,  2487.60000,  1237.10000
    125.42,  2478.80000,  1268.70000
    125.91,  2495.60000,  1288.00000
    126.40,  2490.60000,  1307.00000
    126.89,  2463.90000,  1329.10000
    127.39,  2448.80000,  1362.60000
    127.88,  2440.40000,  1385.60000
    128.37,  2432.70000,  1410.40000
    128.86,  2459.40000,  1430.00000
    129.35,  2466.80000,  1444.30000
    129.85,  2473.40000,  1467.70000
    130.34,  2461.20000,  1499.30000
    130.83,  2461.50000,  1521.20000
    131.32,  2465.00000,  1547.90000
    131.81,  2471.90000,  1567.60000
    132.31,  2479.20000,  1567.10000
    132.80,  2476.80000,  1571.40000
    133.29,  2456.10000,  1584.40000
    133.78,  2460.40000,  1589.40000
    134.27,  2474.10000,  1591.10000
    134.77,  2485.30000,  1597.90000
    135.26,  2513.60000,  1608.00000
    135.75,  2514.80000,  1625.80000
    136.24,  2527.20000,  1664.70000
    136.73,  2512.50000,  1681.00000
    137.23,  2523.50000,  1688.80000
    137.72,  2515.30000,  1694.80000
    138.21,  2509.50000,  1700.10000
    138.70,  2505.40000,  1699.20000
    139.19,  2542.90000,  1703.20000
    139.68,  2538.70000,  1698.50000
    140.18,  2548.50000,  1695.30000
    140.67,  2551.70000,  1704.00000
    141.16,  2546.80000,  1713.40000
    141.65,  2536.40000,  1729.80000
    142.14,  2534.90000,  1746.60000
    142.63,  2553.50000,  1767.30000
    143.13,  2553.60000,  1779.80000
    143.62,  2587.00000,  1798.70000
    144.11,  2589.70000,  1807.10000
    144.60,  2551.50000,  1821.80000
    145.09,  2540.90000,  1823.20000
    145.58,  2590.10000,  1835.10000
    146.07,  2604.60000,  1847.30000
    146.56,  2615.80000,  1857.90000
    147.06,  2604.10000,  1875.80000
    147.55,  2570.00000,  1890.70000
    148.04,  2531.50000,  1900.50000
    148.53,  2561.40000,  1917.70000
    149.02,  2541.40000,  1935.90000
    149.51,  2617.50000,  1940.70000
    150.00,  2674.50000,  1954.80000
    150.49,  2693.80000,  1971.10000
    150.99,  2688.00000,  1997.70000
    151.48,  2661.60000,  2029.30000
    151.97,  2584.30000,  2048.90000
    152.46,  2599.80000,  2063.60000
    152.95,  2587.00000,  2063.30000
    153.44,  2582.90000,  2074.50000
    153.93,  2598.00000,  2083.20000
    154.42,  2612.60000,  2099.60000
    154.91,  2596.50000,  2094.60000
    155.40,  2577.10000,  2098.00000
    155.89,  2561.20000,  2071.30000
    156.39,  2576.80000,  2064.50000
    156.88,  2559.60000,  2060.30000
    157.37,  2576.50000,  2068.90000
    157.86,  2584.50000,  2080.10000
    158.35,  2591.70000,  2108.20000
    158.84,  2605.50000,  2127.90000
    159.33,  2650.20000,  2146.60000
    159.82,  2661.20000,  2159.20000
    160.31,  2669.80000,  2166.40000
    160.80,  2697.10000,  2168.20000
    161.29,  2653.60000,  2168.80000
    161.78,  2611.90000,  2172.20000
    162.27,  2583.50000,  2164.50000
    162.76,  2586.70000,  2157.50000
    163.25,  2600.90000,  2155.10000
    163.74,  2633.90000,  2154.00000
    164.23,  2641.90000,  2154.80000
    164.72,  2657.70000,  2172.20000
    165.21,  2633.20000,  2178.40000
    165.70,  2618.60000,  2186.30000
    166.20,  2660.30000,  2192.00000
    166.69,  2683.20000,  2200.70000
    167.18,  2697.00000,  2210.00000
    167.67,  2686.00000,  2219.90000
    168.16,  2635.60000,  2227.70000
    168.65,  2622.00000,  2172.90000
    169.14,  2697.80000,  2108.70000
    169.63,  2762.00000,  2024.50000
    170.12,  2770.30000,  1993.60000
    170.61,  2734.70000,  1999.70000
    171.10,  2718.30000,  2056.20000
    171.59,  2686.30000,  2078.60000
    172.08,  2672.30000,  2099.00000
    172.57,  2678.60000,  2079.30000
    173.06,  2670.30000,  2074.20000
    173.55,  2658.50000,  2056.80000
    174.04,  2640.70000,  2065.70000
    174.53,  2634.60000,  2074.30000
    175.02,  2628.40000,  2078.50000
    175.50,  2647.30000,  2093.10000
    175.99,  2682.60000,  2073.90000
    176.48,  2712.90000,  2059.70000
    176.97,  2692.10000,  2047.40000
    177.46,  2697.00000,  2037.70000
    177.95,  2664.00000,  2042.50000
    178.44,  2636.40000,  2056.70000
    178.93,  2622.70000,  2042.70000
    179.42,  2644.40000,  2036.70000
    179.91,  2662.80000,  2027.20000
    180.40,  2682.60000,  2021.60000
    180.89,  2681.60000,  2042.10000
    181.38,  2665.30000,  2063.80000
    181.87,  2659.20000,  2088.10000
    182.36,  2654.10000,  2110.20000
    182.85,  2625.90000,  2130.00000
    183.34,  2647.60000,  2119.30000
    183.83,  2648.00000,  2112.10000
    184.32,  2641.50000,  2094.00000
    184.81,  2683.50000,  2080.00000
    185.29,  2686.10000,  2067.00000
    185.78,  2665.20000,  2050.10000
    186.27,  2674.30000,  2041.90000
    186.76,  2666.20000,  2042.10000
    187.25,  2635.70000,  2055.30000
    187.74,  2705.20000,  2058.30000
    188.23,  2734.20000,  2068.20000
    188.72,  2754.60000,  2067.50000
    189.21,  2738.10000,  2078.10000
    189.70,  2708.30000,  2096.80000
    190.19,  2668.80000,  2127.20000
    190.67,  2661.30000,  2116.50000
    191.16,  2657.40000,  2122.90000
    191.65,  2661.70000,  2120.30000
    192.14,  2647.20000,  2115.50000
    192.63,  2671.20000,  2126.40000
    193.12,  2686.00000,  2140.80000
    193.61,  2671.90000,  2126.60000
    194.10,  2686.60000,  2124.50000
    194.59,  2679.40000,  2121.40000
    195.07,  2674.70000,  2114.50000
    195.56,  2689.30000,  2111.70000
    196.05,  2675.10000,  2109.20000
    196.54,  2664.30000,  2100.10000
    197.03,  2686.00000,  2081.60000
    197.52,  2725.30000,  2064.70000
    198.01,  2736.70000,  2053.00000
    198.49,  2729.00000,  2054.30000
    198.98,  2715.20000,  2043.70000
    199.47,  2672.40000,  2038.80000
    199.96,  2658.20000,  2012.00000
    200.45,  2678.60000,  1983.30000
    200.94,  2664.20000,  1974.60000
    201.43,  2662.80000,  1978.60000
    201.91,  2656.20000,  1978.00000
    202.40,  2641.50000,  1980.20000
    202.89,  2644.90000,  1970.30000
    203.38,  2663.10000,  1966.80000
    203.87,  2665.00000,  1972.30000
    204.36,  2657.00000,  1976.70000
    204.84,  2655.30000,  1979.80000
    205.33,  2667.80000,  1972.90000
    205.82,  2686.10000,  1966.70000
    206.31,  2679.90000,  1969.10000
    206.80,  2680.30000,  1971.20000
    207.28,  2691.20000,  1974.40000
    207.77,  2701.70000,  1978.50000
    208.26,  2716.30000,  1986.60000
    208.75,  2723.40000,  1987.30000
    209.24,  2700.20000,  1994.50000
    209.72,  2710.80000,  2004.80000
    210.21,  2721.30000,  2016.50000
    210.70,  2695.50000,  2025.00000
    211.19,  2715.90000,  2030.20000
    211.68,  2727.30000,  2029.60000
    212.16,  2734.10000,  2030.60000
    212.65,  2740.70000,  2042.90000
    213.14,  2720.80000,  2072.20000
    213.63,  2702.90000,  2086.00000
    214.12,  2686.70000,  2092.50000
    214.60,  2700.30000,  2100.20000
    215.09,  2722.80000,  2110.90000
    215.58,  2721.10000,  2112.80000
    216.07,  2718.40000,  2132.30000
    216.55,  2725.80000,  2138.30000
    217.04,  2659.80000,  2148.30000
    217.53,  2653.30000,  2170.50000
    218.02,  2648.50000,  2202.40000
    218.50,  2660.50000,  2214.90000
    218.99,  2679.80000,  2239.80000
    219.48,  2708.90000,  2250.60000
    219.97,  2670.80000,  2262.80000
    220.45,  2681.50000,  2272.70000
    220.94,  2670.90000,  2286.90000
    221.43,  2700.30000,  2275.90000
    221.92,  2719.60000,  2276.60000
    222.40,  2719.50000,  2281.80000
    222.89,  2701.70000,  2299.40000
    223.38,  2720.10000,  2313.60000
    223.86,  2731.90000,  2324.10000
    224.35,  2757.60000,  2314.10000
    224.84,  2752.50000,  2301.40000
    225.33,  2734.80000,  2287.60000
    225.81,  2704.30000,  2273.00000
    226.30,  2692.80000,  2252.60000
    226.79,  2695.80000,  2229.00000
    227.27,  2685.30000,  2214.40000
    227.76,  2680.10000,  2200.90000
    228.25,  2712.60000,  2176.40000
    228.74,  2727.60000,  2150.80000
    229.22,  2749.40000,  2121.70000
    229.71,  2748.20000,  2083.00000
    230.20,  2721.40000,  2058.10000
    230.68,  2705.40000,  2040.10000
    231.17,  2691.70000,  2018.80000
    231.66,  2664.90000,  2007.60000
    232.14,  2665.00000,  1980.60000
    232.63,  2664.00000,  1941.90000
    233.12,  2684.70000,  1911.20000
    233.60,  2707.40000,  1888.50000
    234.09,  2688.10000,  1865.50000
    234.58,  2675.60000,  1855.10000
    235.06,  2684.50000,  1835.00000
    235.55,  2680.30000,  1825.90000
    236.04,  2674.90000,  1811.00000
    236.52,  2688.90000,  1799.20000
    237.01,  2675.00000,  1771.10000
    237.50,  2704.40000,  1762.80000
    237.98,  2697.50000,  1751.10000
    238.47,  2743.20000,  1747.60000
    238.96,  2750.40000,  1741.90000
    239.44,  2746.50000,  1728.40000
    239.93,  2747.90000,  1712.10000
    240.41,  2711.80000,  1702.80000
    240.90,  2644.40000,  1693.40000
    241.39,  2675.50000,  1678.70000
    241.87,  2719.50000,  1677.70000
    242.36,  2736.10000,  1685.40000
    242.85,  2773.90000,  1687.80000
    243.33,  2757.70000,  1685.10000
    243.82,  2722.80000,  1682.70000
    244.30,  2701.30000,  1671.10000
    244.79,  2708.00000,  1662.20000
    245.28,  2695.50000,  1665.10000
    245.76,  2703.30000,  1650.10000
    246.25,  2689.60000,  1650.50000
    246.74,  2705.60000,  1649.90000
    247.22,  2723.70000,  1653.30000
    247.71,  2721.20000,  1645.10000
    248.19,  2709.60000,  1637.40000
    248.68,  2709.70000,  1638.00000
    249.16,  2671.30000,  1644.30000
    249.65,  2707.00000,  1647.00000
    250.14,  2723.10000,  1642.70000
    250.62,  2709.00000,  1628.60000
    251.11,  2687.50000,  1618.00000
    251.59,  2669.30000,  1619.60000
    252.08,  2651.50000,  1624.40000
    252.57,  2668.10000,  1620.30000
    253.05,  2674.20000,  1616.10000
    253.54,  2707.30000,  1613.00000
    254.02,  2732.70000,  1621.20000
    254.51,  2735.00000,  1631.50000
    254.99,  2731.20000,  1639.20000
    255.48,  2704.60000,  1633.30000
    255.96,  2676.50000,  1632.50000
    256.45,  2700.90000,  1618.20000
    256.94,  2711.30000,  1613.90000
    257.42,  2705.10000,  1610.90000
    257.91,  2716.30000,  1610.20000
    258.39,  2716.20000,  1614.00000
    258.88,  2698.40000,  1629.80000
    259.36,  2715.90000,  1633.10000
    259.85,  2708.50000,  1641.30000
    260.33,  2716.90000,  1644.40000
    260.82,  2740.20000,  1643.90000
    261.30,  2753.90000,  1635.30000
    261.79,  2738.00000,  1634.70000
    262.27,  2718.00000,  1634.10000
    262.76,  2697.80000,  1643.80000
    263.24,  2688.00000,  1651.90000
    263.73,  2712.40000,  1649.30000
    264.22,  2709.20000,  1652.90000
    264.70,  2784.00000,  1653.70000
    265.19,  2811.30000,  1658.60000
    265.67,  2810.50000,  1669.00000
    266.16,  2775.00000,  1674.80000
    266.64,  2750.00000,  1668.00000
    267.13,  2681.40000,  1668.30000
    267.61,  2692.10000,  1674.70000
    268.10,  2712.90000,  1679.30000
    268.58,  2713.20000,  1695.90000
    269.06,  2709.00000,  1710.30000
    269.55,  2725.40000,  1712.50000
    270.03,  2732.20000,  1711.50000
    270.52,  2722.60000,  1720.30000
    271.00,  2742.90000,  1710.70000
    271.49,  2738.40000,  1717.20000
    271.97,  2736.50000,  1730.10000
    272.46,  2741.70000,  1739.70000
    272.94,  2743.00000,  1746.00000
    273.43,  2729.60000,  1756.60000
    273.91,  2714.00000,  1749.50000
    274.40,  2698.90000,  1752.70000
    274.88,  2691.40000,  1757.20000
    275.37,  2696.10000,  1768.80000
    275.85,  2693.50000,  1784.80000
    276.33,  2694.10000,  1799.30000
    276.82,  2703.90000,  1807.50000
    277.30,  2711.40000,  1806.70000
    277.79,  2710.00000,  1808.50000
    278.27,  2723.60000,  1816.80000
    278.76,  2737.20000,  1818.50000
    279.24,  2735.70000,  1825.70000
    279.73,  2731.80000,  1824.40000
    280.21,  2723.20000,  1816.10000
    280.69,  2704.80000,  1817.30000
    281.18,  2708.20000,  1817.70000
    281.66,  2727.60000,  1813.10000
    282.15,  2757.90000,  1823.50000
    282.63,  2757.50000,  1814.70000
    283.11,  2749.20000,  1809.80000
    283.60,  2752.80000,  1807.70000
    284.08,  2760.10000,  1811.70000
    284.57,  2733.40000,  1806.30000
    285.05,  2730.90000,  1802.60000
    285.53,  2708.00000,  1789.00000
    286.02,  2680.20000,  1783.10000
    286.50,  2701.40000,  1784.40000
    286.99,  2722.80000,  1781.60000
    287.47,  2711.60000,  1772.00000
    287.95,  2704.30000,  1757.50000
    288.44,  2701.00000,  1737.40000
    288.92,  2703.50000,  1722.40000
    289.41,  2713.40000,  1726.00000
    289.89,  2739.20000,  1720.80000
    290.37,  2740.20000,  1723.40000
    290.86,  2757.90000,  1724.90000
    291.34,  2721.70000,  1714.70000
    291.82,  2713.80000,  1697.70000
    292.31,  2699.20000,  1678.80000
    292.79,  2721.70000,  1650.70000
    293.28,  2720.90000,  1638.00000
    293.76,  2729.20000,  1641.30000
    294.24,  2717.70000,  1640.50000
    294.73,  2734.00000,  1640.30000
    295.21,  2740.80000,  1628.00000
    295.69,  2752.50000,  1612.60000
    296.18,  2719.10000,  1607.00000
    296.66,  2680.40000,  1601.70000
    297.14,  2679.70000,  1591.40000
    297.63,  2695.80000,  1584.70000
    298.11,  2716.30000,  1566.00000
    298.59,  2749.60000,  1542.90000
    299.08,  2753.20000,  1536.10000
    299.56,  2752.10000,  1525.30000
    300.04,  2776.60000,  1516.60000
    300.53,  2778.80000,  1516.10000
    301.01,  2773.50000,  1500.70000
    301.49,  2763.60000,  1487.50000
    301.98,  2734.30000,  1485.50000
    302.46,  2710.90000,  1467.40000
    302.94,  2716.70000,  1449.70000
    303.42,  2712.90000,  1439.50000
    303.91,  2697.10000,  1427.60000
    304.39,  2681.30000,  1424.60000
    304.87,  2686.30000,  1424.20000
    305.36,  2704.80000,  1413.10000
    305.84,  2737.60000,  1400.40000
    306.32,  2772.70000,  1387.20000
    306.81,  2754.10000,  1379.00000
    307.29,  2723.10000,  1373.40000
    307.77,  2711.70000,  1371.20000
    308.25,  2709.20000,  1372.40000
    308.74,  2728.70000,  1362.40000
    309.22,  2726.90000,  1355.50000
    309.70,  2714.00000,  1339.00000
    310.18,  2696.20000,  1336.00000
    310.67,  2704.60000,  1336.90000
    311.15,  2720.10000,  1340.30000
    311.63,  2737.80000,  1331.30000
    312.12,  2743.30000,  1325.80000
    312.60,  2722.50000,  1307.70000
    313.08,  2691.80000,  1309.60000
    313.56,  2676.60000,  1317.40000
    314.05,  2670.90000,  1315.50000
    314.53,  2692.10000,  1313.10000
    315.01,  2753.10000,  1300.10000
    315.49,  2756.70000,  1295.30000
    315.98,  2756.80000,  1291.20000
    316.46,  2723.90000,  1293.80000
    316.94,  2685.50000,  1281.90000
    317.42,  2671.30000,  1283.30000
    317.90,  2682.00000,  1274.60000
    318.39,  2666.50000,  1271.40000
    318.87,  2716.80000,  1268.20000
    319.35,  2733.00000,  1271.10000
    319.83,  2748.80000,  1262.50000
    320.32,  2761.70000,  1261.60000
    320.80,  2772.10000,  1259.20000
    321.28,  2729.90000,  1254.10000
    321.76,  2763.70000,  1258.30000
    322.24,  2758.60000,  1255.80000
    322.73,  2770.50000,  1256.10000
    323.21,  2776.10000,  1247.10000
    323.69,  2779.90000,  1237.70000
    324.17,  2727.20000,  1238.30000
    324.65,  2696.50000,  1240.00000
    325.14,  2701.00000,  1235.40000
    325.62,  2708.20000,  1243.70000
    326.10,  2757.00000,  1248.50000
    326.58,  2776.10000,  1244.90000
    327.06,  2732.40000,  1252.00000
    327.55,  2744.80000,  1256.10000
    328.03,  2767.70000,  1273.50000
    328.51,  2776.40000,  1271.50000
    328.99,  2795.30000,  1274.60000
    329.47,  2788.60000,  1260.80000
    329.95,  2713.50000,  1251.30000
    330.44,  2721.80000,  1241.90000
    330.92,  2687.80000,  1246.80000
    331.40,  2675.00000,  1233.00000
    331.88,  2668.40000,  1235.80000
    332.36,  2683.60000,  1236.80000
    332.84,  2701.00000,  1247.60000
    333.33,  2744.80000,  1251.90000
    333.81,  2747.80000,  1243.10000
    334.29,  2754.50000,  1233.50000
    334.77,  2755.10000,  1224.20000
    335.25,  2744.00000,  1217.10000
    335.73,  2757.20000,  1217.40000
    336.21,  2755.60000,  1218.40000
    336.69,  2744.10000,  1206.40000
    337.18,  2732.20000,  1199.40000
    337.66,  2710.70000,  1197.30000
    338.14,  2687.20000,  1201.00000
    338.62,  2678.70000,  1202.00000
    339.10,  2700.80000,  1203.20000
    339.58,  2745.90000,  1190.00000
    340.06,  2758.90000,  1183.40000
    340.54,  2761.30000,  1191.10000
    341.03,  2747.80000,  1195.40000
    341.51,  2716.80000,  1193.90000
    341.99,  2721.60000,  1191.70000
    342.47,  2731.50000,  1181.80000
    342.95,  2725.10000,  1171.80000
    343.43,  2720.40000,  1173.30000
    343.91,  2720.10000,  1168.60000
    344.39,  2696.50000,  1163.00000
    344.87,  2684.00000,  1168.60000
    345.35,  2695.50000,  1172.90000
    345.84,  2705.80000,  1178.30000
    346.32,  2759.70000,  1178.80000
    346.80,  2782.20000,  1179.50000
    347.28,  2784.10000,  1164.30000
    347.76,  2756.60000,  1158.60000
    348.24,  2745.90000,  1163.40000
    348.72,  2759.90000,  1170.30000
    349.20,  2784.30000,  1169.70000
    349.68,  2765.80000,  1171.20000
    350.16,  2738.10000,  1154.80000
    350.64,  2692.20000,  1151.10000
    351.12,  2674.10000,  1151.20000
    351.60,  2725.80000,  1154.00000
    352.08,  2766.90000,  1165.40000
    352.56,  2795.30000,  1167.10000
    353.04,  2794.00000,  1169.80000
    353.53,  2774.70000,  1170.00000
    354.01,  2749.30000,  1161.40000
    354.49,  2764.00000,  1154.70000
    354.97,  2759.40000,  1164.10000
    355.45,  2763.40000,  1155.70000
    355.93,  2736.00000,  1155.80000
    356.41,  2743.80000,  1162.60000
    356.89,  2724.20000,  1169.20000
    357.37,  2742.00000,  1160.80000
    357.85,  2720.50000,  1165.70000
    358.33,  2715.30000,  1153.70000
    358.81,  2684.70000,  1149.90000
    359.29,  2689.90000,  1154.20000
    359.77,  2713.30000,  1148.60000
    360.25,  2745.50000,  1146.60000
    360.73,  2746.80000,  1156.70000
    361.21,  2734.30000,  1170.30000
    361.69,  2732.30000,  1183.80000
    362.17,  2727.80000,  1186.80000
    362.65,  2747.90000,  1172.80000
    363.13,  2756.50000,  1168.20000
    363.61,  2770.10000,  1163.20000
    364.09,  2739.00000,  1164.70000
    364.57,  2732.20000,  1164.70000
    365.05,  2728.60000,  1162.90000
    365.53,  2711.50000,  1164.10000
    366.01,  2724.50000,  1165.80000
    366.49,  2759.40000,  1173.80000
    366.97,  2724.50000,  1184.70000
    367.45,  2737.60000,  1185.00000
    367.93,  2767.20000,  1178.10000
    368.41,  2752.20000,  1181.80000
    368.89,  2756.10000,  1178.90000
    369.37,  2757.10000,  1184.50000
    369.85,  2710.60000,  1180.80000
    370.33,  2731.90000,  1180.80000
    370.80,  2758.20000,  1176.50000
    371.28,  2754.00000,  1194.30000
    371.76,  2730.70000,  1204.00000
    372.24,  2711.30000,  1199.90000
    372.72,  2705.40000,  1186.40000
    373.20,  2723.20000,  1177.80000
    373.68,  2752.00000,  1170.10000
    374.16,  2772.70000,  1177.20000
    374.64,  2748.80000,  1190.30000
    375.12,  2722.20000,  1193.20000
    375.60,  2751.50000,  1196.10000
    376.08,  2728.60000,  1202.10000
    376.56,  2725.00000,  1203.30000
    377.04,  2724.90000,  1198.50000
    377.52,  2728.90000,  1200.60000
    377.99,  2719.90000,  1207.90000
    378.47,  2745.80000,  1209.80000
    378.95,  2727.70000,  1215.00000
    379.43,  2742.50000,  1211.40000
    379.91,  2745.60000,  1212.40000
    380.39,  2797.30000,  1200.10000
    380.87,  2820.10000,  1202.30000
    381.35,  2809.20000,  1201.60000
    381.83,  2784.60000,  1201.20000
    382.31,  2747.30000,  1208.00000
    382.79,  2703.10000,  1220.90000
    383.26,  2716.20000,  1217.20000
    383.74,  2716.60000,  1218.90000
    384.22,  2713.40000,  1218.40000
    384.70,  2728.90000,  1205.40000
    385.18,  2704.00000,  1206.50000
    385.66,  2711.20000,  1209.30000
    386.14,  2722.60000,  1214.60000
    386.62,  2731.90000,  1225.30000
    387.09,  2748.70000,  1226.00000
    387.57,  2765.70000,  1216.90000
    388.05,  2750.00000,  1222.20000
    388.53,  2749.20000,  1214.30000
    389.01,  2753.20000,  1216.20000
    389.49,  2770.10000,  1216.10000
    389.97,  2770.40000,  1216.40000
    390.44,  2762.90000,  1223.40000
    390.92,  2743.10000,  1229.10000
    391.40,  2720.20000,  1231.90000
    391.88,  2715.20000,  1230.20000
    392.36,  2718.80000,  1228.40000
    392.84,  2719.60000,  1224.70000
    393.32,  2735.40000,  1226.00000
    393.79,  2735.80000,  1217.00000
    394.27,  2787.90000,  1220.00000
    394.75,  2788.20000,  1217.50000
    395.23,  2780.50000,  1217.40000
    395.71,  2758.30000,  1215.70000
    396.18,  2757.50000,  1222.10000
    396.66,  2762.60000,  1223.90000
    397.14,  2801.00000,  1216.60000
    397.62,  2770.50000,  1217.90000
    398.10,  2764.60000,  1210.20000
    398.58,  2737.90000,  1216.30000
    399.05,  2744.50000,  1223.90000
    399.53,  2752.40000,  1219.10000
    400.01,  2756.10000,  1203.90000
    400.49,  2738.20000,  1204.20000
    400.97,  2723.60000,  1202.10000
    401.44,  2688.10000,  1207.10000
    401.92,  2704.00000,  1220.20000
    402.40,  2708.60000,  1209.70000
    402.88,  2741.30000,  1201.80000
    403.36,  2766.00000,  1191.00000
    403.83,  2784.80000,  1185.20000
    404.31,  2750.10000,  1181.70000
    404.79,  2749.50000,  1200.50000
    405.27,  2726.00000,  1203.90000
    405.74,  2713.10000,  1207.50000
    406.22,  2736.30000,  1194.40000
    406.70,  2753.50000,  1185.80000
    407.18,  2735.90000,  1180.60000
    407.65,  2727.00000,  1183.90000
    408.13,  2702.00000,  1180.40000
    408.61,  2708.20000,  1181.80000
    409.09,  2726.30000,  1171.30000
    409.56,  2738.50000,  1159.40000
    410.04,  2751.90000,  1154.80000
    410.52,  2744.40000,  1154.30000
    411.00,  2714.60000,  1151.80000
    411.47,  2703.00000,  1158.80000
    411.95,  2686.80000,  1165.00000
    412.43,  2699.20000,  1155.90000
    412.91,  2704.60000,  1150.40000
    413.38,  2717.20000,  1154.60000
    413.86,  2724.70000,  1152.90000
    414.34,  2721.50000,  1157.50000
    414.82,  2729.10000,  1156.30000
    415.29,  2737.90000,  1144.30000
    415.77,  2752.10000,  1131.50000
    416.25,  2747.00000,  1139.50000
    416.72,  2745.00000,  1131.90000
    417.20,  2726.50000,  1130.60000
    417.68,  2697.20000,  1120.50000
    418.16,  2693.90000,  1116.10000
    418.63,  2731.90000,  1097.60000
    419.11,  2734.50000,  1104.20000
    419.59,  2743.40000,  1100.50000
    420.06,  2708.30000,  1106.30000
    420.54,  2675.20000,  1104.80000
    421.02,  2691.30000,  1113.50000
    421.50,  2722.10000,  1097.10000
    421.97,  2734.90000,  1095.20000
    422.45,  2728.90000,  1095.10000
    422.93,  2708.10000,  1102.20000
    423.40,  2683.70000,  1108.90000
    423.88,  2686.00000,  1119.90000
    424.36,  2694.80000,  1106.00000
    424.83,  2710.50000,  1096.20000
    425.31,  2728.40000,  1098.60000
    425.79,  2775.50000,  1097.50000
    426.26,  2812.00000,  1093.90000
    426.74,  2793.60000,  1094.80000
    427.22,  2775.60000,  1088.70000
    427.69,  2757.10000,  1084.90000
    428.17,  2735.30000,  1090.80000
    428.65,  2723.90000,  1088.30000
    429.12,  2753.90000,  1095.40000
    429.60,  2737.00000,  1097.80000
    430.08,  2747.50000,  1098.70000
    430.55,  2754.60000,  1086.80000
    431.03,  2758.30000,  1072.70000
    431.50,  2755.50000,  1064.20000
    431.98,  2745.20000,  1073.40000
    432.46,  2747.50000,  1081.70000
    432.93,  2721.70000,  1092.10000
    433.41,  2701.50000,  1084.40000
    433.89,  2700.50000,  1081.60000
    434.36,  2712.00000,  1077.00000
    434.84,  2707.10000,  1082.20000
    435.31,  2730.30000,  1094.50000
    435.79,  2723.00000,  1094.10000
    436.27,  2719.30000,  1074.80000
    436.74,  2717.30000,  1068.30000
    437.22,  2725.20000,  1058.30000
    437.70,  2721.20000,  1061.30000
    438.17,  2716.90000,  1064.80000
    438.65,  2714.40000,  1059.20000
    439.12,  2719.80000,  1066.70000
    439.60,  2720.20000,  1066.30000
    440.08,  2729.70000,  1070.70000
    440.55,  2716.90000,  1073.20000
    441.03,  2723.50000,  1076.10000
    441.50,  2726.20000,  1068.00000
    441.98,  2734.70000,  1076.90000
    442.45,  2735.40000,  1060.00000
    442.93,  2737.00000,  1057.10000
    443.41,  2724.20000,  1051.40000
    443.88,  2723.20000,  1066.30000
    444.36,  2711.30000,  1070.60000
    444.83,  2704.80000,  1076.40000
    445.31,  2711.50000,  1067.30000
    445.78,  2696.30000,  1055.70000
    446.26,  2696.60000,  1061.10000
    446.74,  2691.20000,  1077.20000
    447.21,  2706.00000,  1081.40000
    447.69,  2726.30000,  1091.10000
    448.16,  2752.30000,  1082.70000
    448.64,  2734.70000,  1069.10000
    449.11,  2724.30000,  1065.30000
    449.59,  2730.20000,  1054.30000
    450.06,  2729.10000,  1059.80000
    450.54,  2723.00000,  1075.40000
    451.02,  2752.20000,  1078.30000
    451.49,  2755.70000,  1082.10000
    451.97,  2757.50000,  1072.20000
    452.44,  2757.20000,  1054.10000
    452.92,  2735.60000,  1062.30000
    453.39,  2711.00000,  1059.00000
    453.87,  2719.20000,  1064.50000
    454.34,  2724.00000,  1070.50000
    454.82,  2736.90000,  1069.10000
    455.29,  2745.60000,  1075.90000
    455.77,  2747.00000,  1086.70000
    456.24,  2720.70000,  1076.60000
    456.72,  2699.00000,  1072.20000
    457.19,  2692.30000,  1071.00000
    457.67,  2709.50000,  1065.20000
    458.14,  2735.90000,  1070.60000
    458.62,  2743.10000,  1074.40000
    459.09,  2732.90000,  1081.80000
    459.57,  2708.50000,  1085.10000
    460.04,  2704.80000,  1094.90000
    460.52,  2707.30000,  1094.70000
    460.99,  2700.40000,  1084.20000
    461.47,  2699.60000,  1064.30000
    461.94,  2677.90000,  1072.00000
    462.42,  2672.60000,  1070.20000
    462.89,  2695.30000,  1064.40000
    463.37,  2722.20000,  1064.50000
    463.84,  2730.90000,  1062.30000
    464.32,  2736.50000,  1063.00000
    464.79,  2727.80000,  1074.60000
    465.26,  2732.00000,  1074.50000
    465.74,  2721.40000,  1061.60000
    466.21,  2740.50000,  1069.80000
    466.69,  2747.50000,  1071.40000
    467.16,  2743.20000,  1076.20000
    467.64,  2726.50000,  1066.80000
    468.11,  2715.80000,  1062.80000
    468.59,  2714.40000,  1057.50000
    469.06,  2732.10000,  1063.90000
    469.54,  2758.00000,  1062.30000
    470.01,  2757.50000,  1060.60000
    470.48,  2709.70000,  1058.30000
    470.96,  2721.70000,  1076.30000
    471.43,  2749.10000,  1090.00000
    471.91,  2767.90000,  1096.00000
    472.38,  2803.10000,  1084.90000
    472.86,  2782.70000,  1073.40000
    473.33,  2723.60000,  1059.40000
    473.80,  2711.90000,  1067.80000
    474.28,  2721.00000,  1066.60000
    474.75,  2726.60000,  1078.80000
    475.23,  2764.40000,  1081.60000
    475.70,  2769.30000,  1084.10000
    476.17,  2747.80000,  1080.60000
    476.65,  2742.30000,  1084.20000
    477.12,  2747.60000,  1074.30000
    477.60,  2704.20000,  1068.70000
    478.07,  2705.10000,  1065.80000
    478.54,  2722.30000,  1060.50000
    479.02,  2735.70000,  1058.00000
    479.49,  2765.20000,  1065.50000
    479.97,  2771.40000,  1078.60000
    480.44,  2749.70000,  1080.40000
    480.91,  2719.90000,  1085.00000
    481.39,  2713.20000,  1078.30000
    481.86,  2714.10000,  1069.60000
    482.34,  2698.70000,  1066.00000
    482.81,  2708.70000,  1073.40000
    483.28,  2732.10000,  1072.00000
    483.76,  2719.80000,  1067.50000
    484.23,  2738.50000,  1064.00000
    484.70,  2722.20000,  1066.40000
    485.18,  2719.20000,  1062.80000
    485.65,  2723.20000,  1069.70000
    486.12,  2723.80000,  1082.20000
    486.60,  2707.60000,  1078.60000
    487.07,  2714.70000,  1077.30000
    487.55,  2735.30000,  1087.40000
    488.02,  2764.90000,  1074.50000
    488.49,  2768.50000,  1058.90000
    488.97,  2774.40000,  1065.70000
    489.44,  2762.50000,  1062.10000
    489.91,  2723.80000,  1060.80000
    490.39,  2715.40000,  1071.40000
    490.86,  2681.70000,  1065.20000
    491.33,  2651.50000,  1057.80000
    491.81,  2689.30000,  1060.10000
    492.28,  2729.40000,  1061.50000
    492.75,  2721.50000,  1061.80000
    493.23,  2770.00000,  1058.40000
    493.70,  2793.10000,  1062.80000
    494.17,  2785.60000,  1069.90000
    494.64,  2777.90000,  1070.60000
    495.12,  2744.70000,  1061.20000
    495.59,  2742.40000,  1050.50000
    496.06,  2773.90000,  1042.10000
    496.54,  2792.20000,  1057.40000
    497.01,  2770.10000,  1075.80000
    497.48,  2746.60000,  1084.80000
    497.96,  2723.40000,  1076.80000
    498.43,  2749.10000,  1071.40000
    498.90,  2757.40000,  1055.30000
    499.37,  2784.60000,  1054.30000
    499.85,  2761.20000,  1059.10000
    500.32,  2762.40000,  1052.40000
    500.79,  2740.90000,  1054.30000
    501.27,  2735.00000,  1065.30000
    501.74,  2726.90000,  1066.20000
    502.21,  2726.40000,  1066.70000
    502.68,  2717.80000,  1068.50000
    503.16,  2712.30000,  1055.60000
    503.63,  2697.70000,  1054.90000
    504.10,  2705.70000,  1055.10000
    504.57,  2693.80000,  1055.30000
    505.05,  2709.40000,  1064.10000
    505.52,  2735.90000,  1068.50000
    505.99,  2736.00000,  1069.30000
    506.46,  2734.10000,  1077.10000
    506.94,  2727.60000,  1074.10000
    507.41,  2705.90000,  1069.40000
    507.88,  2708.10000,  1061.70000
    508.35,  2705.40000,  1048.60000
    508.83,  2695.80000,  1044.20000
    509.30,  2728.90000,  1050.20000
    509.77,  2737.80000,  1053.40000
    510.24,  2738.70000,  1062.50000
    510.72,  2725.60000,  1058.90000
    511.19,  2709.60000,  1060.90000
    511.66,  2701.30000,  1069.00000
    512.13,  2730.60000,  1064.10000
    512.60,  2717.50000,  1055.00000
    513.08,  2717.00000,  1043.50000
    513.55,  2709.10000,  1043.50000
    514.02,  2693.10000,  1044.50000
    514.49,  2691.50000,  1058.10000
    514.97,  2696.80000,  1071.10000
    515.44,  2705.10000,  1077.70000
    515.91,  2705.40000,  1064.80000
    516.38,  2711.10000,  1060.00000
    516.85,  2677.70000,  1051.10000
    517.33,  2663.20000,  1047.80000
    517.80,  2660.50000,  1062.70000
    518.27,  2678.70000,  1071.90000
    518.74,  2721.20000,  1062.60000
    519.21,  2749.10000,  1062.10000
    519.68,  2730.10000,  1060.50000
    520.16,  2710.60000,  1049.60000
    520.63,  2699.30000,  1051.20000
    521.10,  2689.80000,  1050.70000
    521.57,  2716.10000,  1042.20000
    522.04,  2714.20000,  1045.40000
    522.52,  2714.10000,  1047.10000
    522.99,  2702.30000,  1044.80000
    523.46,  2722.40000,  1043.60000
    523.93,  2732.10000,  1046.60000
    524.40,  2761.70000,  1038.90000
    524.87,  2751.20000,  1034.60000
    525.34,  2741.20000,  1040.30000
    525.82,  2724.60000,  1040.50000
    526.29,  2727.00000,  1034.40000
    526.76,  2717.90000,  1039.20000
    527.23,  2732.40000,  1040.10000
    527.70,  2721.00000,  1034.60000
    528.17,  2718.70000,  1038.90000
    528.64,  2721.20000,  1031.50000
    529.12,  2728.60000,  1026.00000
    529.59,  2724.90000,  1029.50000
    530.06,  2723.00000,  1037.90000
    530.53,  2755.40000,  1039.20000
    531.00,  2725.40000,  1042.60000
    531.47,  2681.40000,  1045.20000
    531.94,  2673.80000,  1045.50000
    532.41,  2670.90000,  1043.80000
    532.89,  2692.90000,  1040.20000
    533.36,  2757.70000,  1032.30000
    533.83,  2745.40000,  1022.00000
    534.30,  2725.00000,  1025.90000
    534.77,  2734.30000,  1030.20000
    535.24,  2737.20000,  1044.80000
    535.71,  2734.00000,  1053.60000
    536.18,  2747.10000,  1057.30000
    536.65,  2744.50000,  1051.60000
    537.13,  2720.50000,  1043.80000
    537.60,  2701.00000,  1045.50000
    538.07,  2700.20000,  1051.50000
    538.54,  2690.90000,  1052.20000
    539.01,  2705.70000,  1057.90000
    539.48,  2744.10000,  1064.40000
    539.95,  2757.90000,  1058.80000
    540.42,  2757.80000,  1058.30000
    540.89,  2736.20000,  1063.70000
    541.36,  2711.40000,  1066.90000
    541.83,  2703.90000,  1076.00000
    542.30,  2706.50000,  1073.60000
    542.77,  2722.30000,  1063.80000
    543.25,  2744.10000,  1056.70000
    543.72,  2746.50000,  1060.30000
    544.19,  2747.60000,  1060.00000
    544.66,  2728.10000,  1069.60000
    545.13,  2714.90000,  1062.10000
    545.60,  2693.30000,  1070.80000
    546.07,  2718.50000,  1074.30000
    546.54,  2730.90000,  1079.70000
    547.01,  2736.70000,  1082.30000
    547.48,  2732.50000,  1080.70000
    547.95,  2724.20000,  1074.90000
    548.42,  2703.40000,  1074.20000
    548.89,  2733.50000,  1082.80000
    549.36,  2723.90000,  1087.50000
    549.83,  2711.80000,  1085.80000
    550.30,  2758.70000,  1081.20000
    550.77,  2761.00000,  1079.40000
    551.24,  2768.40000,  1067.60000
    551.71,  2778.50000,  1075.80000
    552.18,  2748.10000,  1076.10000
    552.65,  2694.90000,  1071.70000
    553.12,  2717.30000,  1074.70000
    553.59,  2721.10000,  1081.00000
    554.06,  2730.00000,  1073.10000
    554.53,  2742.10000,  1080.00000
    555.00,  2730.20000,  1088.40000
    555.47,  2714.30000,  1094.80000
    555.94,  2708.40000,  1097.40000
    556.41,  2701.00000,  1100.70000
    556.88,  2687.00000,  1093.60000
    557.35,  2686.90000,  1092.30000
    557.82,  2679.30000,  1089.90000
    558.29,  2691.60000,  1095.50000
    558.76,  2736.10000,  1097.50000
    559.23,  2752.40000,  1094.60000
    559.70,  2759.00000,  1092.50000
    560.17,  2744.40000,  1094.20000
    560.64,  2733.70000,  1097.20000
    561.11,  2716.20000,  1101.80000
    561.58,  2741.40000,  1102.00000
    562.05,  2731.30000,  1096.20000
    562.52,  2745.50000,  1088.70000
    562.99,  2736.20000,  1088.80000
    563.46,  2744.20000,  1099.90000
    563.93,  2731.90000,  1109.80000
    564.40,  2737.00000,  1119.80000
    564.87,  2741.90000,  1114.10000
    565.34,  2763.20000,  1105.20000
    565.81,  2747.20000,  1098.30000
    566.28,  2739.80000,  1099.20000
    566.74,  2716.40000,  1103.70000
    567.21,  2713.50000,  1105.60000
    567.68,  2727.20000,  1109.40000
    568.15,  2721.00000,  1117.70000
    568.62,  2706.30000,  1126.30000
    569.09,  2702.40000,  1124.90000
    569.56,  2698.80000,  1120.30000
    570.03,  2703.50000,  1115.40000
    570.50,  2741.60000,  1113.00000
    570.97,  2743.00000,  1108.10000
    571.44,  2733.50000,  1111.80000
    571.91,  2734.40000,  1116.40000
    572.38,  2725.90000,  1118.80000
    572.84,  2702.10000,  1125.10000
    573.31,  2715.90000,  1123.10000
    573.78,  2715.20000,  1111.50000
    574.25,  2709.90000,  1104.30000
    574.72,  2732.20000,  1104.10000
    575.19,  2729.50000,  1103.10000
    575.66,  2726.00000,  1109.50000
    576.13,  2718.90000,  1107.80000
    576.60,  2727.50000,  1105.20000
    577.07,  2750.00000,  1106.70000
    577.53,  2775.50000,  1106.90000
    578.00,  2767.00000,  1113.20000
    578.47,  2759.30000,  1121.50000
    578.94,  2728.40000,  1116.60000
    579.41,  2699.00000,  1118.60000
    579.88,  2711.40000,  1120.90000
    580.35,  2714.00000,  1127.40000
    580.82,  2721.00000,  1128.70000
    581.28,  2744.20000,  1129.70000
    581.75,  2741.20000,  1130.70000
    582.22,  2732.20000,  1126.30000
    582.69,  2737.50000,  1128.10000
    583.16,  2733.30000,  1132.50000
    583.63,  2724.30000,  1131.80000
    584.10,  2750.40000,  1122.80000
    584.56,  2767.20000,  1112.80000
    585.03,  2762.40000,  1099.10000
    585.50,  2756.40000,  1077.20000
    585.97,  2727.00000,  1154.70000
    586.44,  2713.70000,  1211.20000
    586.91,  2731.90000,  1219.20000
    587.37,  2733.40000,  1204.40000
    587.84,  2725.40000,  1148.70000
    588.31,  2717.20000,  1080.00000
    588.78,  2688.70000,  1110.40000
    589.25,  2712.80000,  1118.30000
    589.72,  2710.90000,  1112.50000
    590.18,  2727.40000,  1120.30000
    590.65,  2751.40000,  1119.60000
    591.12,  2738.30000,  1115.10000
    591.59,  2736.40000,  1115.10000
    592.06,  2725.90000,  1109.00000
    592.52,  2687.70000,  1107.50000
    592.99,  2701.50000,  1119.20000
    593.46,  2699.50000,  1128.40000
    593.93,  2659.30000,  1127.50000
    594.40,  2685.80000,  1120.90000
    594.86,  2719.60000,  1102.80000
    595.33,  2726.70000,  1114.20000
    595.80,  2738.80000,  1128.30000
    596.27,  2734.80000,  1129.40000
    596.74,  2706.10000,  1129.40000
    597.20,  2697.80000,  1124.80000
    597.67,  2718.10000,  1118.70000
    598.14,  2698.30000,  1124.50000
    598.61,  2699.20000,  1112.90000
    599.07,  2708.00000,  1099.20000
    599.54,  2703.40000,  1085.20000
    600.01,  2692.70000,  1081.50000
    600.48,  2752.40000,  1081.80000
    600.95,  2775.70000,  1091.60000
    601.41,  2783.80000,  1105.80000
    601.88,  2761.20000,  1123.20000
    602.35,  2697.50000,  1120.10000
    602.82,  2645.00000,  1111.60000
    603.28,  2664.50000,  1104.20000
    603.75,  2672.60000,  1085.10000
    604.22,  2700.90000,  1081.80000
    604.69,  2719.20000,  1076.90000
    605.15,  2723.90000,  1081.20000
    605.62,  2717.00000,  1089.10000
    606.09,  2718.30000,  1103.60000
    606.56,  2702.80000,  1096.70000
    607.02,  2701.70000,  1096.00000
    607.49,  2697.60000,  1085.40000
    607.96,  2718.20000,  1089.30000
    608.42,  2710.30000,  1094.00000
    608.89,  2767.10000,  1096.00000
    609.36,  2774.90000,  1094.60000
    609.83,  2760.50000,  1095.30000
    610.29,  2727.40000,  1093.00000
    610.76,  2704.20000,  1086.10000
    611.23,  2684.60000,  1081.90000
    611.69,  2716.30000,  1081.20000
    612.16,  2715.00000,  1078.80000
    612.63,  2719.50000,  1079.20000
    613.10,  2705.50000,  1081.50000
    613.56,  2689.40000,  1073.90000
    614.03,  2695.30000,  1075.20000
    614.50,  2697.00000,  1084.90000
    614.96,  2710.30000,  1075.50000
    615.43,  2721.00000,  1069.80000
    615.90,  2741.50000,  1062.30000
    616.36,  2741.50000,  1055.40000
    616.83,  2721.50000,  1059.70000
    617.30,  2705.90000,  1076.10000
    617.76,  2689.70000,  1066.70000
    618.23,  2674.00000,  1068.60000
    618.70,  2674.30000,  1068.90000
    619.16,  2686.40000,  1070.80000
    619.63,  2682.80000,  1064.70000
    620.10,  2686.00000,  1057.50000
    620.56,  2688.10000,  1041.60000
    621.03,  2712.30000,  1042.90000
    621.50,  2716.10000,  1056.80000
    621.96,  2727.80000,  1055.40000
    622.43,  2728.80000,  1052.00000
    622.90,  2735.30000,  1036.80000
    623.36,  2741.00000,  1034.90000
    623.83,  2737.50000,  1046.30000
    624.30,  2719.20000,  1064.90000
    624.76,  2717.30000,  1058.20000
    625.23,  2724.70000,  1054.60000
    625.70,  2740.50000,  1045.00000
    626.16,  2743.70000,  1043.40000
    626.63,  2708.10000,  1046.10000
    627.09,  2694.40000,  1056.70000
    627.56,  2710.00000,  1054.10000
    628.03,  2718.10000,  1039.60000
    628.49,  2728.60000,  1032.90000
    628.96,  2712.00000,  1029.90000
    629.43,  2706.00000,  1025.60000
    629.89,  2697.40000,  1034.10000
    630.36,  2710.70000,  1035.30000
    630.82,  2703.20000,  1035.90000
    631.29,  2698.60000,  1046.60000
    631.76,  2681.10000,  1045.80000
    632.22,  2672.70000,  1036.00000
    632.69,  2678.60000,  1037.00000
    633.15,  2709.20000,  1026.50000
    633.62,  2740.30000,  1028.50000
    634.09,  2753.90000,  1036.80000
    634.55,  2754.30000,  1026.70000
    635.02,  2722.60000,  1022.30000
    635.48,  2709.10000,  1025.60000
    635.95,  2704.20000,  1020.80000
    636.42,  2715.80000,  1015.20000
    636.88,  2703.50000,  1020.20000
    637.35,  2698.30000,  1014.40000
    637.81,  2708.00000,  1013.10000
    638.28,  2712.00000,  1015.20000
    638.74,  2728.30000,  1013.30000
    639.21,  2741.20000,  1011.40000
    639.68,  2712.30000,  1018.50000
    640.14,  2682.80000,  1018.90000
    640.61,  2691.90000,  1021.70000
    641.07,  2669.70000,  1019.50000
    641.54,  2694.50000,  1011.50000
    642.00,  2713.80000,  1008.20000
    642.47,  2716.60000,  1015.00000
    642.93,  2713.40000,  1014.80000
    643.40,  2713.50000,  1015.10000
    643.87,  2696.20000,  1011.40000
    644.33,  2710.30000,  1010.00000
    644.80,  2718.70000,  1008.30000
    645.26,  2701.80000,  1022.80000
    645.73,  2687.50000,  1025.10000
    646.19,  2681.20000,  1014.40000
    646.66,  2684.80000,  1010.60000
    647.12,  2685.60000,  1005.20000
    647.59,  2695.00000,  1007.90000
    648.05,  2707.70000,  1010.80000
    648.52,  2696.20000,  1017.70000
    648.98,  2694.30000,  1007.70000
    649.45,  2685.00000,  1005.30000
    649.91,  2668.40000,  1000.70000
    650.38,  2670.70000,  1004.80000
    650.84,  2716.20000,  1014.00000
    651.31,  2707.90000,  1020.10000
    651.77,  2707.10000,  1017.30000
    652.24,  2682.00000,  1017.40000
    652.70,  2662.60000,  1014.40000
    653.17,  2654.30000,  1010.20000
    653.63,  2683.30000,  1020.20000
    654.10,  2678.10000,  1014.60000
    654.56,  2695.50000,  1013.00000
    655.03,  2689.00000,  1014.40000
    655.49,  2695.70000,  1009.10000
    655.96,  2694.30000,  1013.20000
    656.42,  2688.00000,  1016.30000
    656.89,  2670.20000,  1021.30000
    657.35,  2721.60000,  1026.30000
    657.82,  2759.30000,  1028.10000
    658.28,  2792.50000,  1021.80000
    658.75,  2805.40000,  1020.40000
    659.21,  2768.10000,  1009.60000
    659.68,  2738.30000,  1006.30000
    660.14,  2730.10000,  1001.20000
    660.61,  2694.10000,   997.50000
    661.07,  2727.30000,   998.10000
    661.53,  2732.30000,  1009.00000
    662.00,  2744.10000,  1016.00000
    662.46,  2739.40000,  1015.50000
    662.93,  2723.70000,  1014.40000
    663.39,  2691.60000,  1009.40000
    663.86,  2725.10000,  1001.50000
    664.32,  2720.70000,   997.10000
    664.79,  2741.60000,   995.30000
    665.25,  2730.60000,   993.30000
    665.71,  2710.40000,   998.80000
    666.18,  2679.40000,   996.60000
    666.64,  2705.50000,   989.30000
    667.11,  2711.30000,   975.30000
    667.57,  2731.00000,   976.60000
    668.04,  2744.90000,   980.00000
    668.50,  2727.60000,   982.00000
    668.96,  2700.80000,   984.70000
    669.43,  2719.50000,   986.40000
    669.89,  2696.50000,   978.70000
    670.36,  2684.30000,   980.60000
    670.82,  2688.40000,   979.20000
    671.28,  2699.60000,   970.80000
    671.75,  2704.30000,   973.70000
    672.21,  2728.00000,   976.10000
    672.68,  2727.50000,   971.70000
    673.14,  2739.60000,   971.40000
    673.60,  2754.90000,   973.70000
    674.07,  2737.40000,   971.80000
    674.53,  2703.00000,   976.70000
    675.00,  2688.40000,   981.00000
    675.46,  2678.50000,   976.30000
    675.92,  2686.90000,   964.90000
    676.39,  2730.00000,   953.40000
    676.85,  2733.50000,   948.50000
    677.31,  2739.40000,   944.10000
    677.78,  2739.40000,   948.70000
    678.24,  2718.70000,   959.10000
    678.70,  2692.10000,   975.20000
    679.17,  2675.10000,   972.00000
    679.63,  2646.80000,   972.80000
    680.10,  2649.20000,   958.40000
    680.56,  2678.00000,   947.40000
    681.02,  2686.10000,   951.00000
    681.49,  2723.40000,   951.90000
    681.95,  2724.70000,   952.50000
    682.41,  2711.90000,   957.00000
    682.88,  2695.50000,   959.30000
    683.34,  2689.40000,   954.00000
    683.80,  2669.00000,   961.60000
    684.27,  2693.90000,   945.60000
    684.73,  2702.70000,   940.30000
    685.19,  2723.40000,   941.00000
    685.66,  2751.20000,   942.70000
    686.12,  2751.60000,   935.00000
    686.58,  2766.00000,   935.40000
    687.05,  2757.30000,   935.90000
    687.51,  2740.50000,   928.90000
    687.97,  2723.40000,   935.00000
    688.44,  2729.40000,   937.70000
    688.90,  2719.10000,   943.40000
    689.36,  2716.10000,   944.70000
    689.83,  2718.20000,   942.90000
    690.29,  2741.40000,   919.90000
    690.75,  2757.30000,   906.50000
    691.21,  2774.20000,   899.80000
    691.68,  2746.60000,   914.40000
    692.14,  2700.20000,   936.90000
    692.60,  2706.10000,   944.80000
    693.07,  2696.40000,   945.70000
    693.53,  2720.00000,   940.50000
    693.99,  2739.30000,   941.30000
    694.45,  2737.40000,   930.20000
    694.92,  2738.80000,   937.20000
    695.38,  2745.60000,   932.00000
    695.84,  2723.30000,   932.80000
    696.31,  2713.60000,   933.30000
    696.77,  2725.50000,   940.80000
    697.23,  2724.70000,   938.20000
    697.69,  2720.80000,   945.50000
    698.16,  2704.10000,   942.60000
    698.62,  2690.70000,   942.20000
    699.08,  2669.50000,   940.30000
    699.54,  2675.00000,   928.90000
    700.01,  2664.50000,   928.70000
    700.47,  2659.40000,   916.00000
    700.93,  2663.70000,   917.20000
    701.39,  2675.10000,   919.30000
    701.86,  2685.50000,   923.70000
    702.32,  2687.10000,   917.90000
    702.78,  2691.80000,   931.50000
    703.24,  2691.60000,   926.80000
    703.71,  2703.70000,   926.10000
    704.17,  2716.70000,   924.70000
    704.63,  2711.80000,   924.50000
    705.09,  2702.80000,   919.40000
    705.56,  2727.20000,   928.30000
    706.02,  2727.50000,   920.00000
    706.48,  2714.80000,   907.60000
    706.94,  2709.60000,   907.90000
    707.40,  2689.90000,   908.00000
    707.87,  2689.10000,   906.10000
    708.33,  2702.30000,   909.10000
    708.79,  2687.90000,   903.70000
    709.25,  2654.60000,   911.90000
    709.72,  2658.70000,   924.40000
    710.18,  2671.90000,   933.40000
    710.64,  2673.60000,   929.00000
    711.10,  2673.40000,   922.50000
    711.56,  2689.00000,   903.80000
    712.03,  2707.10000,   903.10000
    712.49,  2733.50000,   902.10000
    712.95,  2747.50000,   914.30000
    713.41,  2722.10000,   925.30000
    713.87,  2715.10000,   922.90000
    714.33,  2721.70000,   910.00000
    714.80,  2712.50000,   907.20000
    715.26,  2677.80000,   897.00000
    715.72,  2675.00000,   904.60000
    716.18,  2671.50000,   910.40000
    716.64,  2683.50000,   913.10000
    717.11,  2682.50000,   918.40000
    717.57,  2673.40000,   926.10000
    718.03,  2642.70000,   927.70000
    718.49,  2655.30000,   926.50000
    718.95,  2707.50000,   917.40000
    719.41,  2723.10000,   906.20000
    719.87,  2695.30000,   905.10000
    720.34,  2693.90000,   898.70000
    720.80,  2674.10000,   905.40000
    721.26,  2663.20000,   909.60000
    721.72,  2695.60000,   910.10000
    722.18,  2689.00000,   899.90000
    722.64,  2659.90000,   902.20000
    723.10,  2677.60000,   895.20000
    723.57,  2687.90000,   894.20000
    724.03,  2696.10000,   907.60000
    724.49,  2699.10000,   908.70000
    724.95,  2662.20000,   905.10000
    725.41,  2719.80000,   896.40000
    725.87,  2774.20000,   885.20000
    726.33,  2799.60000,   874.60000
    726.80,  2800.20000,   884.60000
    727.26,  2751.90000,   896.20000
    727.72,  2663.70000,   906.10000
    728.18,  2673.20000,   905.10000
    728.64,  2669.00000,   900.70000
    729.10,  2678.90000,   896.40000
    729.56,  2702.50000,   892.60000
    730.02,  2725.50000,   897.40000
    730.48,  2727.50000,   894.80000
    730.94,  2718.90000,   891.20000
    731.41,  2710.00000,   890.10000
    731.87,  2681.10000,   894.30000
    732.33,  2660.00000,   894.70000
    732.79,  2687.90000,   893.30000
    733.25,  2688.70000,   890.70000
    733.71,  2698.70000,   892.50000
    734.17,  2714.30000,   892.20000
    734.63,  2690.10000,   899.40000
    735.09,  2671.70000,   900.50000
    735.55,  2675.50000,   897.50000
    736.01,  2661.30000,   901.20000
    736.47,  2665.60000,   905.60000
    736.94,  2673.20000,   901.50000
    737.40,  2683.30000,   909.40000
    737.86,  2678.90000,   915.50000
    738.32,  2687.20000,   912.80000
    738.78,  2696.80000,   908.80000
    739.24,  2689.10000,   909.20000
    739.70,  2695.20000,   895.60000
    740.16,  2722.80000,   889.40000
    740.62,  2731.60000,   883.70000
    741.08,  2752.40000,   879.30000
    741.54,  2738.90000,   883.60000
    742.00,  2712.00000,   898.30000
    742.46,  2677.40000,   901.00000
    742.92,  2646.70000,   899.50000
    743.38,  2649.60000,   886.70000
    743.84,  2654.70000,   881.80000
    744.30,  2676.20000,   876.90000
    744.76,  2688.60000,   880.70000
    745.22,  2681.90000,   890.00000
    745.68,  2655.00000,   906.20000
    746.14,  2645.40000,   913.50000
    746.60,  2653.10000,   912.40000
    747.06,  2677.10000,   908.10000
    747.52,  2665.60000,   898.10000
    747.98,  2685.00000,   892.30000
    748.44,  2690.10000,   892.10000
    748.90,  2677.60000,   893.20000
    749.36,  2686.50000,   887.00000
    749.82,  2693.80000,   893.00000
    750.28,  2706.80000,   888.70000
    750.74,  2732.10000,   891.70000
    751.20,  2735.90000,   897.90000
    751.66,  2714.00000,   900.30000
    752.12,  2695.60000,   885.50000
    752.58,  2693.70000,   878.30000
    753.04,  2705.70000,   884.00000
    753.50,  2727.10000,   892.30000
    753.96,  2709.90000,   896.30000
    754.42,  2681.10000,   895.10000
    754.88,  2664.50000,   884.30000
    755.34,  2662.30000,   886.60000
    755.80,  2676.80000,   902.10000
    756.26,  2698.40000,   905.40000
    756.72,  2701.10000,   903.40000
    757.18,  2708.70000,   892.50000
    757.64,  2700.10000,   883.50000
    758.10,  2672.20000,   877.70000
    758.56,  2650.40000,   876.10000
    759.02,  2655.00000,   882.60000
    759.48,  2653.80000,   897.30000
    759.94,  2677.10000,   905.00000
    760.40,  2680.60000,   908.60000
    760.86,  2680.00000,   905.00000
    761.32,  2689.10000,   890.70000
    761.78,  2718.20000,   878.80000
    762.24,  2696.90000,   871.80000
    762.70,  2699.20000,   873.40000
    763.15,  2677.80000,   875.50000
    763.61,  2678.60000,   882.30000
    764.07,  2691.40000,   881.00000
    764.53,  2695.40000,   881.90000
    764.99,  2701.50000,   886.60000
    765.45,  2718.80000,   896.00000
    765.91,  2700.50000,   899.20000
    766.37,  2687.80000,   893.00000
    766.83,  2653.80000,   897.00000
    767.29,  2653.20000,   899.90000
    767.75,  2662.50000,   904.10000
    768.21,  2686.60000,   901.10000
    768.66,  2700.80000,   892.30000
    769.12,  2715.30000,   881.10000
    769.58,  2689.50000,   875.20000
    770.04,  2678.60000,   868.50000
    770.50,  2649.80000,   870.50000
    770.96,  2633.90000,   875.70000
    771.42,  2657.50000,   880.60000
    771.88,  2673.70000,   891.40000
    772.34,  2683.70000,   886.10000
    772.80,  2679.30000,   885.40000
    773.25,  2659.10000,   886.50000
    773.71,  2649.20000,   898.60000
    774.17,  2639.70000,   898.00000
    774.63,  2652.00000,   901.00000
    775.09,  2666.50000,   900.30000
    775.55,  2658.20000,   904.30000
    776.01,  2632.30000,   898.50000
    776.47,  2632.70000,   901.40000
    776.92,  2613.00000,   892.60000
    777.38,  2641.10000,   884.20000
    777.84,  2651.20000,   880.60000
    778.30,  2652.10000,   876.10000
    778.76,  2642.10000,   877.70000
    779.22,  2661.50000,   885.30000
    779.68,  2662.50000,   888.40000
    780.13,  2669.10000,   891.80000
    780.59,  2646.60000,   902.90000
    781.05,  2632.90000,   898.30000
    781.51,  2636.60000,   894.30000
    781.97,  2657.90000,   886.00000
    782.43,  2669.00000,   880.50000
    782.88,  2683.60000,   881.40000
    783.34,  2671.50000,   897.60000
    783.80,  2675.90000,   899.10000
    784.26,  2696.50000,   895.00000
    784.72,  2682.90000,   893.50000
    785.18,  2665.70000,   888.60000
    785.63,  2647.40000,   887.20000
    786.09,  2661.50000,   893.20000
    786.55,  2700.60000,   891.70000
    787.01,  2731.20000,   881.60000
    787.47,  2710.50000,   874.70000
    787.92,  2677.40000,   876.90000
    788.38,  2643.80000,   885.80000
    788.84,  2630.80000,   892.40000
    789.30,  2645.80000,   894.80000
    789.76,  2658.80000,   887.40000
    790.21,  2662.40000,   886.40000
    790.67,  2653.60000,   886.20000
    791.13,  2658.40000,   884.30000
    791.59,  2640.50000,   874.70000
    792.05,  2642.30000,   872.40000
    792.50,  2656.40000,   873.20000
    792.96,  2669.20000,   888.50000
    793.42,  2646.20000,   888.80000
    793.88,  2654.30000,   892.10000
    794.33,  2629.10000,   885.10000
    794.79,  2630.20000,   878.00000
    795.25,  2643.10000,   876.10000
    795.71,  2655.50000,   882.60000
    796.17,  2663.70000,   876.80000
    796.62,  2671.20000,   875.40000
    797.08,  2639.50000,   874.60000
    797.54,  2631.90000,   876.30000
    798.00,  2628.70000,   869.70000
    798.45,  2638.80000,   874.00000
    798.91,  2649.30000,   877.50000
    799.37,  2657.70000,   883.10000
    799.83,  2649.20000,   891.90000
    800.28,  2639.70000,   904.50000
    800.74,  2640.70000,   909.50000
    801.20,  2661.70000,   922.00000
    801.66,  2643.80000,   934.00000
    802.11,  2653.60000,   945.70000
    802.57,  2659.80000,   955.80000
    803.03,  2641.20000,   957.70000
    803.48,  2619.60000,   973.90000
    803.94,  2672.50000,   973.30000
    804.40,  2692.10000,   974.50000
    804.86,  2713.30000,   959.80000
    805.31,  2695.30000,   969.60000
    805.77,  2650.00000,   969.00000
    806.23,  2588.90000,   993.60000
    806.69,  2620.40000,   975.20000
    807.14,  2637.10000,   946.60000
    807.60,  2662.10000,   895.50000
    808.06,  2668.70000,   876.80000
    808.51,  2666.50000,   871.90000
    808.97,  2633.60000,   881.60000
    809.43,  2627.70000,   883.40000
    809.88,  2630.40000,   871.20000
    810.34,  2620.00000,   870.00000
    810.80,  2638.40000,   875.40000
    811.26,  2648.50000,   884.90000
    811.71,  2636.60000,   875.90000
    812.17,  2656.30000,   879.20000
    812.63,  2655.00000,   877.40000
    813.08,  2634.30000,   871.50000
    813.54,  2634.90000,   878.50000
    814.00,  2636.60000,   884.20000
    814.45,  2635.30000,   874.10000
    814.91,  2662.70000,   868.20000
    815.37,  2645.70000,   875.40000
    815.82,  2639.50000,   869.40000
    816.28,  2619.70000,   880.60000
    816.74,  2621.60000,   885.30000
    817.19,  2597.20000,   886.50000
    817.65,  2620.60000,   871.80000
    818.11,  2641.90000,   866.10000
    818.56,  2653.30000,   859.60000
    819.02,  2638.30000,   857.80000
    819.48,  2640.00000,   860.40000
    819.93,  2599.20000,   874.50000
    820.39,  2624.50000,   870.00000
    820.84,  2661.10000,   865.60000
    821.30,  2676.00000,   866.20000
    821.76,  2676.70000,   860.00000
    822.21,  2679.60000,   864.60000
    822.67,  2651.80000,   864.70000
    823.13,  2615.10000,   868.20000
    823.58,  2653.50000,   862.10000
    824.04,  2676.90000,   862.90000
    824.49,  2683.40000,   848.60000
    824.95,  2689.10000,   849.90000
    825.41,  2679.60000,   850.00000
    825.86,  2644.50000,   859.60000
    826.32,  2676.60000,   858.50000
    826.78,  2666.80000,   867.90000
    827.23,  2647.90000,   929.30000
    827.69,  2627.30000,  1002.30000
    828.14,  2619.00000,  1077.30000
    828.60,  2638.80000,  1070.20000
    829.06,  2662.00000,  1005.50000
    829.51,  2663.60000,   904.60000
    829.97,  2672.00000,   857.50000
    830.42,  2663.60000,   835.10000
    830.88,  2645.10000,   857.70000
    831.34,  2646.50000,   856.60000
    831.79,  2666.80000,   862.20000
    832.25,  2670.10000,   853.40000
    832.70,  2669.60000,   843.30000
    833.16,  2671.90000,   839.20000
    833.61,  2663.10000,   846.50000
    834.07,  2655.90000,   845.60000
    834.53,  2653.00000,   849.00000
    834.98,  2639.30000,   852.70000
    835.44,  2621.20000,   847.20000
    835.89,  2631.10000,   850.00000
    836.35,  2645.80000,   856.40000
    836.80,  2669.40000,   861.50000
    837.26,  2657.20000,   858.30000
    837.71,  2635.10000,   856.70000
    838.17,  2631.60000,   850.40000
    838.63,  2629.40000,   853.80000
    839.08,  2622.60000,   858.90000
    839.54,  2637.20000,   865.60000
    839.99,  2624.30000,   864.00000
    840.45,  2630.00000,   853.40000
    840.90,  2657.90000,   841.60000
    841.36,  2674.50000,   841.10000
    841.81,  2661.80000,   854.90000
    842.27,  2652.00000,   854.20000
    842.72,  2627.80000,   855.50000
    843.18,  2634.00000,   840.80000
    843.63,  2621.40000,   837.80000
    844.09,  2621.80000,   837.30000
    844.55,  2600.20000,   855.20000
    845.00,  2590.10000,   861.80000
    845.46,  2597.10000,   865.20000
    845.91,  2619.30000,   858.40000
    846.37,  2644.50000,   852.40000
    846.82,  2668.00000,   838.70000
    847.28,  2670.30000,   834.70000
    847.73,  2619.80000,   840.10000
    848.19,  2652.00000,   833.70000
    848.64,  2659.50000,   842.80000
    849.10,  2679.60000,   850.70000
    849.55,  2678.70000,   849.90000
    850.01,  2661.30000,   860.30000
    850.46,  2609.60000,   863.60000
    850.92,  2648.40000,   852.30000
    851.37,  2655.50000,   856.30000
    851.83,  2656.80000,   858.30000
    852.28,  2653.50000,   856.70000
    852.73,  2623.80000,   867.70000
    853.19,  2596.20000,   859.70000
    853.64,  2602.70000,   853.90000
    854.10,  2610.30000,   852.10000
    854.55,  2617.70000,   861.00000
    855.01,  2626.70000,   863.60000
    855.46,  2608.60000,   856.50000
    855.92,  2602.30000,   842.90000
    856.37,  2607.20000,   837.90000
    856.83,  2601.20000,   837.80000
    857.28,  2618.40000,   843.30000
    857.74,  2620.10000,   847.60000
    858.19,  2619.50000,   843.00000
    858.64,  2640.80000,   840.90000
    859.10,  2630.40000,   845.80000
    859.55,  2601.40000,   851.50000
    860.01,  2661.60000,   846.10000
    860.46,  2683.90000,   850.20000
    860.92,  2680.90000,   849.00000
    861.37,  2672.90000,   853.20000
    861.83,  2657.00000,   855.20000
    862.28,  2627.40000,   857.00000
    862.73,  2648.20000,   852.50000
    863.19,  2642.90000,   846.00000
    863.64,  2630.60000,   838.90000
    864.10,  2617.80000,   837.00000
    864.55,  2641.30000,   837.00000
    865.01,  2640.80000,   844.60000
    865.46,  2651.90000,   852.10000
    865.91,  2637.90000,   855.80000
    866.37,  2633.80000,   849.50000
    866.82,  2624.40000,   839.10000
    867.28,  2624.20000,   831.00000
    867.73,  2611.50000,   838.80000
    868.18,  2636.00000,   848.90000
    868.64,  2631.10000,   861.30000
    869.09,  2651.00000,   867.30000
    869.55,  2656.30000,   874.30000
    870.00,  2650.70000,   860.30000
    870.45,  2640.50000,   856.50000
    870.91,  2619.00000,   846.10000
    871.36,  2600.50000,   840.30000
    871.81,  2621.00000,   839.90000
    872.27,  2644.80000,   847.30000
    872.72,  2646.10000,   849.60000
    873.18,  2641.00000,   858.70000
    873.63,  2614.70000,   855.50000
    874.08,  2606.50000,   861.30000
    874.54,  2622.50000,   865.20000
    874.99,  2622.40000,   865.90000
    875.44,  2595.90000,   871.30000
    875.90,  2581.80000,   861.90000
    876.35,  2588.30000,   846.80000
    876.81,  2628.10000,   838.40000
    877.26,  2659.80000,   845.80000
    877.71,  2643.90000,   856.00000
    878.17,  2614.90000,   863.70000
    878.62,  2635.10000,   860.50000
    879.07,  2657.70000,   853.60000
    879.53,  2680.60000,   848.90000
    879.98,  2667.80000,   848.80000
    880.43,  2645.90000,   854.60000
    880.89,  2633.00000,   857.00000
    881.34,  2641.40000,   861.00000
    881.79,  2649.80000,   865.40000
    882.25,  2639.60000,   860.90000
    882.70,  2615.90000,   854.40000
    883.15,  2603.90000,   851.50000
    883.61,  2616.40000,   852.60000
    884.06,  2598.80000,   856.60000
    884.51,  2612.50000,   865.20000
    884.97,  2600.60000,   856.80000
    885.42,  2619.00000,   854.20000
    885.87,  2620.20000,   856.90000
    886.32,  2636.60000,   859.20000
    886.78,  2609.80000,   860.50000
    887.23,  2620.20000,   863.40000
    887.68,  2613.40000,   863.80000
    888.14,  2619.40000,   875.00000
    888.59,  2601.80000,   880.40000
    889.04,  2584.20000,   874.10000
    889.50,  2553.60000,   867.70000
    889.95,  2579.90000,   859.80000
    890.40,  2611.80000,   861.60000
    890.85,  2630.60000,   878.60000
    891.31,  2623.90000,   884.80000
    891.76,  2624.30000,   872.30000
    892.21,  2600.00000,   871.10000
    892.67,  2613.20000,   862.20000
    893.12,  2611.30000,   855.30000
    893.57,  2625.00000,   852.20000
    894.02,  2634.70000,   853.20000
    894.48,  2657.90000,   843.90000
    894.93,  2648.40000,   853.60000
    895.38,  2652.30000,   857.00000
    895.83,  2620.80000,   866.60000
    896.29,  2616.10000,   870.60000
    896.74,  2606.70000,   877.40000
    897.19,  2622.70000,   877.60000
    897.64,  2634.60000,   873.80000
    898.10,  2648.40000,   870.30000
    898.55,  2625.20000,   879.50000
    899.00,  2618.90000,   886.90000
    899.45,  2578.60000,   894.30000
    899.91,  2562.80000,   902.00000
    900.36,  2546.70000,   902.30000
    900.81,  2586.10000,   893.10000
    901.26,  2608.50000,   884.30000
    901.72,  2634.50000,   880.10000
    902.17,  2625.00000,   877.60000
    902.62,  2628.50000,   882.10000
    903.07,  2593.20000,   889.00000
    903.52,  2607.90000,   879.30000
    903.98,  2608.80000,   880.60000
    904.43,  2616.30000,   884.30000
    904.88,  2603.40000,   890.80000
    905.33,  2612.10000,   889.80000
    905.79,  2594.50000,   895.50000
    906.24,  2606.30000,   885.00000
    906.69,  2623.40000,   889.60000
    907.14,  2625.20000,   888.90000
    907.59,  2595.80000,   891.90000
    908.05,  2582.00000,   893.20000
    908.50,  2557.80000,   906.30000
    908.95,  2566.00000,   907.50000
    909.40,  2580.50000,   910.20000
    909.85,  2577.10000,   904.80000
    910.31,  2586.10000,   901.80000
    910.76,  2577.80000,   905.70000
    911.21,  2556.60000,   921.50000
    911.66,  2555.20000,   925.60000
    912.11,  2556.20000,   920.50000
    912.56,  2583.30000,   915.50000
    913.02,  2616.20000,   908.60000
    913.47,  2611.90000,   909.80000
    913.92,  2601.60000,   919.60000
    914.37,  2585.80000,   929.50000
    914.82,  2585.40000,   934.70000
    915.27,  2603.40000,   945.40000
    915.73,  2626.30000,   948.30000
    916.18,  2613.30000,   953.40000
    916.63,  2595.60000,   964.80000
    917.08,  2556.80000,   977.80000
    917.53,  2590.50000,   987.30000
    917.98,  2477.80000,   999.60000
    918.44,  2823.20000,  1011.70000
    918.89,  3003.80000,  1022.20000
    919.34,  3053.30000,  1035.60000
    919.79,  2960.80000,  1043.30000
    920.24,  2803.40000,  1053.70000
    920.69,  2487.80000,  1071.10000
    921.14,  2625.70000,  1085.80000
    921.59,  2615.10000,  1114.20000
    922.05,  2608.50000,  1140.60000
    922.50,  2594.80000,  1182.60000
    922.95,  2610.70000,  1229.90000
    923.40,  2627.70000,  1288.40000
    923.85,  2643.10000,  1338.20000
    924.30,  2651.70000,  1408.60000
    924.75,  2645.60000,  1493.80000
    925.20,  2615.70000,  1631.20000
    925.66,  2597.70000,  1790.40000
    926.11,  2590.80000,  1991.80000
    926.56,  2594.10000,  2201.90000
    927.01,  2613.90000,  2428.40000
    927.46,  2609.40000,  2682.60000
    927.91,  2581.50000,  2964.00000
    928.36,  2554.30000,  3248.50000
    928.81,  2560.70000,  3540.00000
    929.26,  2570.10000,  3832.70000
    929.71,  2603.20000,  4090.20000
    930.16,  2625.30000,  4363.20000
    930.62,  2606.40000,  4624.00000
    931.07,  2597.40000,  4853.10000
    931.52,  2601.40000,  5043.60000
    931.97,  2612.90000,  5217.10000
    932.42,  2619.10000,  5371.90000
    932.87,  2625.30000,  5560.00000
    933.32,  2597.70000,  5798.40000
    933.77,  2613.50000,  6058.10000
    934.22,  2609.50000,  6330.90000
    934.67,  2632.70000,  6586.10000
    935.12,  2623.40000,  6811.40000
    935.57,  2601.90000,  6936.40000
    936.02,  2568.60000,  6974.40000
    936.47,  2589.10000,  6959.40000
    936.93,  2569.10000,  6956.10000
    937.38,  2574.40000,  6957.80000
    937.83,  2586.60000,  6993.10000
    938.28,  2581.80000,  7035.70000
    938.73,  2574.70000,  7089.50000
    939.18,  2598.20000,  7175.80000
    939.63,  2597.20000,  7267.50000
    940.08,  2604.70000,  7369.20000
    940.53,  2626.70000,  7477.80000
    940.98,  2621.40000,  7603.90000
    941.43,  2594.00000,  7761.30000
    941.88,  2588.90000,  7863.00000
    942.33,  2598.30000,  7896.70000
    942.78,  2594.80000,  7933.10000
    943.23,  2615.40000,  7981.50000
    943.68,  2617.90000,  8061.40000
    944.13,  2620.70000,  8188.50000
    944.58,  2642.90000,  8254.00000
    945.03,  2640.00000,  8287.60000
    945.48,  2603.10000,  8278.50000
    945.93,  2596.80000,  8298.30000
    946.38,  2593.80000,  8379.00000
    946.83,  2612.10000,  8527.10000
    947.28,  2631.50000,  8622.00000
    947.73,  2626.60000,  8678.50000
    948.18,  2602.40000,  8678.20000
    948.63,  2591.50000,  8655.30000
    949.08,  2590.30000,  8650.60000
    949.53,  2573.60000,  8685.60000
    949.98,  2561.10000,  8658.70000
    950.43,  2569.70000,  8621.40000
    950.88,  2578.80000,  8586.30000
    951.33,  2595.40000,  8463.80000
    951.78,  2619.40000,  8318.60000
    952.23,  2618.70000,  8206.50000
    952.68,  2605.00000,  8110.10000
    953.13,  2603.10000,  8020.20000
    953.58,  2606.70000,  7899.90000
    954.03,  2597.50000,  7744.10000
    954.48,  2585.40000,  7599.20000
    954.93,  2586.50000,  7527.80000
    955.38,  2577.80000,  7485.50000
    955.83,  2581.90000,  7402.90000
    956.28,  2586.80000,  7288.10000
    956.73,  2594.10000,  7189.10000
    957.18,  2596.60000,  7110.10000
    957.62,  2591.20000,  7080.10000
    958.07,  2599.60000,  7015.90000
    958.52,  2587.30000,  6862.00000
    958.97,  2579.80000,  6682.00000
    959.42,  2578.20000,  6475.00000
    959.87,  2574.80000,  6276.30000
    960.32,  2580.00000,  6090.40000
    960.77,  2612.30000,  5890.20000
    961.22,  2645.90000,  5682.30000
    961.67,  2662.30000,  5499.50000
    962.12,  2637.40000,  5343.40000
    962.57,  2607.30000,  5201.10000
    963.02,  2600.00000,  5082.20000
    963.47,  2585.60000,  4935.00000
    963.92,  2608.30000,  4796.50000
    964.36,  2615.20000,  4689.10000
    964.81,  2612.50000,  4605.60000
    965.26,  2610.30000,  4538.80000
    965.71,  2609.20000,  4492.70000
    966.16,  2600.20000,  4437.70000
    966.61,  2588.70000,  4367.90000
    967.06,  2582.00000,  4302.80000
    967.51,  2601.00000,  4205.20000
    967.96,  2610.20000,  4085.10000
    968.41,  2615.70000,  3937.80000
    968.85,  2621.40000,  3792.00000
    969.30,  2604.70000,  3659.70000
    969.75,  2620.10000,  3516.20000
    970.20,  2624.60000,  3363.70000
    970.65,  2630.80000,  3218.50000
    971.10,  2614.30000,  3091.90000
    971.55,  2611.60000,  2980.30000
    972.00,  2594.50000,  2895.80000
    972.44,  2584.80000,  2801.80000
    972.89,  2600.10000,  2707.00000
    973.34,  2619.00000,  2616.80000
    973.79,  2618.10000,  2545.80000
    974.24,  2629.20000,  2480.90000
    974.69,  2613.50000,  2418.20000
    975.14,  2574.30000,  2363.20000
    975.59,  2572.40000,  2321.90000
    976.03,  2556.80000,  2290.40000
    976.48,  2549.80000,  2281.30000
    976.93,  2556.20000,  2286.00000
    977.38,  2565.00000,  2291.70000
    977.83,  2557.30000,  2314.60000
    978.28,  2568.20000,  2332.10000
    978.72,  2576.90000,  2336.10000
    979.17,  2592.80000,  2320.90000
    979.62,  2611.70000,  2300.90000
    980.07,  2623.70000,  2267.10000
    980.52,  2610.40000,  2254.90000
    980.97,  2587.00000,  2241.70000
    981.41,  2539.80000,  2238.90000
    981.86,  2518.90000,  2226.10000
    982.31,  2542.80000,  2207.90000
    982.76,  2565.90000,  2170.10000
    983.21,  2600.20000,  2118.90000
    983.66,  2609.00000,  2063.20000
    984.10,  2578.80000,  2009.90000
    984.55,  2557.70000,  1973.50000
    985.00,  2551.50000,  1941.00000
    985.45,  2527.60000,  1908.40000
    985.90,  2542.50000,  1855.30000
    986.34,  2565.80000,  1796.00000
    986.79,  2557.60000,  1742.20000
    987.24,  2557.20000,  1691.80000
    987.69,  2534.30000,  1648.30000
    988.14,  2531.20000,  1590.60000
    988.58,  2545.90000,  1538.40000
    989.03,  2567.90000,  1481.50000
    989.48,  2569.80000,  1440.40000
    989.93,  2571.20000,  1389.80000
    990.38,  2546.70000,  1362.30000
    990.82,  2556.60000,  1332.20000
    991.27,  2568.20000,  1317.90000
    991.72,  2593.20000,  1298.50000
    992.17,  2578.50000,  1280.50000
    992.61,  2582.80000,  1258.60000
    993.06,  2559.00000,  1241.70000
    993.51,  2580.40000,  1222.10000
    993.96,  2584.50000,  1198.90000
    994.41,  2575.70000,  1174.30000
    994.85,  2545.50000,  1164.50000
    995.30,  2557.70000,  1154.90000
    995.75,  2559.30000,  1137.80000
    996.20,  2602.90000,  1122.00000
    996.64,  2590.40000,  1102.50000
    997.09,  2558.00000,  1073.80000
    997.54,  2540.10000,  1065.40000
    997.99,  2534.10000,  1054.50000
    998.43,  2538.50000,  1041.90000
    998.88,  2542.30000,  1036.30000
    999.33,  2541.10000,  1031.70000
    999.77,  2565.60000,  1021.20000
   1000.22,  2584.00000,  1021.30000
   1000.67,  2598.60000,  1015.80000
   1001.12,  2602.50000,  1012.30000
   1001.56,  2569.60000,  1003.40000
   1002.01,  2544.20000,  1009.90000
   1002.46,  2556.80000,  1015.60000
   1002.91,  2541.40000,  1015.20000
   1003.35,  2562.50000,   998.60000
   1003.80,  2557.40000,   989.90000
   1004.25,  2559.10000,   980.90000
   1004.69,  2560.20000,   978.40000
   1005.14,  2549.80000,   982.30000
   1005.59,  2544.60000,   988.40000
   1006.04,  2570.40000,   987.60000
   1006.48,  2585.00000,   985.10000
   1006.93,  2608.50000,   997.90000
   1007.38,  2604.60000,   988.40000
   1007.82,  2567.10000,   984.90000
   1008.27,  2541.10000,   990.10000
   1008.72,  2528.40000,   986.30000
   1009.16,  2532.90000,   976.50000
   1009.61,  2541.70000,   977.20000
   1010.06,  2543.80000,   975.80000
   1010.50,  2575.70000,   965.40000
   1010.95,  2599.70000,   962.40000
   1011.40,  2603.90000,   966.80000
   1011.85,  2579.50000,   974.60000
   1012.29,  2567.40000,   977.00000
   1012.74,  2540.30000,   978.20000
   1013.19,  2542.80000,   970.50000
   1013.63,  2577.70000,   977.00000
   1014.08,  2597.30000,   980.20000
   1014.53,  2590.90000,   979.20000
   1014.97,  2581.40000,   972.80000
   1015.42,  2565.80000,   952.60000
   1015.86,  2534.50000,   955.20000
   1016.31,  2552.80000,   962.90000
   1016.76,  2575.10000,   963.70000
   1017.20,  2553.30000,   974.00000
   1017.65,  2527.20000,   976.20000
   1018.10,  2528.00000,   971.20000
   1018.54,  2513.60000,   969.60000
   1018.99,  2549.80000,   963.50000
   1019.44,  2564.50000,   959.60000
   1019.88,  2551.10000,   971.40000
   1020.33,  2539.90000,   975.20000
   1020.78,  2548.20000,   973.40000
   1021.22,  2556.80000,   968.70000
   1021.67,  2566.30000,   974.20000
   1022.11,  2563.00000,   964.10000
   1022.56,  2561.40000,   964.40000
   1023.01,  2548.60000,   957.10000
   1023.45,  2533.70000,   960.60000
   1023.90,  2538.60000,   957.40000
   1024.34,  2523.40000,   964.70000
   1024.79,  2527.80000,   960.40000
   1025.24,  2544.10000,   966.20000
   1025.68,  2533.40000,   964.80000
   1026.13,  2528.00000,   976.10000
   1026.58,  2537.30000,   970.80000
   1027.02,  2548.00000,   971.50000
   1027.47,  2558.80000,   964.30000
   1027.91,  2562.20000,   967.70000
   1028.36,  2533.60000,   970.70000
   1028.80,  2526.10000,   973.40000
   1029.25,  2511.20000,   982.30000
   1029.70,  2513.70000,   986.40000
   1030.14,  2519.00000,   978.10000
   1030.59,  2520.90000,   967.20000
   1031.03,  2522.40000,   962.00000
   1031.48,  2536.10000,   955.90000
   1031.93,  2560.40000,   959.00000
   1032.37,  2583.30000,   968.70000
   1032.82,  2578.20000,   979.50000
   1033.26,  2581.80000,   981.70000
   1033.71,  2562.10000,   981.60000
   1034.15,  2547.90000,   979.70000
   1034.60,  2550.50000,   974.90000
   1035.05,  2566.10000,   980.60000
   1035.49,  2542.10000,   986.20000
   1035.94,  2546.90000,   978.30000
   1036.38,  2518.40000,   978.00000
   1036.83,  2495.90000,   974.20000
   1037.27,  2486.10000,   972.40000
   1037.72,  2488.10000,   981.20000
   1038.16,  2580.10000,   992.80000
   1038.61,  2658.00000,   990.40000
   1039.05,  2670.20000,   990.80000
   1039.50,  2652.30000,   985.80000
   1039.95,  2590.10000,   984.50000
   1040.39,  2524.50000,   984.40000
   1040.84,  2535.50000,   991.60000
   1041.28,  2539.90000,   987.70000
   1041.73,  2535.30000,   988.60000
   1042.17,  2537.10000,   987.40000
   1042.62,  2530.50000,   994.90000
   1043.06,  2540.50000,   999.30000
   1043.51,  2523.00000,   996.20000
   1043.95,  2541.20000,   987.80000
   1044.40,  2538.80000,   986.90000
   1044.84,  2525.90000,   983.70000
   1045.29,  2512.80000,   993.20000
   1045.73,  2514.50000,   998.80000
   1046.18,  2504.20000,   992.50000
   1046.62,  2507.60000,   992.40000
   1047.07,  2504.70000,   989.00000
   1047.51,  2487.10000,   989.20000
   1047.96,  2513.90000,   993.20000
   1048.40,  2561.20000,   986.70000
   1048.85,  2579.90000,   987.80000
   1049.29,  2566.10000,   998.40000
   1049.74,  2524.90000,  1002.60000
   1050.18,  2482.50000,  1006.40000
   1050.63,  2484.80000,  1008.70000
   1051.07,  2498.60000,  1001.70000
   1051.52,  2514.00000,  1000.70000
   1051.96,  2500.60000,   999.90000
   1052.41,  2486.00000,  1003.10000
   1052.85,  2484.10000,  1007.20000
   1053.30,  2484.90000,  1008.40000
   1053.74,  2490.10000,  1008.30000
   1054.18,  2498.80000,  1003.20000
   1054.63,  2480.90000,   995.50000
   1055.07,  2472.80000,  1002.90000
   1055.52,  2467.80000,  1001.40000
   1055.96,  2465.70000,  1004.80000
   1056.41,  2460.90000,  1011.50000
   1056.85,  2457.40000,  1005.90000
   1057.30,  2460.70000,  1004.30000
   1057.74,  2457.70000,  1003.70000
   1058.18,  2457.10000,   995.90000
   1058.63,  2429.60000,  1000.40000
   1059.07,  2424.70000,  1004.80000
   1059.52,  2437.40000,  1003.60000
   1059.96,  2443.80000,  1014.00000
   1060.41,  2438.70000,  1017.00000
   1060.85,  2445.90000,  1019.90000
   1061.30,  2429.00000,  1030.10000
   1061.74,  2431.00000,  1028.80000
   1062.18,  2438.50000,  1021.00000
   1062.63,  2417.70000,  1021.50000
   1063.07,  2406.50000,  1025.00000
   1063.52,  2403.50000,  1027.80000
   1063.96,  2419.50000,  1030.60000
   1064.40,  2423.10000,  1030.90000
   1064.85,  2416.10000,  1035.90000
   1065.29,  2400.10000,  1032.60000
   1065.74,  2388.00000,  1033.50000
   1066.18,  2362.10000,  1029.70000
