*RAS_DATA_START
*RAS_HEADER_START
*DISP_FMT_X "%.2f"
*DISP_FMT_Y "%.0f"
*DISP_FULLSCALE "15918.0000000000"
*DISP_LINE_COLOR "255.0000000000"
*DISP_LINE_STYLE "0.0000000000"
*DISP_LINE_WIDTH "0.2500000000"
*DISP_NOTE "測定データ-12"
*DISP_OFFSET_Y "0.0000000000"
*DISP_PEAKSEARCH_UNIT_Y "cps"
*DISP_RANGE_BOTTOM "0.0000000000"
*DISP_RANGE_LEFT "20.0000000000"
*DISP_RANGE_LOGCUTOFF "0.0100000000"
*DISP_RANGE_RIGHT "70.0000000000"
*DISP_RANGE_TOP "15918.0000000000"
*DISP_SCALE_MODE_Y "0.0000000000"
*DISP_TAB_NAME "2θ/θ"
*DISP_TITLE_Y "強度"
*DISP_UNIT_Y "cps"
*DISP_WINDOW_NAME "MSG_MACROENGINE"
*FILE_COMMENT " "
*FILE_MD5 ""
*FILE_MEMO " "
*FILE_OPERATOR "Administrator"
*FILE_SAMPLE " "
*FILE_TYPE "RAS_RAW"
*FILE_USERGROUP "システムマネージャ"
*FILE_VERSION "1.0000000000"
*HW_ATTACHMENT_ID "ATT0025"
*HW_ATTACHMENT_NAME "標準|Standard"
*HW_COUNTER_ID-0 "CUT0025"
*HW_COUNTER_ID-1 "CUT0020"
*HW_COUNTER_ID-2 "CUT0020"
*HW_COUNTER_ID-3 "CSL0021"
*HW_COUNTER_ID-4 "CMC0021"
*HW_COUNTER_NAME-0 "D/teX Ultra|D/teX Ultra"
*HW_COUNTER_NAME-1 "None|None"
*HW_COUNTER_NAME-2 "None|None"
*HW_COUNTER_NAME-3 "BBM|BBM"
*HW_COUNTER_NAME-4 "検出器モノクロメータ|Detector monochromator"
*HW_COUNTER_SELECT_NAME "D/teX Ultra|D/teX Ultra"
*HW_GONIOMETER_ID "GON0023"
*HW_GONIOMETER_NAME "SmartLab|SmartLab"
*HW_GONIOMETER_RADIUS-0 "90.0"
*HW_GONIOMETER_RADIUS-1 "114.0"
*HW_GONIOMETER_RADIUS-2 "190.0"
*HW_GONIOMETER_RADIUS-3 "300.0"
*HW_GONIOMETER_RADIUS-4 "187.0"
*HW_GONIOMETER_RADIUS-5 "300.0"
*HW_GONIOMETER_RADIUS-6 "113.0"
*HW_GONIOMETER_RADIUS-7 "331.0"
*HW_I_OPT_ID-0 "CBO0021"
*HW_I_OPT_ID-1 "ICR0023"
*HW_I_OPT_ID-2 "ISL0021"
*HW_I_OPT_ID-3 "ISO0021"
*HW_I_OPT_ID-4 "IAD0021"
*HW_I_OPT_ID-5 "IPR0001"
*HW_I_OPT_NAME-0 "CBOユニット|CBO unit"
*HW_I_OPT_NAME-1 "標準入射光学ユニット|Standard incident optical unit"
*HW_I_OPT_NAME-2 "標準入射スリットボックス|Standard incident slit box"
*HW_I_OPT_NAME-3 "入射平行スリット|Incident parallel slit"
*HW_I_OPT_NAME-4 "長手制限スリット|Length limiting slit"
*HW_I_OPT_NAME-5 "None|None"
*HW_R_ATTENUATER_AUTOMODE "0"
*HW_R_OPT_ID-0 "RSS0021"
*HW_R_OPT_ID-1 "RCR0023"
*HW_R_OPT_ID-2 "RSO0021"
*HW_R_OPT_ID-3 "RRS0021"
*HW_R_OPT_ID-4 "ATN0021"
*HW_R_OPT_ID-5 "RFL0021"
*HW_R_OPT_ID-6 "RAD0021"
*HW_R_OPT_NAME-0 "標準受光スリットボックス1|Standard receiving slit box # 1"
*HW_R_OPT_NAME-1 "標準受光光学ユニット1|Standard receiving unit # 1"
*HW_R_OPT_NAME-2 "標準受光光学ユニット2|Standard receiving optical unit # 2"
*HW_R_OPT_NAME-3 "標準受光スリットボックス2|Standard receiving slit box # 2"
*HW_R_OPT_NAME-4 "標準アッテネータ|Standard Attenuator"
*HW_R_OPT_NAME-5 "Cu Kβ|Cu K-beta"
*HW_R_OPT_NAME-6 "調整用受光スリット|Alignment receiving slit"
*HW_SAMPLE_HOLDER_ID "SMP0023"
*HW_SAMPLE_HOLDER_NAME "標準Zステージ|Standard Z stage"
*HW_XG_CURRENT_MAX "50"
*HW_XG_CURRENT_MIN "2"
*HW_XG_CURRENT_RESOLUTION "1"
*HW_XG_CURRENT_UNIT "mA"
*HW_XG_FOCUS "1mm x 10mm"
*HW_XG_FOCUS_TYPE "Normal"
*HW_XG_ID ""
*HW_XG_NAME "3kW 封入管(ID:1200)|3kW Sealed tube(ID:1200)"
*HW_XG_TARGET_ATOMIC_NUMBER "29.0000000000"
*HW_XG_TARGET_NAME "Cu"
*HW_XG_TYPE "Hermetic"
*HW_XG_VOLTAGE_MAX "60"
*HW_XG_VOLTAGE_MIN "20"
*HW_XG_VOLTAGE_RESOLUTION "1"
*HW_XG_VOLTAGE_UNIT "kV"
*HW_XG_WATT_MAX "1.500"
*HW_XG_WATT_UNIT "kW"
*HW_XG_WAVE_LENGTH_ALPHA1 "1.540593"
*HW_XG_WAVE_LENGTH_ALPHA2 "1.544414"
*HW_XG_WAVE_LENGTH_BETA "1.392250"
*MEAS_COND_AXIS_NAME-0 "2θ/θ"
*MEAS_COND_AXIS_NAME-1 "2θ"
*MEAS_COND_AXIS_NAME-2 "ω"
*MEAS_COND_AXIS_NAME-3 "Z"
*MEAS_COND_AXIS_NAME-4 "2θ/ω"
*MEAS_COND_AXIS_NAME-5 "θs"
*MEAS_COND_AXIS_NAME-6 "θd"
*MEAS_COND_AXIS_NAME-7 "Ts"
*MEAS_COND_AXIS_NAME-8 "CBO選択スリット"
*MEAS_COND_AXIS_NAME-9 "M"
*MEAS_COND_AXIS_NAME-10 "入射平行スリット"
*MEAS_COND_AXIS_NAME-11 "入射スリット"
*MEAS_COND_AXIS_NAME-12 ""
*MEAS_COND_AXIS_NAME-13 "Zs"
*MEAS_COND_AXIS_NAME-14 "入射光学素子"
*MEAS_COND_AXIS_NAME-15 "長手制限スリット"
*MEAS_COND_AXIS_NAME-16 "センタースリット"
*MEAS_COND_AXIS_NAME-17 "フィルター"
*MEAS_COND_AXIS_NAME-18 "受光スリット1"
*MEAS_COND_AXIS_NAME-19 "受光スリット2"
*MEAS_COND_AXIS_NAME-20 "受光光学素子"
*MEAS_COND_AXIS_NAME-21 "受光平行スリット"
*MEAS_COND_AXIS_NAME-22 "調整用受光スリット"
*MEAS_COND_AXIS_NAME-23 ""
*MEAS_COND_AXIS_NAME-24 ""
*MEAS_COND_AXIS_NAME-25 "Zd"
*MEAS_COND_AXIS_NAME-26 "アッテネータ"
*MEAS_COND_AXIS_NAME-27 "検出器モノクロメータ"
*MEAS_COND_AXIS_NAME-28 "モノクロメータスリット"
*MEAS_COND_AXIS_NAME-29 "プライマリビーム"
*MEAS_COND_AXIS_NAME-30 "PHA"
*MEAS_COND_AXIS_NAME_INTERNAL-0 "TwoThetaTheta"
*MEAS_COND_AXIS_NAME_INTERNAL-1 "TwoTheta"
*MEAS_COND_AXIS_NAME_INTERNAL-2 "Omega"
*MEAS_COND_AXIS_NAME_INTERNAL-3 "Z"
*MEAS_COND_AXIS_NAME_INTERNAL-4 "TwoThetaOmega"
*MEAS_COND_AXIS_NAME_INTERNAL-5 "ThetaS"
*MEAS_COND_AXIS_NAME_INTERNAL-6 "ThetaD"
*MEAS_COND_AXIS_NAME_INTERNAL-7 "Ts"
*MEAS_COND_AXIS_NAME_INTERNAL-8 "CBO"
*MEAS_COND_AXIS_NAME_INTERNAL-9 "CBO-M"
*MEAS_COND_AXIS_NAME_INTERNAL-10 "IncidentSollerSlit"
*MEAS_COND_AXIS_NAME_INTERNAL-11 "IncidentSlitBox"
*MEAS_COND_AXIS_NAME_INTERNAL-12 "IncidentSlitBox-_Axis"
*MEAS_COND_AXIS_NAME_INTERNAL-13 "Zs"
*MEAS_COND_AXIS_NAME_INTERNAL-14 "IncidentMonochromator"
*MEAS_COND_AXIS_NAME_INTERNAL-15 "IncidentAxdSlit"
*MEAS_COND_AXIS_NAME_INTERNAL-16 "CenterSlit"
*MEAS_COND_AXIS_NAME_INTERNAL-17 "Filter"
*MEAS_COND_AXIS_NAME_INTERNAL-18 "ReceivingSlitBox1"
*MEAS_COND_AXIS_NAME_INTERNAL-19 "ReceivingSlitBox2"
*MEAS_COND_AXIS_NAME_INTERNAL-20 "ReceivingOptics"
*MEAS_COND_AXIS_NAME_INTERNAL-21 "ReceivingSollerSlit"
*MEAS_COND_AXIS_NAME_INTERNAL-22 "ReceivingAxdSlit"
*MEAS_COND_AXIS_NAME_INTERNAL-23 "ReceivingSlitBox1-_Axis"
*MEAS_COND_AXIS_NAME_INTERNAL-24 "ReceivingSlitBox2-_Axis"
*MEAS_COND_AXIS_NAME_INTERNAL-25 "ReceivingSlitBox2-Zd"
*MEAS_COND_AXIS_NAME_INTERNAL-26 "Attenuator"
*MEAS_COND_AXIS_NAME_INTERNAL-27 "CounterMonochromator"
*MEAS_COND_AXIS_NAME_INTERNAL-28 "CounterSlit"
*MEAS_COND_AXIS_NAME_INTERNAL-29 "IncidentPrimary"
*MEAS_COND_AXIS_NAME_INTERNAL-30 "PHA"
*MEAS_COND_AXIS_NAME_MAGICNO-0 "83951616.0000000000"
*MEAS_COND_AXIS_NAME_MAGICNO-1 "268632064.0000000000"
*MEAS_COND_AXIS_NAME_MAGICNO-2 "268500992.0000000000"
*MEAS_COND_AXIS_NAME_MAGICNO-3 "285278208.0000000000"
*MEAS_COND_AXIS_NAME_MAGICNO-4 "83951616.0000000000"
*MEAS_COND_AXIS_NAME_MAGICNO-5 "131072.0000000000"
*MEAS_COND_AXIS_NAME_MAGICNO-6 "131072.0000000000"
*MEAS_COND_AXIS_NAME_MAGICNO-7 "318898176.0000000000"
*MEAS_COND_AXIS_NAME_MAGICNO-8 "20971521.0000000000"
*MEAS_COND_AXIS_NAME_MAGICNO-9 "285343744.0000000000"
*MEAS_COND_AXIS_NAME_MAGICNO-10 "20971521.0000000000"
*MEAS_COND_AXIS_NAME_MAGICNO-11 "22020097.0000000000"
*MEAS_COND_AXIS_NAME_MAGICNO-12 "25165824.0000000000"
*MEAS_COND_AXIS_NAME_MAGICNO-13 "318898176.0000000000"
*MEAS_COND_AXIS_NAME_MAGICNO-14 "1.0000000000"
*MEAS_COND_AXIS_NAME_MAGICNO-15 "20971521.0000000000"
*MEAS_COND_AXIS_NAME_MAGICNO-16 "20971521.0000000000"
*MEAS_COND_AXIS_NAME_MAGICNO-17 "20971521.0000000000"
*MEAS_COND_AXIS_NAME_MAGICNO-18 "23068673.0000000000"
*MEAS_COND_AXIS_NAME_MAGICNO-19 "23068673.0000000000"
*MEAS_COND_AXIS_NAME_MAGICNO-20 "20971521.0000000000"
*MEAS_COND_AXIS_NAME_MAGICNO-21 "20971521.0000000000"
*MEAS_COND_AXIS_NAME_MAGICNO-22 "20971521.0000000000"
*MEAS_COND_AXIS_NAME_MAGICNO-23 "25165824.0000000000"
*MEAS_COND_AXIS_NAME_MAGICNO-24 "25165824.0000000000"
*MEAS_COND_AXIS_NAME_MAGICNO-25 "285343744.0000000000"
*MEAS_COND_AXIS_NAME_MAGICNO-26 "17301505.0000000000"
*MEAS_COND_AXIS_NAME_MAGICNO-27 "20971521.0000000000"
*MEAS_COND_AXIS_NAME_MAGICNO-28 "20971521.0000000000"
*MEAS_COND_AXIS_NAME_MAGICNO-29 "20971521.0000000000"
*MEAS_COND_AXIS_NAME_MAGICNO-30 "0.0000000000"
*MEAS_COND_AXIS_OFFSET-0 "-"
*MEAS_COND_AXIS_OFFSET-1 "-0.1081000000"
*MEAS_COND_AXIS_OFFSET-2 "0.3758000000"
*MEAS_COND_AXIS_OFFSET-3 "-"
*MEAS_COND_AXIS_OFFSET-4 "-"
*MEAS_COND_AXIS_OFFSET-5 "0.3758000000"
*MEAS_COND_AXIS_OFFSET-6 "-0.4839000000"
*MEAS_COND_AXIS_OFFSET-7 "-"
*MEAS_COND_AXIS_OFFSET-8 "-"
*MEAS_COND_AXIS_OFFSET-9 "-"
*MEAS_COND_AXIS_OFFSET-10 "-"
*MEAS_COND_AXIS_OFFSET-11 "-"
*MEAS_COND_AXIS_OFFSET-12 "-"
*MEAS_COND_AXIS_OFFSET-13 "-"
*MEAS_COND_AXIS_OFFSET-14 "-"
*MEAS_COND_AXIS_OFFSET-15 "-"
*MEAS_COND_AXIS_OFFSET-16 "-"
*MEAS_COND_AXIS_OFFSET-17 "-"
*MEAS_COND_AXIS_OFFSET-18 "-"
*MEAS_COND_AXIS_OFFSET-19 "-"
*MEAS_COND_AXIS_OFFSET-20 "-"
*MEAS_COND_AXIS_OFFSET-21 "-"
*MEAS_COND_AXIS_OFFSET-22 "-"
*MEAS_COND_AXIS_OFFSET-23 "-"
*MEAS_COND_AXIS_OFFSET-24 "-"
*MEAS_COND_AXIS_OFFSET-25 "-"
*MEAS_COND_AXIS_OFFSET-26 "-"
*MEAS_COND_AXIS_OFFSET-27 "-"
*MEAS_COND_AXIS_OFFSET-28 "-"
*MEAS_COND_AXIS_OFFSET-29 "-"
*MEAS_COND_AXIS_OFFSET-30 "-"
*MEAS_COND_AXIS_POSITION-0 "0.0000000000"
*MEAS_COND_AXIS_POSITION-1 "0.0000000000"
*MEAS_COND_AXIS_POSITION-2 "0.0000000000"
*MEAS_COND_AXIS_POSITION-3 "-0.5500000000"
*MEAS_COND_AXIS_POSITION-4 "0.0000000000"
*MEAS_COND_AXIS_POSITION-5 "0.0000000000"
*MEAS_COND_AXIS_POSITION-6 "0.0000000000"
*MEAS_COND_AXIS_POSITION-7 "-0.4278800000"
*MEAS_COND_AXIS_POSITION-8 "BB"
*MEAS_COND_AXIS_POSITION-9 "0.0000000000"
*MEAS_COND_AXIS_POSITION-10 "Soller_slit_5.0deg"
*MEAS_COND_AXIS_POSITION-11 "2/3deg"
*MEAS_COND_AXIS_POSITION-12 "2.2088000000"
*MEAS_COND_AXIS_POSITION-13 "-0.4140600000"
*MEAS_COND_AXIS_POSITION-14 "0.0000000000"
*MEAS_COND_AXIS_POSITION-15 "10.0mm"
*MEAS_COND_AXIS_POSITION-16 "None"
*MEAS_COND_AXIS_POSITION-17 "Cu_K-beta"
*MEAS_COND_AXIS_POSITION-18 "13.000mm"
*MEAS_COND_AXIS_POSITION-19 "13.000mm"
*MEAS_COND_AXIS_POSITION-20 "No_unit"
*MEAS_COND_AXIS_POSITION-21 "Soller_slit_5.0deg"
*MEAS_COND_AXIS_POSITION-22 "None"
*MEAS_COND_AXIS_POSITION-23 "13.0000000000"
*MEAS_COND_AXIS_POSITION-24 "13.0000000000"
*MEAS_COND_AXIS_POSITION-25 "0.0109400000"
*MEAS_COND_AXIS_POSITION-26 "Open"
*MEAS_COND_AXIS_POSITION-27 "None"
*MEAS_COND_AXIS_POSITION-28 "None"
*MEAS_COND_AXIS_POSITION-29 "None"
*MEAS_COND_AXIS_POSITION-30 "38.0000000000"
*MEAS_COND_AXIS_UNIT-0 "deg"
*MEAS_COND_AXIS_UNIT-1 "deg"
*MEAS_COND_AXIS_UNIT-2 "deg"
*MEAS_COND_AXIS_UNIT-3 "mm"
*MEAS_COND_AXIS_UNIT-4 "deg"
*MEAS_COND_AXIS_UNIT-5 "deg"
*MEAS_COND_AXIS_UNIT-6 "deg"
*MEAS_COND_AXIS_UNIT-7 "mm"
*MEAS_COND_AXIS_UNIT-8 ""
*MEAS_COND_AXIS_UNIT-9 "pulse"
*MEAS_COND_AXIS_UNIT-10 ""
*MEAS_COND_AXIS_UNIT-11 ""
*MEAS_COND_AXIS_UNIT-12 "mm"
*MEAS_COND_AXIS_UNIT-13 "mm"
*MEAS_COND_AXIS_UNIT-14 ""
*MEAS_COND_AXIS_UNIT-15 ""
*MEAS_COND_AXIS_UNIT-16 ""
*MEAS_COND_AXIS_UNIT-17 ""
*MEAS_COND_AXIS_UNIT-18 ""
*MEAS_COND_AXIS_UNIT-19 ""
*MEAS_COND_AXIS_UNIT-20 ""
*MEAS_COND_AXIS_UNIT-21 ""
*MEAS_COND_AXIS_UNIT-22 ""
*MEAS_COND_AXIS_UNIT-23 "mm"
*MEAS_COND_AXIS_UNIT-24 "mm"
*MEAS_COND_AXIS_UNIT-25 "mm"
*MEAS_COND_AXIS_UNIT-26 ""
*MEAS_COND_AXIS_UNIT-27 ""
*MEAS_COND_AXIS_UNIT-28 ""
*MEAS_COND_AXIS_UNIT-29 ""
*MEAS_COND_AXIS_UNIT-30 "div"
*MEAS_COND_COUNTER_CNTLOSS_CORR "0.0000000000"
*MEAS_COND_COUNTER_PHABASE "38.0000000000"
*MEAS_COND_COUNTER_PHAWINDOW "16.0000000000"
*MEAS_COND_COUNTER_PHA_UNIT "div"
*MEAS_COND_COUNTER_TAUDIFF "30.0000000000"
*MEAS_COND_COUNTER_TAUINT "0.0000000000"
*MEAS_COND_IRRADIATION_MODE "OFF"
*MEAS_COND_IRRADIATION_WIDTH ""
*MEAS_COND_OPT_ATTR "集中法"
*MEAS_COND_OPT_NAME "@集中法"
*MEAS_COND_UNSYMMETRIC_MODE "OFF"
*MEAS_COND_XG_CURRENT "30.0000000000"
*MEAS_COND_XG_VOLTAGE "40.0000000000"
*MEAS_COND_XG_WAVE_TYPE "Ka"
*MEAS_DATA_COUNT "5001.0000000000"
*MEAS_SCAN_AXIS_X "2θ/θ"
*MEAS_SCAN_AXIS_X_INTERNAL "TwoThetaTheta"
*MEAS_SCAN_END_TIME "07/12/21 18:58:54"
*MEAS_SCAN_MODE "CONTINUOUS"
*MEAS_SCAN_MONITOR "0"
*MEAS_SCAN_RESOLUTION_X "0.0002"
*MEAS_SCAN_SPEED "1.0"
*MEAS_SCAN_SPEED_UNIT "deg/min"
*MEAS_SCAN_START "20.0000000000"
*MEAS_SCAN_START_TIME "07/12/21 18:06:01"
*MEAS_SCAN_STEP "0.0100000000"
*MEAS_SCAN_STOP "70.0000000000"
*MEAS_SCAN_UNIT_X "deg"
*MEAS_SCAN_UNIT_Y "counts"
*RAS_HEADER_END
*RAS_INT_START
20.0000 1675.0000 1.0000
20.0100 1650.0000 1.0000
20.0200 1656.0000 1.0000
20.0300 1628.0000 1.0000
20.0400 1642.0000 1.0000
20.0500 1655.0000 1.0000
20.0600 1691.0000 1.0000
20.0700 1690.0000 1.0000
20.0800 1653.0000 1.0000
20.0900 1652.0000 1.0000
20.1000 1702.0000 1.0000
20.1100 1708.0000 1.0000
20.1200 1706.0000 1.0000
20.1300 1678.0000 1.0000
20.1400 1743.0000 1.0000
20.1500 1717.0000 1.0000
20.1600 1664.0000 1.0000
20.1700 1630.0000 1.0000
20.1800 1683.0000 1.0000
20.1900 1723.0000 1.0000
20.2000 1719.0000 1.0000
20.2100 1693.0000 1.0000
20.2200 1684.0000 1.0000
20.2300 1652.0000 1.0000
20.2400 1728.0000 1.0000
20.2500 1737.0000 1.0000
20.2600 1763.0000 1.0000
20.2700 1767.0000 1.0000
20.2800 1703.0000 1.0000
20.2900 1664.0000 1.0000
20.3000 1638.0000 1.0000
20.3100 1687.0000 1.0000
20.3200 1726.0000 1.0000
20.3300 1749.0000 1.0000
20.3400 1715.0000 1.0000
20.3500 1719.0000 1.0000
20.3600 1730.0000 1.0000
20.3700 1731.0000 1.0000
20.3800 1662.0000 1.0000
20.3900 1675.0000 1.0000
20.4000 1738.0000 1.0000
20.4100 1740.0000 1.0000
20.4200 1732.0000 1.0000
20.4300 1709.0000 1.0000
20.4400 1708.0000 1.0000
20.4500 1675.0000 1.0000
20.4600 1661.0000 1.0000
20.4700 1656.0000 1.0000
20.4800 1719.0000 1.0000
20.4900 1698.0000 1.0000
20.5000 1727.0000 1.0000
20.5100 1699.0000 1.0000
20.5200 1760.0000 1.0000
20.5300 1696.0000 1.0000
20.5400 1723.0000 1.0000
20.5500 1706.0000 1.0000
20.5600 1706.0000 1.0000
20.5700 1701.0000 1.0000
20.5800 1735.0000 1.0000
20.5900 1697.0000 1.0000
20.6000 1623.0000 1.0000
20.6100 1708.0000 1.0000
20.6200 1756.0000 1.0000
20.6300 1684.0000 1.0000
20.6400 1685.0000 1.0000
20.6500 1694.0000 1.0000
20.6600 1729.0000 1.0000
20.6700 1758.0000 1.0000
20.6800 1722.0000 1.0000
20.6900 1684.0000 1.0000
20.7000 1698.0000 1.0000
20.7100 1744.0000 1.0000
20.7200 1605.0000 1.0000
20.7300 1626.0000 1.0000
20.7400 1672.0000 1.0000
20.7500 1746.0000 1.0000
20.7600 1674.0000 1.0000
20.7700 1701.0000 1.0000
20.7800 1666.0000 1.0000
20.7900 1695.0000 1.0000
20.8000 1636.0000 1.0000
20.8100 1718.0000 1.0000
20.8200 1673.0000 1.0000
20.8300 1712.0000 1.0000
20.8400 1730.0000 1.0000
20.8500 1619.0000 1.0000
20.8600 1689.0000 1.0000
20.8700 1751.0000 1.0000
20.8800 1751.0000 1.0000
20.8900 1729.0000 1.0000
20.9000 1672.0000 1.0000
20.9100 1711.0000 1.0000
20.9200 1634.0000 1.0000
20.9300 1688.0000 1.0000
20.9400 1766.0000 1.0000
20.9500 1715.0000 1.0000
20.9600 1710.0000 1.0000
20.9700 1688.0000 1.0000
20.9800 1670.0000 1.0000
20.9900 1690.0000 1.0000
21.0000 1743.0000 1.0000
21.0100 1662.0000 1.0000
21.0200 1652.0000 1.0000
21.0300 1647.0000 1.0000
21.0400 1685.0000 1.0000
21.0500 1653.0000 1.0000
21.0600 1653.0000 1.0000
21.0700 1620.0000 1.0000
21.0800 1646.0000 1.0000
21.0900 1726.0000 1.0000
21.1000 1677.0000 1.0000
21.1100 1687.0000 1.0000
21.1200 1727.0000 1.0000
21.1300 1727.0000 1.0000
21.1400 1744.0000 1.0000
21.1500 1657.0000 1.0000
21.1600 1740.0000 1.0000
21.1700 1717.0000 1.0000
21.1800 1696.0000 1.0000
21.1900 1688.0000 1.0000
21.2000 1668.0000 1.0000
21.2100 1670.0000 1.0000
21.2200 1693.0000 1.0000
21.2300 1798.0000 1.0000
21.2400 1739.0000 1.0000
21.2500 1714.0000 1.0000
21.2600 1656.0000 1.0000
21.2700 1677.0000 1.0000
21.2800 1658.0000 1.0000
21.2900 1711.0000 1.0000
21.3000 1744.0000 1.0000
21.3100 1670.0000 1.0000
21.3200 1743.0000 1.0000
21.3300 1744.0000 1.0000
21.3400 1718.0000 1.0000
21.3500 1758.0000 1.0000
21.3600 1714.0000 1.0000
21.3700 1712.0000 1.0000
21.3800 1707.0000 1.0000
21.3900 1664.0000 1.0000
21.4000 1696.0000 1.0000
21.4100 1755.0000 1.0000
21.4200 1670.0000 1.0000
21.4300 1643.0000 1.0000
21.4400 1704.0000 1.0000
21.4500 1678.0000 1.0000
21.4600 1655.0000 1.0000
21.4700 1695.0000 1.0000
21.4800 1761.0000 1.0000
21.4900 1688.0000 1.0000
21.5000 1685.0000 1.0000
21.5100 1751.0000 1.0000
21.5200 1743.0000 1.0000
21.5300 1677.0000 1.0000
21.5400 1690.0000 1.0000
21.5500 1693.0000 1.0000
21.5600 1703.0000 1.0000
21.5700 1674.0000 1.0000
21.5800 1710.0000 1.0000
21.5900 1715.0000 1.0000
21.6000 1676.0000 1.0000
21.6100 1797.0000 1.0000
21.6200 1695.0000 1.0000
21.6300 1742.0000 1.0000
21.6400 1701.0000 1.0000
21.6500 1689.0000 1.0000
21.6600 1703.0000 1.0000
21.6700 1731.0000 1.0000
21.6800 1757.0000 1.0000
21.6900 1693.0000 1.0000
21.7000 1701.0000 1.0000
21.7100 1711.0000 1.0000
21.7200 1684.0000 1.0000
21.7300 1706.0000 1.0000
21.7400 1729.0000 1.0000
21.7500 1728.0000 1.0000
21.7600 1691.0000 1.0000
21.7700 1742.0000 1.0000
21.7800 1728.0000 1.0000
21.7900 1723.0000 1.0000
21.8000 1713.0000 1.0000
21.8100 1768.0000 1.0000
21.8200 1688.0000 1.0000
21.8300 1684.0000 1.0000
21.8400 1703.0000 1.0000
21.8500 1738.0000 1.0000
21.8600 1727.0000 1.0000
21.8700 1748.0000 1.0000
21.8800 1703.0000 1.0000
21.8900 1704.0000 1.0000
21.9000 1641.0000 1.0000
21.9100 1662.0000 1.0000
21.9200 1772.0000 1.0000
21.9300 1766.0000 1.0000
21.9400 1726.0000 1.0000
21.9500 1664.0000 1.0000
21.9600 1698.0000 1.0000
21.9700 1786.0000 1.0000
21.9800 1718.0000 1.0000
21.9900 1747.0000 1.0000
22.0000 1702.0000 1.0000
22.0100 1740.0000 1.0000
22.0200 1694.0000 1.0000
22.0300 1709.0000 1.0000
22.0400 1720.0000 1.0000
22.0500 1681.0000 1.0000
22.0600 1660.0000 1.0000
22.0700 1664.0000 1.0000
22.0800 1725.0000 1.0000
22.0900 1719.0000 1.0000
22.1000 1726.0000 1.0000
22.1100 1653.0000 1.0000
22.1200 1697.0000 1.0000
22.1300 1781.0000 1.0000
22.1400 1685.0000 1.0000
22.1500 1705.0000 1.0000
22.1600 1743.0000 1.0000
22.1700 1753.0000 1.0000
22.1800 1773.0000 1.0000
22.1900 1734.0000 1.0000
22.2000 1726.0000 1.0000
22.2100 1691.0000 1.0000
22.2200 1724.0000 1.0000
22.2300 1718.0000 1.0000
22.2400 1720.0000 1.0000
22.2500 1663.0000 1.0000
22.2600 1688.0000 1.0000
22.2700 1756.0000 1.0000
22.2800 1774.0000 1.0000
22.2900 1677.0000 1.0000
22.3000 1723.0000 1.0000
22.3100 1689.0000 1.0000
22.3200 1799.0000 1.0000
22.3300 1679.0000 1.0000
22.3400 1706.0000 1.0000
22.3500 1634.0000 1.0000
22.3600 1699.0000 1.0000
22.3700 1751.0000 1.0000
22.3800 1754.0000 1.0000
22.3900 1705.0000 1.0000
22.4000 1700.0000 1.0000
22.4100 1727.0000 1.0000
22.4200 1778.0000 1.0000
22.4300 1812.0000 1.0000
22.4400 1757.0000 1.0000
22.4500 1733.0000 1.0000
22.4600 1678.0000 1.0000
22.4700 1693.0000 1.0000
22.4800 1726.0000 1.0000
22.4900 1749.0000 1.0000
22.5000 1784.0000 1.0000
22.5100 1766.0000 1.0000
22.5200 1806.0000 1.0000
22.5300 1709.0000 1.0000
22.5400 1810.0000 1.0000
22.5500 1795.0000 1.0000
22.5600 1787.0000 1.0000
22.5700 1750.0000 1.0000
22.5800 1740.0000 1.0000
22.5900 1757.0000 1.0000
22.6000 1703.0000 1.0000
22.6100 1746.0000 1.0000
22.6200 1703.0000 1.0000
22.6300 1767.0000 1.0000
22.6400 1769.0000 1.0000
22.6500 1774.0000 1.0000
22.6600 1802.0000 1.0000
22.6700 1757.0000 1.0000
22.6800 1743.0000 1.0000
22.6900 1781.0000 1.0000
22.7000 1718.0000 1.0000
22.7100 1715.0000 1.0000
22.7200 1697.0000 1.0000
22.7300 1742.0000 1.0000
22.7400 1707.0000 1.0000
22.7500 1733.0000 1.0000
22.7600 1729.0000 1.0000
22.7700 1692.0000 1.0000
22.7800 1744.0000 1.0000
22.7900 1737.0000 1.0000
22.8000 1739.0000 1.0000
22.8100 1722.0000 1.0000
22.8200 1729.0000 1.0000
22.8300 1737.0000 1.0000
22.8400 1772.0000 1.0000
22.8500 1771.0000 1.0000
22.8600 1746.0000 1.0000
22.8700 1761.0000 1.0000
22.8800 1805.0000 1.0000
22.8900 1793.0000 1.0000
22.9000 1743.0000 1.0000
22.9100 1735.0000 1.0000
22.9200 1787.0000 1.0000
22.9300 1733.0000 1.0000
22.9400 1736.0000 1.0000
22.9500 1775.0000 1.0000
22.9600 1820.0000 1.0000
22.9700 1753.0000 1.0000
22.9800 1781.0000 1.0000
22.9900 1763.0000 1.0000
23.0000 1756.0000 1.0000
23.0100 1750.0000 1.0000
23.0200 1721.0000 1.0000
23.0300 1727.0000 1.0000
23.0400 1788.0000 1.0000
23.0500 1703.0000 1.0000
23.0600 1666.0000 1.0000
23.0700 1757.0000 1.0000
23.0800 1801.0000 1.0000
23.0900 1815.0000 1.0000
23.1000 1803.0000 1.0000
23.1100 1718.0000 1.0000
23.1200 1687.0000 1.0000
23.1300 1730.0000 1.0000
23.1400 1773.0000 1.0000
23.1500 1764.0000 1.0000
23.1600 1756.0000 1.0000
23.1700 1790.0000 1.0000
23.1800 1819.0000 1.0000
23.1900 1678.0000 1.0000
23.2000 1800.0000 1.0000
23.2100 1795.0000 1.0000
23.2200 1770.0000 1.0000
23.2300 1710.0000 1.0000
23.2400 1786.0000 1.0000
23.2500 1683.0000 1.0000
23.2600 1806.0000 1.0000
23.2700 1775.0000 1.0000
23.2800 1722.0000 1.0000
23.2900 1732.0000 1.0000
23.3000 1782.0000 1.0000
23.3100 1826.0000 1.0000
23.3200 1737.0000 1.0000
23.3300 1708.0000 1.0000
23.3400 1745.0000 1.0000
23.3500 1759.0000 1.0000
23.3600 1787.0000 1.0000
23.3700 1797.0000 1.0000
23.3800 1761.0000 1.0000
23.3900 1722.0000 1.0000
23.4000 1765.0000 1.0000
23.4100 1803.0000 1.0000
23.4200 1802.0000 1.0000
23.4300 1821.0000 1.0000
23.4400 1731.0000 1.0000
23.4500 1764.0000 1.0000
23.4600 1741.0000 1.0000
23.4700 1760.0000 1.0000
23.4800 1772.0000 1.0000
23.4900 1733.0000 1.0000
23.5000 1789.0000 1.0000
23.5100 1781.0000 1.0000
23.5200 1734.0000 1.0000
23.5300 1814.0000 1.0000
23.5400 1771.0000 1.0000
23.5500 1650.0000 1.0000
23.5600 1759.0000 1.0000
23.5700 1784.0000 1.0000
23.5800 1739.0000 1.0000
23.5900 1748.0000 1.0000
23.6000 1692.0000 1.0000
23.6100 1772.0000 1.0000
23.6200 1715.0000 1.0000
23.6300 1730.0000 1.0000
23.6400 1763.0000 1.0000
23.6500 1729.0000 1.0000
23.6600 1756.0000 1.0000
23.6700 1836.0000 1.0000
23.6800 1784.0000 1.0000
23.6900 1791.0000 1.0000
23.7000 1710.0000 1.0000
23.7100 1676.0000 1.0000
23.7200 1772.0000 1.0000
23.7300 1738.0000 1.0000
23.7400 1724.0000 1.0000
23.7500 1853.0000 1.0000
23.7600 1768.0000 1.0000
23.7700 1742.0000 1.0000
23.7800 1741.0000 1.0000
23.7900 1769.0000 1.0000
23.8000 1818.0000 1.0000
23.8100 1805.0000 1.0000
23.8200 1764.0000 1.0000
23.8300 1747.0000 1.0000
23.8400 1765.0000 1.0000
23.8500 1727.0000 1.0000
23.8600 1708.0000 1.0000
23.8700 1772.0000 1.0000
23.8800 1772.0000 1.0000
23.8900 1779.0000 1.0000
23.9000 1856.0000 1.0000
23.9100 1715.0000 1.0000
23.9200 1793.0000 1.0000
23.9300 1796.0000 1.0000
23.9400 1781.0000 1.0000
23.9500 1740.0000 1.0000
23.9600 1817.0000 1.0000
23.9700 1738.0000 1.0000
23.9800 1745.0000 1.0000
23.9900 1782.0000 1.0000
24.0000 1725.0000 1.0000
24.0100 1697.0000 1.0000
24.0200 1771.0000 1.0000
24.0300 1805.0000 1.0000
24.0400 1755.0000 1.0000
24.0500 1793.0000 1.0000
24.0600 1773.0000 1.0000
24.0700 1770.0000 1.0000
24.0800 1772.0000 1.0000
24.0900 1760.0000 1.0000
24.1000 1778.0000 1.0000
24.1100 1780.0000 1.0000
24.1200 1767.0000 1.0000
24.1300 1810.0000 1.0000
24.1400 1828.0000 1.0000
24.1500 1843.0000 1.0000
24.1600 1803.0000 1.0000
24.1700 1755.0000 1.0000
24.1800 1738.0000 1.0000
24.1900 1827.0000 1.0000
24.2000 1840.0000 1.0000
24.2100 1740.0000 1.0000
24.2200 1741.0000 1.0000
24.2300 1766.0000 1.0000
24.2400 1703.0000 1.0000
24.2500 1789.0000 1.0000
24.2600 1811.0000 1.0000
24.2700 1764.0000 1.0000
24.2800 1786.0000 1.0000
24.2900 1732.0000 1.0000
24.3000 1770.0000 1.0000
24.3100 1831.0000 1.0000
24.3200 1833.0000 1.0000
24.3300 1755.0000 1.0000
24.3400 1767.0000 1.0000
24.3500 1845.0000 1.0000
24.3600 1811.0000 1.0000
24.3700 1730.0000 1.0000
24.3800 1813.0000 1.0000
24.3900 1796.0000 1.0000
24.4000 1795.0000 1.0000
24.4100 1738.0000 1.0000
24.4200 1757.0000 1.0000
24.4300 1763.0000 1.0000
24.4400 1826.0000 1.0000
24.4500 1783.0000 1.0000
24.4600 1756.0000 1.0000
24.4700 1731.0000 1.0000
24.4800 1731.0000 1.0000
24.4900 1811.0000 1.0000
24.5000 1782.0000 1.0000
24.5100 1728.0000 1.0000
24.5200 1816.0000 1.0000
24.5300 1778.0000 1.0000
24.5400 1821.0000 1.0000
24.5500 1804.0000 1.0000
24.5600 1825.0000 1.0000
24.5700 1815.0000 1.0000
24.5800 1777.0000 1.0000
24.5900 1789.0000 1.0000
24.6000 1809.0000 1.0000
24.6100 1863.0000 1.0000
24.6200 1793.0000 1.0000
24.6300 1792.0000 1.0000
24.6400 1803.0000 1.0000
24.6500 1775.0000 1.0000
24.6600 1788.0000 1.0000
24.6700 1811.0000 1.0000
24.6800 1789.0000 1.0000
24.6900 1759.0000 1.0000
24.7000 1836.0000 1.0000
24.7100 1831.0000 1.0000
24.7200 1788.0000 1.0000
24.7300 1777.0000 1.0000
24.7400 1846.0000 1.0000
24.7500 1841.0000 1.0000
24.7600 1808.0000 1.0000
24.7700 1819.0000 1.0000
24.7800 1803.0000 1.0000
24.7900 1835.0000 1.0000
24.8000 1797.0000 1.0000
24.8100 1848.0000 1.0000
24.8200 1877.0000 1.0000
24.8300 1825.0000 1.0000
24.8400 1868.0000 1.0000
24.8500 1754.0000 1.0000
24.8600 1797.0000 1.0000
24.8700 1878.0000 1.0000
24.8800 1777.0000 1.0000
24.8900 1894.0000 1.0000
24.9000 1867.0000 1.0000
24.9100 1845.0000 1.0000
24.9200 1819.0000 1.0000
24.9300 1846.0000 1.0000
24.9400 1851.0000 1.0000
24.9500 1860.0000 1.0000
24.9600 1802.0000 1.0000
24.9700 1854.0000 1.0000
24.9800 1885.0000 1.0000
24.9900 1948.0000 1.0000
25.0000 1956.0000 1.0000
25.0100 1802.0000 1.0000
25.0200 1750.0000 1.0000
25.0300 1846.0000 1.0000
25.0400 1828.0000 1.0000
25.0500 1858.0000 1.0000
25.0600 1845.0000 1.0000
25.0700 1801.0000 1.0000
25.0800 1876.0000 1.0000
25.0900 1814.0000 1.0000
25.1000 1942.0000 1.0000
25.1100 1848.0000 1.0000
25.1200 1793.0000 1.0000
25.1300 1839.0000 1.0000
25.1400 1892.0000 1.0000
25.1500 1857.0000 1.0000
25.1600 1884.0000 1.0000
25.1700 1894.0000 1.0000
25.1800 1811.0000 1.0000
25.1900 1836.0000 1.0000
25.2000 1874.0000 1.0000
25.2100 1846.0000 1.0000
25.2200 1852.0000 1.0000
25.2300 1844.0000 1.0000
25.2400 1832.0000 1.0000
25.2500 1827.0000 1.0000
25.2600 1833.0000 1.0000
25.2700 1842.0000 1.0000
25.2800 1764.0000 1.0000
25.2900 1897.0000 1.0000
25.3000 1745.0000 1.0000
25.3100 1798.0000 1.0000
25.3200 1782.0000 1.0000
25.3300 1813.0000 1.0000
25.3400 1834.0000 1.0000
25.3500 1814.0000 1.0000
25.3600 1783.0000 1.0000
25.3700 1904.0000 1.0000
25.3800 1859.0000 1.0000
25.3900 1771.0000 1.0000
25.4000 1781.0000 1.0000
25.4100 1842.0000 1.0000
25.4200 1835.0000 1.0000
25.4300 1889.0000 1.0000
25.4400 1827.0000 1.0000
25.4500 1809.0000 1.0000
25.4600 1716.0000 1.0000
25.4700 1855.0000 1.0000
25.4800 1785.0000 1.0000
25.4900 1783.0000 1.0000
25.5000 1795.0000 1.0000
25.5100 1824.0000 1.0000
25.5200 1848.0000 1.0000
25.5300 1838.0000 1.0000
25.5400 1775.0000 1.0000
25.5500 1725.0000 1.0000
25.5600 1867.0000 1.0000
25.5700 1846.0000 1.0000
25.5800 1791.0000 1.0000
25.5900 1949.0000 1.0000
25.6000 1855.0000 1.0000
25.6100 1848.0000 1.0000
25.6200 1843.0000 1.0000
25.6300 1848.0000 1.0000
25.6400 1774.0000 1.0000
25.6500 1826.0000 1.0000
25.6600 1794.0000 1.0000
25.6700 1774.0000 1.0000
25.6800 1798.0000 1.0000
25.6900 1764.0000 1.0000
25.7000 1826.0000 1.0000
25.7100 1819.0000 1.0000
25.7200 1797.0000 1.0000
25.7300 1811.0000 1.0000
25.7400 1825.0000 1.0000
25.7500 1779.0000 1.0000
25.7600 1819.0000 1.0000
25.7700 1835.0000 1.0000
25.7800 1842.0000 1.0000
25.7900 1808.0000 1.0000
25.8000 1782.0000 1.0000
25.8100 1847.0000 1.0000
25.8200 1868.0000 1.0000
25.8300 1856.0000 1.0000
25.8400 1790.0000 1.0000
25.8500 1883.0000 1.0000
25.8600 1792.0000 1.0000
25.8700 1833.0000 1.0000
25.8800 1831.0000 1.0000
25.8900 1795.0000 1.0000
25.9000 1869.0000 1.0000
25.9100 1815.0000 1.0000
25.9200 1934.0000 1.0000
25.9300 1829.0000 1.0000
25.9400 1819.0000 1.0000
25.9500 1896.0000 1.0000
25.9600 1783.0000 1.0000
25.9700 1796.0000 1.0000
25.9800 1828.0000 1.0000
25.9900 1803.0000 1.0000
26.0000 1791.0000 1.0000
26.0100 1759.0000 1.0000
26.0200 1812.0000 1.0000
26.0300 1810.0000 1.0000
26.0400 1859.0000 1.0000
26.0500 1922.0000 1.0000
26.0600 1898.0000 1.0000
26.0700 1850.0000 1.0000
26.0800 1895.0000 1.0000
26.0900 1837.0000 1.0000
26.1000 1816.0000 1.0000
26.1100 1851.0000 1.0000
26.1200 1834.0000 1.0000
26.1300 1820.0000 1.0000
26.1400 1818.0000 1.0000
26.1500 1795.0000 1.0000
26.1600 1893.0000 1.0000
26.1700 1879.0000 1.0000
26.1800 1789.0000 1.0000
26.1900 1837.0000 1.0000
26.2000 1839.0000 1.0000
26.2100 1828.0000 1.0000
26.2200 1812.0000 1.0000
26.2300 1766.0000 1.0000
26.2400 1807.0000 1.0000
26.2500 1835.0000 1.0000
26.2600 1806.0000 1.0000
26.2700 1853.0000 1.0000
26.2800 1907.0000 1.0000
26.2900 1814.0000 1.0000
26.3000 1823.0000 1.0000
26.3100 1845.0000 1.0000
26.3200 1896.0000 1.0000
26.3300 1827.0000 1.0000
26.3400 1878.0000 1.0000
26.3500 1878.0000 1.0000
26.3600 1862.0000 1.0000
26.3700 1871.0000 1.0000
26.3800 1886.0000 1.0000
26.3900 1870.0000 1.0000
26.4000 1837.0000 1.0000
26.4100 1876.0000 1.0000
26.4200 1955.0000 1.0000
26.4300 1926.0000 1.0000
26.4400 1855.0000 1.0000
26.4500 1927.0000 1.0000
26.4600 1934.0000 1.0000
26.4700 1949.0000 1.0000
26.4800 1977.0000 1.0000
26.4900 1924.0000 1.0000
26.5000 1959.0000 1.0000
26.5100 1919.0000 1.0000
26.5200 1872.0000 1.0000
26.5300 1980.0000 1.0000
26.5400 1924.0000 1.0000
26.5500 1944.0000 1.0000
26.5600 1888.0000 1.0000
26.5700 1945.0000 1.0000
26.5800 1944.0000 1.0000
26.5900 1881.0000 1.0000
26.6000 1959.0000 1.0000
26.6100 1957.0000 1.0000
26.6200 1923.0000 1.0000
26.6300 1889.0000 1.0000
26.6400 1994.0000 1.0000
26.6500 1962.0000 1.0000
26.6600 1955.0000 1.0000
26.6700 1937.0000 1.0000
26.6800 2002.0000 1.0000
26.6900 2022.0000 1.0000
26.7000 2004.0000 1.0000
26.7100 1960.0000 1.0000
26.7200 2075.0000 1.0000
26.7300 1987.0000 1.0000
26.7400 1996.0000 1.0000
26.7500 2011.0000 1.0000
26.7600 2041.0000 1.0000
26.7700 2050.0000 1.0000
26.7800 2072.0000 1.0000
26.7900 2071.0000 1.0000
26.8000 2114.0000 1.0000
26.8100 2072.0000 1.0000
26.8200 2073.0000 1.0000
26.8300 2103.0000 1.0000
26.8400 2159.0000 1.0000
26.8500 2157.0000 1.0000
26.8600 2176.0000 1.0000
26.8700 2108.0000 1.0000
26.8800 2115.0000 1.0000
26.8900 2127.0000 1.0000
26.9000 2157.0000 1.0000
26.9100 2232.0000 1.0000
26.9200 2250.0000 1.0000
26.9300 2333.0000 1.0000
26.9400 2298.0000 1.0000
26.9500 2275.0000 1.0000
26.9600 2396.0000 1.0000
26.9700 2480.0000 1.0000
26.9800 2582.0000 1.0000
26.9900 2523.0000 1.0000
27.0000 2571.0000 1.0000
27.0100 2750.0000 1.0000
27.0200 2620.0000 1.0000
27.0300 2712.0000 1.0000
27.0400 2895.0000 1.0000
27.0500 2924.0000 1.0000
27.0600 2970.0000 1.0000
27.0700 2956.0000 1.0000
27.0800 3133.0000 1.0000
27.0900 3281.0000 1.0000
27.1000 3476.0000 1.0000
27.1100 3437.0000 1.0000
27.1200 3627.0000 1.0000
27.1300 3834.0000 1.0000
27.1400 4030.0000 1.0000
27.1500 4212.0000 1.0000
27.1600 4309.0000 1.0000
27.1700 4635.0000 1.0000
27.1800 4964.0000 1.0000
27.1900 5179.0000 1.0000
27.2000 5400.0000 1.0000
27.2100 5611.0000 1.0000
27.2200 6006.0000 1.0000
27.2300 6216.0000 1.0000
27.2400 6578.0000 1.0000
27.2500 6781.0000 1.0000
27.2600 6915.0000 1.0000
27.2700 7057.0000 1.0000
27.2800 7087.0000 1.0000
27.2900 7101.0000 1.0000
27.3000 7113.0000 1.0000
27.3100 6888.0000 1.0000
27.3200 6595.0000 1.0000
27.3300 6433.0000 1.0000
27.3400 6347.0000 1.0000
27.3500 6054.0000 1.0000
27.3600 5704.0000 1.0000
27.3700 5378.0000 1.0000
27.3800 5199.0000 1.0000
27.3900 4770.0000 1.0000
27.4000 4530.0000 1.0000
27.4100 4326.0000 1.0000
27.4200 4166.0000 1.0000
27.4300 4020.0000 1.0000
27.4400 3713.0000 1.0000
27.4500 3608.0000 1.0000
27.4600 3512.0000 1.0000
27.4700 3368.0000 1.0000
27.4800 3183.0000 1.0000
27.4900 3144.0000 1.0000
27.5000 3106.0000 1.0000
27.5100 2932.0000 1.0000
27.5200 2825.0000 1.0000
27.5300 2739.0000 1.0000
27.5400 2699.0000 1.0000
27.5500 2620.0000 1.0000
27.5600 2637.0000 1.0000
27.5700 2525.0000 1.0000
27.5800 2510.0000 1.0000
27.5900 2408.0000 1.0000
27.6000 2382.0000 1.0000
27.6100 2424.0000 1.0000
27.6200 2277.0000 1.0000
27.6300 2278.0000 1.0000
27.6400 2316.0000 1.0000
27.6500 2254.0000 1.0000
27.6600 2242.0000 1.0000
27.6700 2289.0000 1.0000
27.6800 2182.0000 1.0000
27.6900 2209.0000 1.0000
27.7000 2102.0000 1.0000
27.7100 2177.0000 1.0000
27.7200 2102.0000 1.0000
27.7300 2043.0000 1.0000
27.7400 2160.0000 1.0000
27.7500 2033.0000 1.0000
27.7600 2072.0000 1.0000
27.7700 2111.0000 1.0000
27.7800 2009.0000 1.0000
27.7900 2057.0000 1.0000
27.8000 2022.0000 1.0000
27.8100 1992.0000 1.0000
27.8200 2002.0000 1.0000
27.8300 1993.0000 1.0000
27.8400 1933.0000 1.0000
27.8500 1922.0000 1.0000
27.8600 1929.0000 1.0000
27.8700 1928.0000 1.0000
27.8800 1904.0000 1.0000
27.8900 1953.0000 1.0000
27.9000 1937.0000 1.0000
27.9100 1945.0000 1.0000
27.9200 1984.0000 1.0000
27.9300 1948.0000 1.0000
27.9400 1903.0000 1.0000
27.9500 1903.0000 1.0000
27.9600 1898.0000 1.0000
27.9700 1852.0000 1.0000
27.9800 1910.0000 1.0000
27.9900 1902.0000 1.0000
28.0000 1876.0000 1.0000
28.0100 1944.0000 1.0000
28.0200 1923.0000 1.0000
28.0300 1959.0000 1.0000
28.0400 1827.0000 1.0000
28.0500 1804.0000 1.0000
28.0600 1838.0000 1.0000
28.0700 1860.0000 1.0000
28.0800 1910.0000 1.0000
28.0900 1939.0000 1.0000
28.1000 1891.0000 1.0000
28.1100 1864.0000 1.0000
28.1200 1774.0000 1.0000
28.1300 1838.0000 1.0000
28.1400 1818.0000 1.0000
28.1500 1800.0000 1.0000
28.1600 1792.0000 1.0000
28.1700 1830.0000 1.0000
28.1800 1810.0000 1.0000
28.1900 1828.0000 1.0000
28.2000 1871.0000 1.0000
28.2100 1833.0000 1.0000
28.2200 1907.0000 1.0000
28.2300 1800.0000 1.0000
28.2400 1760.0000 1.0000
28.2500 1818.0000 1.0000
28.2600 1832.0000 1.0000
28.2700 1884.0000 1.0000
28.2800 1857.0000 1.0000
28.2900 1846.0000 1.0000
28.3000 1791.0000 1.0000
28.3100 1840.0000 1.0000
28.3200 1821.0000 1.0000
28.3300 1787.0000 1.0000
28.3400 1721.0000 1.0000
28.3500 1807.0000 1.0000
28.3600 1859.0000 1.0000
28.3700 1756.0000 1.0000
28.3800 1753.0000 1.0000
28.3900 1805.0000 1.0000
28.4000 1745.0000 1.0000
28.4100 1819.0000 1.0000
28.4200 1753.0000 1.0000
28.4300 1798.0000 1.0000
28.4400 1816.0000 1.0000
28.4500 1814.0000 1.0000
28.4600 1843.0000 1.0000
28.4700 1796.0000 1.0000
28.4800 1749.0000 1.0000
28.4900 1749.0000 1.0000
28.5000 1803.0000 1.0000
28.5100 1828.0000 1.0000
28.5200 1797.0000 1.0000
28.5300 1797.0000 1.0000
28.5400 1790.0000 1.0000
28.5500 1831.0000 1.0000
28.5600 1733.0000 1.0000
28.5700 1719.0000 1.0000
28.5800 1756.0000 1.0000
28.5900 1788.0000 1.0000
28.6000 1735.0000 1.0000
28.6100 1757.0000 1.0000
28.6200 1803.0000 1.0000
28.6300 1832.0000 1.0000
28.6400 1757.0000 1.0000
28.6500 1793.0000 1.0000
28.6600 1760.0000 1.0000
28.6700 1780.0000 1.0000
28.6800 1730.0000 1.0000
28.6900 1730.0000 1.0000
28.7000 1769.0000 1.0000
28.7100 1794.0000 1.0000
28.7200 1762.0000 1.0000
28.7300 1741.0000 1.0000
28.7400 1737.0000 1.0000
28.7500 1795.0000 1.0000
28.7600 1785.0000 1.0000
28.7700 1761.0000 1.0000
28.7800 1744.0000 1.0000
28.7900 1690.0000 1.0000
28.8000 1731.0000 1.0000
28.8100 1763.0000 1.0000
28.8200 1751.0000 1.0000
28.8300 1711.0000 1.0000
28.8400 1709.0000 1.0000
28.8500 1695.0000 1.0000
28.8600 1657.0000 1.0000
28.8700 1728.0000 1.0000
28.8800 1727.0000 1.0000
28.8900 1750.0000 1.0000
28.9000 1716.0000 1.0000
28.9100 1776.0000 1.0000
28.9200 1683.0000 1.0000
28.9300 1666.0000 1.0000
28.9400 1642.0000 1.0000
28.9500 1690.0000 1.0000
28.9600 1735.0000 1.0000
28.9700 1682.0000 1.0000
28.9800 1743.0000 1.0000
28.9900 1725.0000 1.0000
29.0000 1690.0000 1.0000
29.0100 1780.0000 1.0000
29.0200 1754.0000 1.0000
29.0300 1731.0000 1.0000
29.0400 1670.0000 1.0000
29.0500 1722.0000 1.0000
29.0600 1705.0000 1.0000
29.0700 1704.0000 1.0000
29.0800 1713.0000 1.0000
29.0900 1705.0000 1.0000
29.1000 1694.0000 1.0000
29.1100 1767.0000 1.0000
29.1200 1721.0000 1.0000
29.1300 1708.0000 1.0000
29.1400 1732.0000 1.0000
29.1500 1693.0000 1.0000
29.1600 1724.0000 1.0000
29.1700 1718.0000 1.0000
29.1800 1690.0000 1.0000
29.1900 1696.0000 1.0000
29.2000 1775.0000 1.0000
29.2100 1699.0000 1.0000
29.2200 1759.0000 1.0000
29.2300 1672.0000 1.0000
29.2400 1708.0000 1.0000
29.2500 1697.0000 1.0000
29.2600 1682.0000 1.0000
29.2700 1686.0000 1.0000
29.2800 1681.0000 1.0000
29.2900 1695.0000 1.0000
29.3000 1684.0000 1.0000
29.3100 1668.0000 1.0000
29.3200 1699.0000 1.0000
29.3300 1679.0000 1.0000
29.3400 1675.0000 1.0000
29.3500 1713.0000 1.0000
29.3600 1734.0000 1.0000
29.3700 1690.0000 1.0000
29.3800 1663.0000 1.0000
29.3900 1714.0000 1.0000
29.4000 1693.0000 1.0000
29.4100 1644.0000 1.0000
29.4200 1626.0000 1.0000
29.4300 1721.0000 1.0000
29.4400 1712.0000 1.0000
29.4500 1653.0000 1.0000
29.4600 1651.0000 1.0000
29.4700 1714.0000 1.0000
29.4800 1686.0000 1.0000
29.4900 1687.0000 1.0000
29.5000 1696.0000 1.0000
29.5100 1681.0000 1.0000
29.5200 1703.0000 1.0000
29.5300 1741.0000 1.0000
29.5400 1731.0000 1.0000
29.5500 1653.0000 1.0000
29.5600 1665.0000 1.0000
29.5700 1641.0000 1.0000
29.5800 1749.0000 1.0000
29.5900 1780.0000 1.0000
29.6000 1736.0000 1.0000
29.6100 1705.0000 1.0000
29.6200 1743.0000 1.0000
29.6300 1760.0000 1.0000
29.6400 1726.0000 1.0000
29.6500 1659.0000 1.0000
29.6600 1681.0000 1.0000
29.6700 1622.0000 1.0000
29.6800 1669.0000 1.0000
29.6900 1662.0000 1.0000
29.7000 1669.0000 1.0000
29.7100 1658.0000 1.0000
29.7200 1700.0000 1.0000
29.7300 1629.0000 1.0000
29.7400 1708.0000 1.0000
29.7500 1710.0000 1.0000
29.7600 1671.0000 1.0000
29.7700 1597.0000 1.0000
29.7800 1644.0000 1.0000
29.7900 1707.0000 1.0000
29.8000 1636.0000 1.0000
29.8100 1631.0000 1.0000
29.8200 1648.0000 1.0000
29.8300 1704.0000 1.0000
29.8400 1665.0000 1.0000
29.8500 1641.0000 1.0000
29.8600 1687.0000 1.0000
29.8700 1667.0000 1.0000
29.8800 1661.0000 1.0000
29.8900 1660.0000 1.0000
29.9000 1707.0000 1.0000
29.9100 1719.0000 1.0000
29.9200 1640.0000 1.0000
29.9300 1714.0000 1.0000
29.9400 1672.0000 1.0000
29.9500 1664.0000 1.0000
29.9600 1705.0000 1.0000
29.9700 1674.0000 1.0000
29.9800 1623.0000 1.0000
29.9900 1672.0000 1.0000
30.0000 1600.0000 1.0000
30.0100 1612.0000 1.0000
30.0200 1684.0000 1.0000
30.0300 1724.0000 1.0000
30.0400 1669.0000 1.0000
30.0500 1647.0000 1.0000
30.0600 1627.0000 1.0000
30.0700 1639.0000 1.0000
30.0800 1606.0000 1.0000
30.0900 1627.0000 1.0000
30.1000 1651.0000 1.0000
30.1100 1654.0000 1.0000
30.1200 1641.0000 1.0000
30.1300 1644.0000 1.0000
30.1400 1672.0000 1.0000
30.1500 1611.0000 1.0000
30.1600 1621.0000 1.0000
30.1700 1569.0000 1.0000
30.1800 1658.0000 1.0000
30.1900 1640.0000 1.0000
30.2000 1625.0000 1.0000
30.2100 1658.0000 1.0000
30.2200 1641.0000 1.0000
30.2300 1697.0000 1.0000
30.2400 1694.0000 1.0000
30.2500 1681.0000 1.0000
30.2600 1699.0000 1.0000
30.2700 1650.0000 1.0000
30.2800 1671.0000 1.0000
30.2900 1663.0000 1.0000
30.3000 1660.0000 1.0000
30.3100 1654.0000 1.0000
30.3200 1706.0000 1.0000
30.3300 1604.0000 1.0000
30.3400 1654.0000 1.0000
30.3500 1612.0000 1.0000
30.3600 1690.0000 1.0000
30.3700 1684.0000 1.0000
30.3800 1592.0000 1.0000
30.3900 1637.0000 1.0000
30.4000 1599.0000 1.0000
30.4100 1648.0000 1.0000
30.4200 1605.0000 1.0000
30.4300 1628.0000 1.0000
30.4400 1642.0000 1.0000
30.4500 1708.0000 1.0000
30.4600 1634.0000 1.0000
30.4700 1692.0000 1.0000
30.4800 1619.0000 1.0000
30.4900 1627.0000 1.0000
30.5000 1637.0000 1.0000
30.5100 1574.0000 1.0000
30.5200 1627.0000 1.0000
30.5300 1597.0000 1.0000
30.5400 1607.0000 1.0000
30.5500 1621.0000 1.0000
30.5600 1642.0000 1.0000
30.5700 1616.0000 1.0000
30.5800 1650.0000 1.0000
30.5900 1617.0000 1.0000
30.6000 1655.0000 1.0000
30.6100 1588.0000 1.0000
30.6200 1644.0000 1.0000
30.6300 1733.0000 1.0000
30.6400 1668.0000 1.0000
30.6500 1642.0000 1.0000
30.6600 1616.0000 1.0000
30.6700 1628.0000 1.0000
30.6800 1617.0000 1.0000
30.6900 1630.0000 1.0000
30.7000 1562.0000 1.0000
30.7100 1599.0000 1.0000
30.7200 1635.0000 1.0000
30.7300 1569.0000 1.0000
30.7400 1565.0000 1.0000
30.7500 1599.0000 1.0000
30.7600 1587.0000 1.0000
30.7700 1582.0000 1.0000
30.7800 1584.0000 1.0000
30.7900 1553.0000 1.0000
30.8000 1611.0000 1.0000
30.8100 1647.0000 1.0000
30.8200 1572.0000 1.0000
30.8300 1650.0000 1.0000
30.8400 1591.0000 1.0000
30.8500 1650.0000 1.0000
30.8600 1665.0000 1.0000
30.8700 1558.0000 1.0000
30.8800 1610.0000 1.0000
30.8900 1635.0000 1.0000
30.9000 1645.0000 1.0000
30.9100 1603.0000 1.0000
30.9200 1636.0000 1.0000
30.9300 1564.0000 1.0000
30.9400 1656.0000 1.0000
30.9500 1619.0000 1.0000
30.9600 1623.0000 1.0000
30.9700 1564.0000 1.0000
30.9800 1608.0000 1.0000
30.9900 1633.0000 1.0000
31.0000 1570.0000 1.0000
31.0100 1660.0000 1.0000
31.0200 1637.0000 1.0000
31.0300 1566.0000 1.0000
31.0400 1637.0000 1.0000
31.0500 1625.0000 1.0000
31.0600 1632.0000 1.0000
31.0700 1607.0000 1.0000
31.0800 1604.0000 1.0000
31.0900 1608.0000 1.0000
31.1000 1587.0000 1.0000
31.1100 1636.0000 1.0000
31.1200 1609.0000 1.0000
31.1300 1604.0000 1.0000
31.1400 1628.0000 1.0000
31.1500 1660.0000 1.0000
31.1600 1593.0000 1.0000
31.1700 1646.0000 1.0000
31.1800 1654.0000 1.0000
31.1900 1610.0000 1.0000
31.2000 1557.0000 1.0000
31.2100 1619.0000 1.0000
31.2200 1586.0000 1.0000
31.2300 1547.0000 1.0000
31.2400 1512.0000 1.0000
31.2500 1604.0000 1.0000
31.2600 1669.0000 1.0000
31.2700 1546.0000 1.0000
31.2800 1564.0000 1.0000
31.2900 1524.0000 1.0000
31.3000 1595.0000 1.0000
31.3100 1681.0000 1.0000
31.3200 1593.0000 1.0000
31.3300 1608.0000 1.0000
31.3400 1694.0000 1.0000
31.3500 1524.0000 1.0000
31.3600 1572.0000 1.0000
31.3700 1575.0000 1.0000
31.3800 1608.0000 1.0000
31.3900 1611.0000 1.0000
31.4000 1575.0000 1.0000
31.4100 1560.0000 1.0000
31.4200 1613.0000 1.0000
31.4300 1541.0000 1.0000
31.4400 1571.0000 1.0000
31.4500 1531.0000 1.0000
31.4600 1590.0000 1.0000
31.4700 1610.0000 1.0000
31.4800 1616.0000 1.0000
31.4900 1542.0000 1.0000
31.5000 1550.0000 1.0000
31.5100 1579.0000 1.0000
31.5200 1584.0000 1.0000
31.5300 1529.0000 1.0000
31.5400 1506.0000 1.0000
31.5500 1581.0000 1.0000
31.5600 1529.0000 1.0000
31.5700 1565.0000 1.0000
31.5800 1536.0000 1.0000
31.5900 1529.0000 1.0000
31.6000 1601.0000 1.0000
31.6100 1514.0000 1.0000
31.6200 1549.0000 1.0000
31.6300 1566.0000 1.0000
31.6400 1579.0000 1.0000
31.6500 1596.0000 1.0000
31.6600 1599.0000 1.0000
31.6700 1579.0000 1.0000
31.6800 1582.0000 1.0000
31.6900 1597.0000 1.0000
31.7000 1557.0000 1.0000
31.7100 1549.0000 1.0000
31.7200 1559.0000 1.0000
31.7300 1590.0000 1.0000
31.7400 1590.0000 1.0000
31.7500 1495.0000 1.0000
31.7600 1568.0000 1.0000
31.7700 1540.0000 1.0000
31.7800 1580.0000 1.0000
31.7900 1599.0000 1.0000
31.8000 1600.0000 1.0000
31.8100 1568.0000 1.0000
31.8200 1563.0000 1.0000
31.8300 1514.0000 1.0000
31.8400 1600.0000 1.0000
31.8500 1572.0000 1.0000
31.8600 1581.0000 1.0000
31.8700 1596.0000 1.0000
31.8800 1613.0000 1.0000
31.8900 1581.0000 1.0000
31.9000 1621.0000 1.0000
31.9100 1619.0000 1.0000
31.9200 1576.0000 1.0000
31.9300 1634.0000 1.0000
31.9400 1587.0000 1.0000
31.9500 1633.0000 1.0000
31.9600 1625.0000 1.0000
31.9700 1601.0000 1.0000
31.9800 1589.0000 1.0000
31.9900 1550.0000 1.0000
32.0000 1601.0000 1.0000
32.0100 1541.0000 1.0000
32.0200 1615.0000 1.0000
32.0300 1594.0000 1.0000
32.0400 1611.0000 1.0000
32.0500 1581.0000 1.0000
32.0600 1610.0000 1.0000
32.0700 1499.0000 1.0000
32.0800 1483.0000 1.0000
32.0900 1601.0000 1.0000
32.1000 1587.0000 1.0000
32.1100 1549.0000 1.0000
32.1200 1571.0000 1.0000
32.1300 1560.0000 1.0000
32.1400 1624.0000 1.0000
32.1500 1614.0000 1.0000
32.1600 1577.0000 1.0000
32.1700 1587.0000 1.0000
32.1800 1549.0000 1.0000
32.1900 1526.0000 1.0000
32.2000 1544.0000 1.0000
32.2100 1515.0000 1.0000
32.2200 1560.0000 1.0000
32.2300 1555.0000 1.0000
32.2400 1512.0000 1.0000
32.2500 1553.0000 1.0000
32.2600 1553.0000 1.0000
32.2700 1514.0000 1.0000
32.2800 1527.0000 1.0000
32.2900 1562.0000 1.0000
32.3000 1510.0000 1.0000
32.3100 1527.0000 1.0000
32.3200 1554.0000 1.0000
32.3300 1558.0000 1.0000
32.3400 1447.0000 1.0000
32.3500 1483.0000 1.0000
32.3600 1556.0000 1.0000
32.3700 1558.0000 1.0000
32.3800 1571.0000 1.0000
32.3900 1503.0000 1.0000
32.4000 1499.0000 1.0000
32.4100 1557.0000 1.0000
32.4200 1536.0000 1.0000
32.4300 1514.0000 1.0000
32.4400 1495.0000 1.0000
32.4500 1568.0000 1.0000
32.4600 1501.0000 1.0000
32.4700 1558.0000 1.0000
32.4800 1506.0000 1.0000
32.4900 1504.0000 1.0000
32.5000 1522.0000 1.0000
32.5100 1552.0000 1.0000
32.5200 1475.0000 1.0000
32.5300 1474.0000 1.0000
32.5400 1523.0000 1.0000
32.5500 1469.0000 1.0000
32.5600 1540.0000 1.0000
32.5700 1495.0000 1.0000
32.5800 1493.0000 1.0000
32.5900 1608.0000 1.0000
32.6000 1562.0000 1.0000
32.6100 1493.0000 1.0000
32.6200 1473.0000 1.0000
32.6300 1479.0000 1.0000
32.6400 1487.0000 1.0000
32.6500 1522.0000 1.0000
32.6600 1471.0000 1.0000
32.6700 1497.0000 1.0000
32.6800 1533.0000 1.0000
32.6900 1485.0000 1.0000
32.7000 1472.0000 1.0000
32.7100 1462.0000 1.0000
32.7200 1477.0000 1.0000
32.7300 1474.0000 1.0000
32.7400 1498.0000 1.0000
32.7500 1475.0000 1.0000
32.7600 1546.0000 1.0000
32.7700 1561.0000 1.0000
32.7800 1458.0000 1.0000
32.7900 1503.0000 1.0000
32.8000 1556.0000 1.0000
32.8100 1513.0000 1.0000
32.8200 1485.0000 1.0000
32.8300 1475.0000 1.0000
32.8400 1546.0000 1.0000
32.8500 1465.0000 1.0000
32.8600 1532.0000 1.0000
32.8700 1491.0000 1.0000
32.8800 1468.0000 1.0000
32.8900 1489.0000 1.0000
32.9000 1433.0000 1.0000
32.9100 1484.0000 1.0000
32.9200 1487.0000 1.0000
32.9300 1537.0000 1.0000
32.9400 1536.0000 1.0000
32.9500 1538.0000 1.0000
32.9600 1498.0000 1.0000
32.9700 1556.0000 1.0000
32.9800 1457.0000 1.0000
32.9900 1529.0000 1.0000
33.0000 1502.0000 1.0000
33.0100 1477.0000 1.0000
33.0200 1531.0000 1.0000
33.0300 1489.0000 1.0000
33.0400 1484.0000 1.0000
33.0500 1496.0000 1.0000
33.0600 1483.0000 1.0000
33.0700 1451.0000 1.0000
33.0800 1487.0000 1.0000
33.0900 1472.0000 1.0000
33.1000 1526.0000 1.0000
33.1100 1472.0000 1.0000
33.1200 1443.0000 1.0000
33.1300 1577.0000 1.0000
33.1400 1519.0000 1.0000
33.1500 1457.0000 1.0000
33.1600 1499.0000 1.0000
33.1700 1491.0000 1.0000
33.1800 1428.0000 1.0000
33.1900 1547.0000 1.0000
33.2000 1506.0000 1.0000
33.2100 1441.0000 1.0000
33.2200 1517.0000 1.0000
33.2300 1512.0000 1.0000
33.2400 1520.0000 1.0000
33.2500 1508.0000 1.0000
33.2600 1474.0000 1.0000
33.2700 1443.0000 1.0000
33.2800 1444.0000 1.0000
33.2900 1479.0000 1.0000
33.3000 1437.0000 1.0000
33.3100 1503.0000 1.0000
33.3200 1463.0000 1.0000
33.3300 1523.0000 1.0000
33.3400 1460.0000 1.0000
33.3500 1392.0000 1.0000
33.3600 1449.0000 1.0000
33.3700 1493.0000 1.0000
33.3800 1513.0000 1.0000
33.3900 1441.0000 1.0000
33.4000 1450.0000 1.0000
33.4100 1505.0000 1.0000
33.4200 1480.0000 1.0000
33.4300 1501.0000 1.0000
33.4400 1528.0000 1.0000
33.4500 1550.0000 1.0000
33.4600 1492.0000 1.0000
33.4700 1535.0000 1.0000
33.4800 1483.0000 1.0000
33.4900 1481.0000 1.0000
33.5000 1527.0000 1.0000
33.5100 1508.0000 1.0000
33.5200 1428.0000 1.0000
33.5300 1517.0000 1.0000
33.5400 1512.0000 1.0000
33.5500 1489.0000 1.0000
33.5600 1502.0000 1.0000
33.5700 1467.0000 1.0000
33.5800 1506.0000 1.0000
33.5900 1502.0000 1.0000
33.6000 1507.0000 1.0000
33.6100 1455.0000 1.0000
33.6200 1496.0000 1.0000
33.6300 1470.0000 1.0000
33.6400 1415.0000 1.0000
33.6500 1458.0000 1.0000
33.6600 1491.0000 1.0000
33.6700 1446.0000 1.0000
33.6800 1499.0000 1.0000
33.6900 1539.0000 1.0000
33.7000 1515.0000 1.0000
33.7100 1589.0000 1.0000
33.7200 1563.0000 1.0000
33.7300 1576.0000 1.0000
33.7400 1559.0000 1.0000
33.7500 1525.0000 1.0000
33.7600 1520.0000 1.0000
33.7700 1588.0000 1.0000
33.7800 1543.0000 1.0000
33.7900 1601.0000 1.0000
33.8000 1532.0000 1.0000
33.8100 1546.0000 1.0000
33.8200 1520.0000 1.0000
33.8300 1556.0000 1.0000
33.8400 1530.0000 1.0000
33.8500 1579.0000 1.0000
33.8600 1624.0000 1.0000
33.8700 1700.0000 1.0000
33.8800 1652.0000 1.0000
33.8900 1638.0000 1.0000
33.9000 1554.0000 1.0000
33.9100 1628.0000 1.0000
33.9200 1650.0000 1.0000
33.9300 1645.0000 1.0000
33.9400 1606.0000 1.0000
33.9500 1583.0000 1.0000
33.9600 1640.0000 1.0000
33.9700 1638.0000 1.0000
33.9800 1578.0000 1.0000
33.9900 1645.0000 1.0000
34.0000 1566.0000 1.0000
34.0100 1545.0000 1.0000
34.0200 1632.0000 1.0000
34.0300 1578.0000 1.0000
34.0400 1656.0000 1.0000
34.0500 1607.0000 1.0000
34.0600 1612.0000 1.0000
34.0700 1624.0000 1.0000
34.0800 1612.0000 1.0000
34.0900 1605.0000 1.0000
34.1000 1674.0000 1.0000
34.1100 1626.0000 1.0000
34.1200 1632.0000 1.0000
34.1300 1617.0000 1.0000
34.1400 1647.0000 1.0000
34.1500 1729.0000 1.0000
34.1600 1673.0000 1.0000
34.1700 1729.0000 1.0000
34.1800 1751.0000 1.0000
34.1900 1742.0000 1.0000
34.2000 1681.0000 1.0000
34.2100 1745.0000 1.0000
34.2200 1780.0000 1.0000
34.2300 1782.0000 1.0000
34.2400 1840.0000 1.0000
34.2500 1899.0000 1.0000
34.2600 1919.0000 1.0000
34.2700 1964.0000 1.0000
34.2800 1888.0000 1.0000
34.2900 1935.0000 1.0000
34.3000 1923.0000 1.0000
34.3100 1986.0000 1.0000
34.3200 2065.0000 1.0000
34.3300 2184.0000 1.0000
34.3400 2151.0000 1.0000
34.3500 2285.0000 1.0000
34.3600 2339.0000 1.0000
34.3700 2398.0000 1.0000
34.3800 2500.0000 1.0000
34.3900 2614.0000 1.0000
34.4000 2794.0000 1.0000
34.4100 2792.0000 1.0000
34.4200 2899.0000 1.0000
34.4300 3044.0000 1.0000
34.4400 3040.0000 1.0000
34.4500 3074.0000 1.0000
34.4600 3159.0000 1.0000
34.4700 3130.0000 1.0000
34.4800 3126.0000 1.0000
34.4900 3095.0000 1.0000
34.5000 3024.0000 1.0000
34.5100 3085.0000 1.0000
34.5200 2956.0000 1.0000
34.5300 2881.0000 1.0000
34.5400 2871.0000 1.0000
34.5500 2813.0000 1.0000
34.5600 2750.0000 1.0000
34.5700 2642.0000 1.0000
34.5800 2543.0000 1.0000
34.5900 2504.0000 1.0000
34.6000 2409.0000 1.0000
34.6100 2447.0000 1.0000
34.6200 2261.0000 1.0000
34.6300 2251.0000 1.0000
34.6400 2137.0000 1.0000
34.6500 2051.0000 1.0000
34.6600 2148.0000 1.0000
34.6700 2059.0000 1.0000
34.6800 1928.0000 1.0000
34.6900 2007.0000 1.0000
34.7000 1883.0000 1.0000
34.7100 1851.0000 1.0000
34.7200 1796.0000 1.0000
34.7300 1822.0000 1.0000
34.7400 1729.0000 1.0000
34.7500 1755.0000 1.0000
34.7600 1763.0000 1.0000
34.7700 1704.0000 1.0000
34.7800 1685.0000 1.0000
34.7900 1732.0000 1.0000
34.8000 1604.0000 1.0000
34.8100 1611.0000 1.0000
34.8200 1583.0000 1.0000
34.8300 1583.0000 1.0000
34.8400 1629.0000 1.0000
34.8500 1573.0000 1.0000
34.8600 1503.0000 1.0000
34.8700 1524.0000 1.0000
34.8800 1540.0000 1.0000
34.8900 1595.0000 1.0000
34.9000 1506.0000 1.0000
34.9100 1536.0000 1.0000
34.9200 1562.0000 1.0000
34.9300 1521.0000 1.0000
34.9400 1528.0000 1.0000
34.9500 1535.0000 1.0000
34.9600 1494.0000 1.0000
34.9700 1436.0000 1.0000
34.9800 1454.0000 1.0000
34.9900 1466.0000 1.0000
35.0000 1470.0000 1.0000
35.0100 1450.0000 1.0000
35.0200 1463.0000 1.0000
35.0300 1403.0000 1.0000
35.0400 1455.0000 1.0000
35.0500 1445.0000 1.0000
35.0600 1374.0000 1.0000
35.0700 1423.0000 1.0000
35.0800 1442.0000 1.0000
35.0900 1353.0000 1.0000
35.1000 1374.0000 1.0000
35.1100 1366.0000 1.0000
35.1200 1415.0000 1.0000
35.1300 1357.0000 1.0000
35.1400 1407.0000 1.0000
35.1500 1352.0000 1.0000
35.1600 1322.0000 1.0000
35.1700 1360.0000 1.0000
35.1800 1359.0000 1.0000
35.1900 1356.0000 1.0000
35.2000 1338.0000 1.0000
35.2100 1403.0000 1.0000
35.2200 1394.0000 1.0000
35.2300 1354.0000 1.0000
35.2400 1367.0000 1.0000
35.2500 1358.0000 1.0000
35.2600 1351.0000 1.0000
35.2700 1312.0000 1.0000
35.2800 1378.0000 1.0000
35.2900 1376.0000 1.0000
35.3000 1324.0000 1.0000
35.3100 1390.0000 1.0000
35.3200 1312.0000 1.0000
35.3300 1350.0000 1.0000
35.3400 1406.0000 1.0000
35.3500 1372.0000 1.0000
35.3600 1346.0000 1.0000
35.3700 1337.0000 1.0000
35.3800 1346.0000 1.0000
35.3900 1414.0000 1.0000
35.4000 1336.0000 1.0000
35.4100 1332.0000 1.0000
35.4200 1363.0000 1.0000
35.4300 1377.0000 1.0000
35.4400 1291.0000 1.0000
35.4500 1307.0000 1.0000
35.4600 1312.0000 1.0000
35.4700 1317.0000 1.0000
35.4800 1309.0000 1.0000
35.4900 1347.0000 1.0000
35.5000 1310.0000 1.0000
35.5100 1355.0000 1.0000
35.5200 1352.0000 1.0000
35.5300 1297.0000 1.0000
35.5400 1336.0000 1.0000
35.5500 1289.0000 1.0000
35.5600 1276.0000 1.0000
35.5700 1311.0000 1.0000
35.5800 1296.0000 1.0000
35.5900 1326.0000 1.0000
35.6000 1328.0000 1.0000
35.6100 1274.0000 1.0000
35.6200 1274.0000 1.0000
35.6300 1303.0000 1.0000
35.6400 1277.0000 1.0000
35.6500 1341.0000 1.0000
35.6600 1291.0000 1.0000
35.6700 1333.0000 1.0000
35.6800 1363.0000 1.0000
35.6900 1294.0000 1.0000
35.7000 1294.0000 1.0000
35.7100 1324.0000 1.0000
35.7200 1371.0000 1.0000
35.7300 1290.0000 1.0000
35.7400 1282.0000 1.0000
35.7500 1269.0000 1.0000
35.7600 1329.0000 1.0000
35.7700 1271.0000 1.0000
35.7800 1294.0000 1.0000
35.7900 1296.0000 1.0000
35.8000 1293.0000 1.0000
35.8100 1324.0000 1.0000
35.8200 1299.0000 1.0000
35.8300 1339.0000 1.0000
35.8400 1321.0000 1.0000
35.8500 1307.0000 1.0000
35.8600 1319.0000 1.0000
35.8700 1278.0000 1.0000
35.8800 1347.0000 1.0000
35.8900 1318.0000 1.0000
35.9000 1346.0000 1.0000
35.9100 1300.0000 1.0000
35.9200 1346.0000 1.0000
35.9300 1299.0000 1.0000
35.9400 1312.0000 1.0000
35.9500 1314.0000 1.0000
35.9600 1312.0000 1.0000
35.9700 1289.0000 1.0000
35.9800 1335.0000 1.0000
35.9900 1331.0000 1.0000
36.0000 1309.0000 1.0000
36.0100 1402.0000 1.0000
36.0200 1315.0000 1.0000
36.0300 1384.0000 1.0000
36.0400 1359.0000 1.0000
36.0500 1315.0000 1.0000
36.0600 1360.0000 1.0000
36.0700 1400.0000 1.0000
36.0800 1442.0000 1.0000
36.0900 1380.0000 1.0000
36.1000 1395.0000 1.0000
36.1100 1459.0000 1.0000
36.1200 1470.0000 1.0000
36.1300 1449.0000 1.0000
36.1400 1529.0000 1.0000
36.1500 1514.0000 1.0000
36.1600 1531.0000 1.0000
36.1700 1564.0000 1.0000
36.1800 1663.0000 1.0000
36.1900 1639.0000 1.0000
36.2000 1648.0000 1.0000
36.2100 1676.0000 1.0000
36.2200 1682.0000 1.0000
36.2300 1709.0000 1.0000
36.2400 1726.0000 1.0000
36.2500 1814.0000 1.0000
36.2600 1837.0000 1.0000
36.2700 1912.0000 1.0000
36.2800 1855.0000 1.0000
36.2900 1979.0000 1.0000
36.3000 1939.0000 1.0000
36.3100 2080.0000 1.0000
36.3200 2150.0000 1.0000
36.3300 2075.0000 1.0000
36.3400 2165.0000 1.0000
36.3500 2216.0000 1.0000
36.3600 2162.0000 1.0000
36.3700 2206.0000 1.0000
36.3800 2217.0000 1.0000
36.3900 2285.0000 1.0000
36.4000 2189.0000 1.0000
36.4100 2207.0000 1.0000
36.4200 2226.0000 1.0000
36.4300 2290.0000 1.0000
36.4400 2246.0000 1.0000
36.4500 2090.0000 1.0000
36.4600 2078.0000 1.0000
36.4700 2101.0000 1.0000
36.4800 2111.0000 1.0000
36.4900 2037.0000 1.0000
36.5000 2035.0000 1.0000
36.5100 1893.0000 1.0000
36.5200 1851.0000 1.0000
36.5300 1850.0000 1.0000
36.5400 1809.0000 1.0000
36.5500 1762.0000 1.0000
36.5600 1657.0000 1.0000
36.5700 1700.0000 1.0000
36.5800 1656.0000 1.0000
36.5900 1587.0000 1.0000
36.6000 1538.0000 1.0000
36.6100 1556.0000 1.0000
36.6200 1461.0000 1.0000
36.6300 1425.0000 1.0000
36.6400 1454.0000 1.0000
36.6500 1475.0000 1.0000
36.6600 1478.0000 1.0000
36.6700 1426.0000 1.0000
36.6800 1363.0000 1.0000
36.6900 1384.0000 1.0000
36.7000 1423.0000 1.0000
36.7100 1340.0000 1.0000
36.7200 1293.0000 1.0000
36.7300 1317.0000 1.0000
36.7400 1312.0000 1.0000
36.7500 1309.0000 1.0000
36.7600 1298.0000 1.0000
36.7700 1279.0000 1.0000
36.7800 1316.0000 1.0000
36.7900 1273.0000 1.0000
36.8000 1298.0000 1.0000
36.8100 1342.0000 1.0000
36.8200 1245.0000 1.0000
36.8300 1226.0000 1.0000
36.8400 1255.0000 1.0000
36.8500 1249.0000 1.0000
36.8600 1251.0000 1.0000
36.8700 1174.0000 1.0000
36.8800 1248.0000 1.0000
36.8900 1266.0000 1.0000
36.9000 1273.0000 1.0000
36.9100 1256.0000 1.0000
36.9200 1297.0000 1.0000
36.9300 1253.0000 1.0000
36.9400 1262.0000 1.0000
36.9500 1251.0000 1.0000
36.9600 1216.0000 1.0000
36.9700 1197.0000 1.0000
36.9800 1216.0000 1.0000
36.9900 1214.0000 1.0000
37.0000 1183.0000 1.0000
37.0100 1260.0000 1.0000
37.0200 1223.0000 1.0000
37.0300 1221.0000 1.0000
37.0400 1267.0000 1.0000
37.0500 1175.0000 1.0000
37.0600 1180.0000 1.0000
37.0700 1237.0000 1.0000
37.0800 1179.0000 1.0000
37.0900 1207.0000 1.0000
37.1000 1189.0000 1.0000
37.1100 1218.0000 1.0000
37.1200 1187.0000 1.0000
37.1300 1271.0000 1.0000
37.1400 1239.0000 1.0000
37.1500 1176.0000 1.0000
37.1600 1166.0000 1.0000
37.1700 1248.0000 1.0000
37.1800 1178.0000 1.0000
37.1900 1240.0000 1.0000
37.2000 1238.0000 1.0000
37.2100 1237.0000 1.0000
37.2200 1189.0000 1.0000
37.2300 1226.0000 1.0000
37.2400 1239.0000 1.0000
37.2500 1230.0000 1.0000
37.2600 1209.0000 1.0000
37.2700 1205.0000 1.0000
37.2800 1212.0000 1.0000
37.2900 1228.0000 1.0000
37.3000 1157.0000 1.0000
37.3100 1209.0000 1.0000
37.3200 1206.0000 1.0000
37.3300 1201.0000 1.0000
37.3400 1187.0000 1.0000
37.3500 1223.0000 1.0000
37.3600 1244.0000 1.0000
37.3700 1212.0000 1.0000
37.3800 1240.0000 1.0000
37.3900 1212.0000 1.0000
37.4000 1199.0000 1.0000
37.4100 1134.0000 1.0000
37.4200 1218.0000 1.0000
37.4300 1209.0000 1.0000
37.4400 1178.0000 1.0000
37.4500 1212.0000 1.0000
37.4600 1198.0000 1.0000
37.4700 1199.0000 1.0000
37.4800 1186.0000 1.0000
37.4900 1225.0000 1.0000
37.5000 1193.0000 1.0000
37.5100 1218.0000 1.0000
37.5200 1190.0000 1.0000
37.5300 1169.0000 1.0000
37.5400 1195.0000 1.0000
37.5500 1209.0000 1.0000
37.5600 1232.0000 1.0000
37.5700 1157.0000 1.0000
37.5800 1224.0000 1.0000
37.5900 1232.0000 1.0000
37.6000 1200.0000 1.0000
37.6100 1217.0000 1.0000
37.6200 1194.0000 1.0000
37.6300 1161.0000 1.0000
37.6400 1240.0000 1.0000
37.6500 1242.0000 1.0000
37.6600 1199.0000 1.0000
37.6700 1262.0000 1.0000
37.6800 1232.0000 1.0000
37.6900 1196.0000 1.0000
37.7000 1197.0000 1.0000
37.7100 1218.0000 1.0000
37.7200 1173.0000 1.0000
37.7300 1204.0000 1.0000
37.7400 1229.0000 1.0000
37.7500 1213.0000 1.0000
37.7600 1181.0000 1.0000
37.7700 1171.0000 1.0000
37.7800 1201.0000 1.0000
37.7900 1220.0000 1.0000
37.8000 1257.0000 1.0000
37.8100 1239.0000 1.0000
37.8200 1195.0000 1.0000
37.8300 1184.0000 1.0000
37.8400 1228.0000 1.0000
37.8500 1209.0000 1.0000
37.8600 1226.0000 1.0000
37.8700 1272.0000 1.0000
37.8800 1207.0000 1.0000
37.8900 1243.0000 1.0000
37.9000 1257.0000 1.0000
37.9100 1283.0000 1.0000
37.9200 1215.0000 1.0000
37.9300 1218.0000 1.0000
37.9400 1239.0000 1.0000
37.9500 1260.0000 1.0000
37.9600 1224.0000 1.0000
37.9700 1261.0000 1.0000
37.9800 1288.0000 1.0000
37.9900 1253.0000 1.0000
38.0000 1314.0000 1.0000
38.0100 1324.0000 1.0000
38.0200 1259.0000 1.0000
38.0300 1317.0000 1.0000
38.0400 1242.0000 1.0000
38.0500 1328.0000 1.0000
38.0600 1375.0000 1.0000
38.0700 1356.0000 1.0000
38.0800 1436.0000 1.0000
38.0900 1388.0000 1.0000
38.1000 1424.0000 1.0000
38.1100 1383.0000 1.0000
38.1200 1433.0000 1.0000
38.1300 1439.0000 1.0000
38.1400 1476.0000 1.0000
38.1500 1523.0000 1.0000
38.1600 1604.0000 1.0000
38.1700 1575.0000 1.0000
38.1800 1656.0000 1.0000
38.1900 1625.0000 1.0000
38.2000 1779.0000 1.0000
38.2100 1813.0000 1.0000
38.2200 1831.0000 1.0000
38.2300 1944.0000 1.0000
38.2400 2008.0000 1.0000
38.2500 2042.0000 1.0000
38.2600 2140.0000 1.0000
38.2700 2177.0000 1.0000
38.2800 2336.0000 1.0000
38.2900 2360.0000 1.0000
38.3000 2471.0000 1.0000
38.3100 2638.0000 1.0000
38.3200 2684.0000 1.0000
38.3300 2840.0000 1.0000
38.3400 3053.0000 1.0000
38.3500 3205.0000 1.0000
38.3600 3532.0000 1.0000
38.3700 3714.0000 1.0000
38.3800 3921.0000 1.0000
38.3900 4146.0000 1.0000
38.4000 4557.0000 1.0000
38.4100 4839.0000 1.0000
38.4200 5233.0000 1.0000
38.4300 5524.0000 1.0000
38.4400 5850.0000 1.0000
38.4500 6431.0000 1.0000
38.4600 6684.0000 1.0000
38.4700 7120.0000 1.0000
38.4800 7311.0000 1.0000
38.4900 7640.0000 1.0000
38.5000 7753.0000 1.0000
38.5100 7768.0000 1.0000
38.5200 7959.0000 1.0000
38.5300 7931.0000 1.0000
38.5400 7796.0000 1.0000
38.5500 7619.0000 1.0000
38.5600 7553.0000 1.0000
38.5700 7428.0000 1.0000
38.5800 7203.0000 1.0000
38.5900 6826.0000 1.0000
38.6000 6594.0000 1.0000
38.6100 6281.0000 1.0000
38.6200 6107.0000 1.0000
38.6300 5724.0000 1.0000
38.6400 5296.0000 1.0000
38.6500 4988.0000 1.0000
38.6600 4632.0000 1.0000
38.6700 4418.0000 1.0000
38.6800 4124.0000 1.0000
38.6900 3849.0000 1.0000
38.7000 3586.0000 1.0000
38.7100 3388.0000 1.0000
38.7200 3175.0000 1.0000
38.7300 3060.0000 1.0000
38.7400 2865.0000 1.0000
38.7500 2647.0000 1.0000
38.7600 2522.0000 1.0000
38.7700 2405.0000 1.0000
38.7800 2328.0000 1.0000
38.7900 2174.0000 1.0000
38.8000 2059.0000 1.0000
38.8100 2018.0000 1.0000
38.8200 1889.0000 1.0000
38.8300 1848.0000 1.0000
38.8400 1754.0000 1.0000
38.8500 1650.0000 1.0000
38.8600 1606.0000 1.0000
38.8700 1614.0000 1.0000
38.8800 1550.0000 1.0000
38.8900 1587.0000 1.0000
38.9000 1475.0000 1.0000
38.9100 1452.0000 1.0000
38.9200 1469.0000 1.0000
38.9300 1387.0000 1.0000
38.9400 1423.0000 1.0000
38.9500 1375.0000 1.0000
38.9600 1355.0000 1.0000
38.9700 1383.0000 1.0000
38.9800 1252.0000 1.0000
38.9900 1251.0000 1.0000
39.0000 1250.0000 1.0000
39.0100 1270.0000 1.0000
39.0200 1234.0000 1.0000
39.0300 1240.0000 1.0000
39.0400 1213.0000 1.0000
39.0500 1251.0000 1.0000
39.0600 1226.0000 1.0000
39.0700 1203.0000 1.0000
39.0800 1181.0000 1.0000
39.0900 1163.0000 1.0000
39.1000 1211.0000 1.0000
39.1100 1128.0000 1.0000
39.1200 1180.0000 1.0000
39.1300 1165.0000 1.0000
39.1400 1115.0000 1.0000
39.1500 1167.0000 1.0000
39.1600 1153.0000 1.0000
39.1700 1159.0000 1.0000
39.1800 1185.0000 1.0000
39.1900 1139.0000 1.0000
39.2000 1173.0000 1.0000
39.2100 1132.0000 1.0000
39.2200 1137.0000 1.0000
39.2300 1143.0000 1.0000
39.2400 1135.0000 1.0000
39.2500 1101.0000 1.0000
39.2600 1148.0000 1.0000
39.2700 1101.0000 1.0000
39.2800 1048.0000 1.0000
39.2900 1085.0000 1.0000
39.3000 1087.0000 1.0000
39.3100 1088.0000 1.0000
39.3200 1057.0000 1.0000
39.3300 1113.0000 1.0000
39.3400 1128.0000 1.0000
39.3500 1096.0000 1.0000
39.3600 1082.0000 1.0000
39.3700 1130.0000 1.0000
39.3800 1098.0000 1.0000
39.3900 1026.0000 1.0000
39.4000 1068.0000 1.0000
39.4100 1076.0000 1.0000
39.4200 1127.0000 1.0000
39.4300 1075.0000 1.0000
39.4400 1105.0000 1.0000
39.4500 1141.0000 1.0000
39.4600 1100.0000 1.0000
39.4700 1069.0000 1.0000
39.4800 1060.0000 1.0000
39.4900 1098.0000 1.0000
39.5000 1123.0000 1.0000
39.5100 1154.0000 1.0000
39.5200 1142.0000 1.0000
39.5300 1151.0000 1.0000
39.5400 1106.0000 1.0000
39.5500 1129.0000 1.0000
39.5600 1091.0000 1.0000
39.5700 1096.0000 1.0000
39.5800 1152.0000 1.0000
39.5900 1156.0000 1.0000
39.6000 1115.0000 1.0000
39.6100 1083.0000 1.0000
39.6200 1136.0000 1.0000
39.6300 1169.0000 1.0000
39.6400 1072.0000 1.0000
39.6500 1074.0000 1.0000
39.6600 1107.0000 1.0000
39.6700 1074.0000 1.0000
39.6800 1094.0000 1.0000
39.6900 1139.0000 1.0000
39.7000 1126.0000 1.0000
39.7100 1078.0000 1.0000
39.7200 1073.0000 1.0000
39.7300 1133.0000 1.0000
39.7400 1103.0000 1.0000
39.7500 1095.0000 1.0000
39.7600 1041.0000 1.0000
39.7700 1053.0000 1.0000
39.7800 1065.0000 1.0000
39.7900 1064.0000 1.0000
39.8000 1014.0000 1.0000
39.8100 1066.0000 1.0000
39.8200 1059.0000 1.0000
39.8300 1028.0000 1.0000
39.8400 1074.0000 1.0000
39.8500 1103.0000 1.0000
39.8600 1027.0000 1.0000
39.8700 1041.0000 1.0000
39.8800 1032.0000 1.0000
39.8900 1062.0000 1.0000
39.9000 1039.0000 1.0000
39.9100 1032.0000 1.0000
39.9200 1079.0000 1.0000
39.9300 1029.0000 1.0000
39.9400 1041.0000 1.0000
39.9500 1052.0000 1.0000
39.9600 1051.0000 1.0000
39.9700 1023.0000 1.0000
39.9800 1051.0000 1.0000
39.9900 1020.0000 1.0000
40.0000 1050.0000 1.0000
40.0100 1054.0000 1.0000
40.0200 1053.0000 1.0000
40.0300 1044.0000 1.0000
40.0400 1033.0000 1.0000
40.0500 1008.0000 1.0000
40.0600 1022.0000 1.0000
40.0700 1005.0000 1.0000
40.0800 1011.0000 1.0000
40.0900 1043.0000 1.0000
40.1000 993.0000 1.0000
40.1100 1044.0000 1.0000
40.1200 1040.0000 1.0000
40.1300 1030.0000 1.0000
40.1400 1027.0000 1.0000
40.1500 989.0000 1.0000
40.1600 1125.0000 1.0000
40.1700 1004.0000 1.0000
40.1800 983.0000 1.0000
40.1900 1014.0000 1.0000
40.2000 1006.0000 1.0000
40.2100 1005.0000 1.0000
40.2200 1025.0000 1.0000
40.2300 974.0000 1.0000
40.2400 1040.0000 1.0000
40.2500 1026.0000 1.0000
40.2600 1020.0000 1.0000
40.2700 1007.0000 1.0000
40.2800 986.0000 1.0000
40.2900 1010.0000 1.0000
40.3000 989.0000 1.0000
40.3100 993.0000 1.0000
40.3200 972.0000 1.0000
40.3300 986.0000 1.0000
40.3400 1024.0000 1.0000
40.3500 1047.0000 1.0000
40.3600 953.0000 1.0000
40.3700 1000.0000 1.0000
40.3800 1033.0000 1.0000
40.3900 1031.0000 1.0000
40.4000 1045.0000 1.0000
40.4100 948.0000 1.0000
40.4200 1016.0000 1.0000
40.4300 1004.0000 1.0000
40.4400 994.0000 1.0000
40.4500 1054.0000 1.0000
40.4600 1030.0000 1.0000
40.4700 1014.0000 1.0000
40.4800 993.0000 1.0000
40.4900 1036.0000 1.0000
40.5000 999.0000 1.0000
40.5100 1026.0000 1.0000
40.5200 1023.0000 1.0000
40.5300 1051.0000 1.0000
40.5400 1014.0000 1.0000
40.5500 1020.0000 1.0000
40.5600 985.0000 1.0000
40.5700 988.0000 1.0000
40.5800 951.0000 1.0000
40.5900 940.0000 1.0000
40.6000 988.0000 1.0000
40.6100 1009.0000 1.0000
40.6200 971.0000 1.0000
40.6300 1020.0000 1.0000
40.6400 978.0000 1.0000
40.6500 1000.0000 1.0000
40.6600 1017.0000 1.0000
40.6700 1008.0000 1.0000
40.6800 995.0000 1.0000
40.6900 1008.0000 1.0000
40.7000 1016.0000 1.0000
40.7100 993.0000 1.0000
40.7200 999.0000 1.0000
40.7300 987.0000 1.0000
40.7400 1032.0000 1.0000
40.7500 972.0000 1.0000
40.7600 1005.0000 1.0000
40.7700 1050.0000 1.0000
40.7800 1043.0000 1.0000
40.7900 1013.0000 1.0000
40.8000 934.0000 1.0000
40.8100 982.0000 1.0000
40.8200 936.0000 1.0000
40.8300 951.0000 1.0000
40.8400 979.0000 1.0000
40.8500 991.0000 1.0000
40.8600 1015.0000 1.0000
40.8700 983.0000 1.0000
40.8800 992.0000 1.0000
40.8900 982.0000 1.0000
40.9000 1007.0000 1.0000
40.9100 1009.0000 1.0000
40.9200 955.0000 1.0000
40.9300 959.0000 1.0000
40.9400 953.0000 1.0000
40.9500 993.0000 1.0000
40.9600 949.0000 1.0000
40.9700 986.0000 1.0000
40.9800 953.0000 1.0000
40.9900 926.0000 1.0000
41.0000 1025.0000 1.0000
41.0100 976.0000 1.0000
41.0200 958.0000 1.0000
41.0300 956.0000 1.0000
41.0400 1002.0000 1.0000
41.0500 963.0000 1.0000
41.0600 930.0000 1.0000
41.0700 967.0000 1.0000
41.0800 1006.0000 1.0000
41.0900 1007.0000 1.0000
41.1000 977.0000 1.0000
41.1100 964.0000 1.0000
41.1200 963.0000 1.0000
41.1300 1017.0000 1.0000
41.1400 993.0000 1.0000
41.1500 979.0000 1.0000
41.1600 1016.0000 1.0000
41.1700 1004.0000 1.0000
41.1800 978.0000 1.0000
41.1900 1014.0000 1.0000
41.2000 964.0000 1.0000
41.2100 960.0000 1.0000
41.2200 1007.0000 1.0000
41.2300 1006.0000 1.0000
41.2400 985.0000 1.0000
41.2500 942.0000 1.0000
41.2600 991.0000 1.0000
41.2700 983.0000 1.0000
41.2800 919.0000 1.0000
41.2900 982.0000 1.0000
41.3000 966.0000 1.0000
41.3100 995.0000 1.0000
41.3200 969.0000 1.0000
41.3300 957.0000 1.0000
41.3400 941.0000 1.0000
41.3500 978.0000 1.0000
41.3600 998.0000 1.0000
41.3700 950.0000 1.0000
41.3800 932.0000 1.0000
41.3900 933.0000 1.0000
41.4000 1013.0000 1.0000
41.4100 1006.0000 1.0000
41.4200 986.0000 1.0000
41.4300 967.0000 1.0000
41.4400 988.0000 1.0000
41.4500 994.0000 1.0000
41.4600 998.0000 1.0000
41.4700 998.0000 1.0000
41.4800 1020.0000 1.0000
41.4900 971.0000 1.0000
41.5000 1032.0000 1.0000
41.5100 1014.0000 1.0000
41.5200 986.0000 1.0000
41.5300 1023.0000 1.0000
41.5400 978.0000 1.0000
41.5500 966.0000 1.0000
41.5600 1003.0000 1.0000
41.5700 992.0000 1.0000
41.5800 1002.0000 1.0000
41.5900 960.0000 1.0000
41.6000 946.0000 1.0000
41.6100 995.0000 1.0000
41.6200 977.0000 1.0000
41.6300 1006.0000 1.0000
41.6400 1012.0000 1.0000
41.6500 1009.0000 1.0000
41.6600 956.0000 1.0000
41.6700 960.0000 1.0000
41.6800 955.0000 1.0000
41.6900 929.0000 1.0000
41.7000 984.0000 1.0000
41.7100 971.0000 1.0000
41.7200 990.0000 1.0000
41.7300 995.0000 1.0000
41.7400 986.0000 1.0000
41.7500 943.0000 1.0000
41.7600 1060.0000 1.0000
41.7700 1021.0000 1.0000
41.7800 989.0000 1.0000
41.7900 1033.0000 1.0000
41.8000 967.0000 1.0000
41.8100 911.0000 1.0000
41.8200 980.0000 1.0000
41.8300 988.0000 1.0000
41.8400 967.0000 1.0000
41.8500 1047.0000 1.0000
41.8600 969.0000 1.0000
41.8700 1000.0000 1.0000
41.8800 996.0000 1.0000
41.8900 1000.0000 1.0000
41.9000 933.0000 1.0000
41.9100 975.0000 1.0000
41.9200 967.0000 1.0000
41.9300 985.0000 1.0000
41.9400 1037.0000 1.0000
41.9500 987.0000 1.0000
41.9600 980.0000 1.0000
41.9700 994.0000 1.0000
41.9800 976.0000 1.0000
41.9900 944.0000 1.0000
42.0000 994.0000 1.0000
42.0100 938.0000 1.0000
42.0200 935.0000 1.0000
42.0300 965.0000 1.0000
42.0400 984.0000 1.0000
42.0500 977.0000 1.0000
42.0600 984.0000 1.0000
42.0700 1004.0000 1.0000
42.0800 938.0000 1.0000
42.0900 921.0000 1.0000
42.1000 976.0000 1.0000
42.1100 960.0000 1.0000
42.1200 978.0000 1.0000
42.1300 964.0000 1.0000
42.1400 978.0000 1.0000
42.1500 989.0000 1.0000
42.1600 965.0000 1.0000
42.1700 976.0000 1.0000
42.1800 989.0000 1.0000
42.1900 969.0000 1.0000
42.2000 955.0000 1.0000
42.2100 1005.0000 1.0000
42.2200 967.0000 1.0000
42.2300 966.0000 1.0000
42.2400 986.0000 1.0000
42.2500 932.0000 1.0000
42.2600 965.0000 1.0000
42.2700 959.0000 1.0000
42.2800 990.0000 1.0000
42.2900 919.0000 1.0000
42.3000 962.0000 1.0000
42.3100 1024.0000 1.0000
42.3200 925.0000 1.0000
42.3300 925.0000 1.0000
42.3400 923.0000 1.0000
42.3500 970.0000 1.0000
42.3600 963.0000 1.0000
42.3700 968.0000 1.0000
42.3800 944.0000 1.0000
42.3900 987.0000 1.0000
42.4000 947.0000 1.0000
42.4100 964.0000 1.0000
42.4200 967.0000 1.0000
42.4300 975.0000 1.0000
42.4400 983.0000 1.0000
42.4500 963.0000 1.0000
42.4600 934.0000 1.0000
42.4700 983.0000 1.0000
42.4800 925.0000 1.0000
42.4900 999.0000 1.0000
42.5000 963.0000 1.0000
42.5100 993.0000 1.0000
42.5200 937.0000 1.0000
42.5300 932.0000 1.0000
42.5400 966.0000 1.0000
42.5500 971.0000 1.0000
42.5600 959.0000 1.0000
42.5700 993.0000 1.0000
42.5800 946.0000 1.0000
42.5900 969.0000 1.0000
42.6000 927.0000 1.0000
42.6100 914.0000 1.0000
42.6200 885.0000 1.0000
42.6300 986.0000 1.0000
42.6400 891.0000 1.0000
42.6500 932.0000 1.0000
42.6600 979.0000 1.0000
42.6700 949.0000 1.0000
42.6800 947.0000 1.0000
42.6900 958.0000 1.0000
42.7000 981.0000 1.0000
42.7100 946.0000 1.0000
42.7200 951.0000 1.0000
42.7300 917.0000 1.0000
42.7400 985.0000 1.0000
42.7500 1038.0000 1.0000
42.7600 976.0000 1.0000
42.7700 933.0000 1.0000
42.7800 918.0000 1.0000
42.7900 977.0000 1.0000
42.8000 976.0000 1.0000
42.8100 897.0000 1.0000
42.8200 945.0000 1.0000
42.8300 950.0000 1.0000
42.8400 958.0000 1.0000
42.8500 950.0000 1.0000
42.8600 958.0000 1.0000
42.8700 992.0000 1.0000
42.8800 971.0000 1.0000
42.8900 949.0000 1.0000
42.9000 968.0000 1.0000
42.9100 943.0000 1.0000
42.9200 922.0000 1.0000
42.9300 1022.0000 1.0000
42.9400 982.0000 1.0000
42.9500 914.0000 1.0000
42.9600 974.0000 1.0000
42.9700 927.0000 1.0000
42.9800 970.0000 1.0000
42.9900 942.0000 1.0000
43.0000 991.0000 1.0000
43.0100 962.0000 1.0000
43.0200 986.0000 1.0000
43.0300 990.0000 1.0000
43.0400 988.0000 1.0000
43.0500 1013.0000 1.0000
43.0600 1061.0000 1.0000
43.0700 1010.0000 1.0000
43.0800 985.0000 1.0000
43.0900 1003.0000 1.0000
43.1000 997.0000 1.0000
43.1100 1014.0000 1.0000
43.1200 1021.0000 1.0000
43.1300 1078.0000 1.0000
43.1400 1044.0000 1.0000
43.1500 1075.0000 1.0000
43.1600 1014.0000 1.0000
43.1700 1068.0000 1.0000
43.1800 1063.0000 1.0000
43.1900 1116.0000 1.0000
43.2000 1037.0000 1.0000
43.2100 1056.0000 1.0000
43.2200 1080.0000 1.0000
43.2300 1029.0000 1.0000
43.2400 1003.0000 1.0000
43.2500 1029.0000 1.0000
43.2600 1073.0000 1.0000
43.2700 981.0000 1.0000
43.2800 975.0000 1.0000
43.2900 1057.0000 1.0000
43.3000 1045.0000 1.0000
43.3100 1046.0000 1.0000
43.3200 977.0000 1.0000
43.3300 995.0000 1.0000
43.3400 1011.0000 1.0000
43.3500 1069.0000 1.0000
43.3600 1030.0000 1.0000
43.3700 1002.0000 1.0000
43.3800 984.0000 1.0000
43.3900 991.0000 1.0000
43.4000 979.0000 1.0000
43.4100 962.0000 1.0000
43.4200 1046.0000 1.0000
43.4300 998.0000 1.0000
43.4400 1022.0000 1.0000
43.4500 991.0000 1.0000
43.4600 961.0000 1.0000
43.4700 1005.0000 1.0000
43.4800 1002.0000 1.0000
43.4900 951.0000 1.0000
43.5000 947.0000 1.0000
43.5100 987.0000 1.0000
43.5200 968.0000 1.0000
43.5300 978.0000 1.0000
43.5400 956.0000 1.0000
43.5500 946.0000 1.0000
43.5600 955.0000 1.0000
43.5700 964.0000 1.0000
43.5800 954.0000 1.0000
43.5900 877.0000 1.0000
43.6000 953.0000 1.0000
43.6100 954.0000 1.0000
43.6200 939.0000 1.0000
43.6300 927.0000 1.0000
43.6400 914.0000 1.0000
43.6500 934.0000 1.0000
43.6600 878.0000 1.0000
43.6700 927.0000 1.0000
43.6800 956.0000 1.0000
43.6900 906.0000 1.0000
43.7000 965.0000 1.0000
43.7100 921.0000 1.0000
43.7200 940.0000 1.0000
43.7300 928.0000 1.0000
43.7400 935.0000 1.0000
43.7500 956.0000 1.0000
43.7600 958.0000 1.0000
43.7700 974.0000 1.0000
43.7800 968.0000 1.0000
43.7900 937.0000 1.0000
43.8000 967.0000 1.0000
43.8100 916.0000 1.0000
43.8200 926.0000 1.0000
43.8300 928.0000 1.0000
43.8400 944.0000 1.0000
43.8500 952.0000 1.0000
43.8600 911.0000 1.0000
43.8700 925.0000 1.0000
43.8800 943.0000 1.0000
43.8900 947.0000 1.0000
43.9000 948.0000 1.0000
43.9100 887.0000 1.0000
43.9200 920.0000 1.0000
43.9300 913.0000 1.0000
43.9400 925.0000 1.0000
43.9500 897.0000 1.0000
43.9600 938.0000 1.0000
43.9700 965.0000 1.0000
43.9800 919.0000 1.0000
43.9900 914.0000 1.0000
44.0000 895.0000 1.0000
44.0100 949.0000 1.0000
44.0200 948.0000 1.0000
44.0300 970.0000 1.0000
44.0400 960.0000 1.0000
44.0500 927.0000 1.0000
44.0600 925.0000 1.0000
44.0700 928.0000 1.0000
44.0800 875.0000 1.0000
44.0900 938.0000 1.0000
44.1000 910.0000 1.0000
44.1100 962.0000 1.0000
44.1200 903.0000 1.0000
44.1300 938.0000 1.0000
44.1400 909.0000 1.0000
44.1500 962.0000 1.0000
44.1600 955.0000 1.0000
44.1700 935.0000 1.0000
44.1800 903.0000 1.0000
44.1900 896.0000 1.0000
44.2000 993.0000 1.0000
44.2100 956.0000 1.0000
44.2200 937.0000 1.0000
44.2300 909.0000 1.0000
44.2400 913.0000 1.0000
44.2500 958.0000 1.0000
44.2600 906.0000 1.0000
44.2700 950.0000 1.0000
44.2800 943.0000 1.0000
44.2900 924.0000 1.0000
44.3000 884.0000 1.0000
44.3100 904.0000 1.0000
44.3200 971.0000 1.0000
44.3300 957.0000 1.0000
44.3400 907.0000 1.0000
44.3500 905.0000 1.0000
44.3600 985.0000 1.0000
44.3700 958.0000 1.0000
44.3800 912.0000 1.0000
44.3900 947.0000 1.0000
44.4000 977.0000 1.0000
44.4100 962.0000 1.0000
44.4200 952.0000 1.0000
44.4300 938.0000 1.0000
44.4400 901.0000 1.0000
44.4500 864.0000 1.0000
44.4600 924.0000 1.0000
44.4700 937.0000 1.0000
44.4800 950.0000 1.0000
44.4900 935.0000 1.0000
44.5000 923.0000 1.0000
44.5100 915.0000 1.0000
44.5200 884.0000 1.0000
44.5300 951.0000 1.0000
44.5400 924.0000 1.0000
44.5500 962.0000 1.0000
44.5600 948.0000 1.0000
44.5700 942.0000 1.0000
44.5800 917.0000 1.0000
44.5900 964.0000 1.0000
44.6000 890.0000 1.0000
44.6100 876.0000 1.0000
44.6200 919.0000 1.0000
44.6300 941.0000 1.0000
44.6400 907.0000 1.0000
44.6500 936.0000 1.0000
44.6600 911.0000 1.0000
44.6700 937.0000 1.0000
44.6800 908.0000 1.0000
44.6900 923.0000 1.0000
44.7000 912.0000 1.0000
44.7100 945.0000 1.0000
44.7200 910.0000 1.0000
44.7300 919.0000 1.0000
44.7400 884.0000 1.0000
44.7500 867.0000 1.0000
44.7600 884.0000 1.0000
44.7700 940.0000 1.0000
44.7800 886.0000 1.0000
44.7900 911.0000 1.0000
44.8000 903.0000 1.0000
44.8100 965.0000 1.0000
44.8200 951.0000 1.0000
44.8300 913.0000 1.0000
44.8400 978.0000 1.0000
44.8500 947.0000 1.0000
44.8600 910.0000 1.0000
44.8700 945.0000 1.0000
44.8800 903.0000 1.0000
44.8900 917.0000 1.0000
44.9000 907.0000 1.0000
44.9100 910.0000 1.0000
44.9200 855.0000 1.0000
44.9300 923.0000 1.0000
44.9400 886.0000 1.0000
44.9500 876.0000 1.0000
44.9600 877.0000 1.0000
44.9700 913.0000 1.0000
44.9800 883.0000 1.0000
44.9900 901.0000 1.0000
45.0000 901.0000 1.0000
45.0100 906.0000 1.0000
45.0200 946.0000 1.0000
45.0300 902.0000 1.0000
45.0400 900.0000 1.0000
45.0500 886.0000 1.0000
45.0600 901.0000 1.0000
45.0700 873.0000 1.0000
45.0800 901.0000 1.0000
45.0900 932.0000 1.0000
45.1000 883.0000 1.0000
45.1100 912.0000 1.0000
45.1200 912.0000 1.0000
45.1300 903.0000 1.0000
45.1400 924.0000 1.0000
45.1500 897.0000 1.0000
45.1600 906.0000 1.0000
45.1700 910.0000 1.0000
45.1800 909.0000 1.0000
45.1900 947.0000 1.0000
45.2000 887.0000 1.0000
45.2100 930.0000 1.0000
45.2200 928.0000 1.0000
45.2300 911.0000 1.0000
45.2400 953.0000 1.0000
45.2500 888.0000 1.0000
45.2600 933.0000 1.0000
45.2700 914.0000 1.0000
45.2800 913.0000 1.0000
45.2900 919.0000 1.0000
45.3000 922.0000 1.0000
45.3100 880.0000 1.0000
45.3200 915.0000 1.0000
45.3300 897.0000 1.0000
45.3400 919.0000 1.0000
45.3500 924.0000 1.0000
45.3600 939.0000 1.0000
45.3700 875.0000 1.0000
45.3800 867.0000 1.0000
45.3900 837.0000 1.0000
45.4000 892.0000 1.0000
45.4100 882.0000 1.0000
45.4200 929.0000 1.0000
45.4300 902.0000 1.0000
45.4400 876.0000 1.0000
45.4500 907.0000 1.0000
45.4600 908.0000 1.0000
45.4700 896.0000 1.0000
45.4800 904.0000 1.0000
45.4900 930.0000 1.0000
45.5000 922.0000 1.0000
45.5100 870.0000 1.0000
45.5200 849.0000 1.0000
45.5300 872.0000 1.0000
45.5400 852.0000 1.0000
45.5500 902.0000 1.0000
45.5600 871.0000 1.0000
45.5700 886.0000 1.0000
45.5800 942.0000 1.0000
45.5900 917.0000 1.0000
45.6000 923.0000 1.0000
45.6100 913.0000 1.0000
45.6200 898.0000 1.0000
45.6300 894.0000 1.0000
45.6400 836.0000 1.0000
45.6500 881.0000 1.0000
45.6600 918.0000 1.0000
45.6700 849.0000 1.0000
45.6800 888.0000 1.0000
45.6900 906.0000 1.0000
45.7000 901.0000 1.0000
45.7100 869.0000 1.0000
45.7200 889.0000 1.0000
45.7300 829.0000 1.0000
45.7400 848.0000 1.0000
45.7500 909.0000 1.0000
45.7600 909.0000 1.0000
45.7700 858.0000 1.0000
45.7800 917.0000 1.0000
45.7900 883.0000 1.0000
45.8000 895.0000 1.0000
45.8100 924.0000 1.0000
45.8200 883.0000 1.0000
45.8300 916.0000 1.0000
45.8400 892.0000 1.0000
45.8500 894.0000 1.0000
45.8600 861.0000 1.0000
45.8700 925.0000 1.0000
45.8800 889.0000 1.0000
45.8900 907.0000 1.0000
45.9000 893.0000 1.0000
45.9100 877.0000 1.0000
45.9200 925.0000 1.0000
45.9300 922.0000 1.0000
45.9400 898.0000 1.0000
45.9500 885.0000 1.0000
45.9600 924.0000 1.0000
45.9700 878.0000 1.0000
45.9800 905.0000 1.0000
45.9900 881.0000 1.0000
46.0000 955.0000 1.0000
46.0100 862.0000 1.0000
46.0200 885.0000 1.0000
46.0300 884.0000 1.0000
46.0400 886.0000 1.0000
46.0500 883.0000 1.0000
46.0600 852.0000 1.0000
46.0700 898.0000 1.0000
46.0800 915.0000 1.0000
46.0900 911.0000 1.0000
46.1000 897.0000 1.0000
46.1100 858.0000 1.0000
46.1200 863.0000 1.0000
46.1300 849.0000 1.0000
46.1400 865.0000 1.0000
46.1500 911.0000 1.0000
46.1600 906.0000 1.0000
46.1700 889.0000 1.0000
46.1800 848.0000 1.0000
46.1900 890.0000 1.0000
46.2000 888.0000 1.0000
46.2100 881.0000 1.0000
46.2200 870.0000 1.0000
46.2300 859.0000 1.0000
46.2400 879.0000 1.0000
46.2500 930.0000 1.0000
46.2600 875.0000 1.0000
46.2700 855.0000 1.0000
46.2800 867.0000 1.0000
46.2900 904.0000 1.0000
46.3000 906.0000 1.0000
46.3100 856.0000 1.0000
46.3200 862.0000 1.0000
46.3300 861.0000 1.0000
46.3400 880.0000 1.0000
46.3500 922.0000 1.0000
46.3600 911.0000 1.0000
46.3700 867.0000 1.0000
46.3800 870.0000 1.0000
46.3900 867.0000 1.0000
46.4000 872.0000 1.0000
46.4100 885.0000 1.0000
46.4200 886.0000 1.0000
46.4300 875.0000 1.0000
46.4400 905.0000 1.0000
46.4500 901.0000 1.0000
46.4600 899.0000 1.0000
46.4700 904.0000 1.0000
46.4800 901.0000 1.0000
46.4900 893.0000 1.0000
46.5000 838.0000 1.0000
46.5100 846.0000 1.0000
46.5200 877.0000 1.0000
46.5300 874.0000 1.0000
46.5400 938.0000 1.0000
46.5500 881.0000 1.0000
46.5600 886.0000 1.0000
46.5700 866.0000 1.0000
46.5800 864.0000 1.0000
46.5900 870.0000 1.0000
46.6000 845.0000 1.0000
46.6100 852.0000 1.0000
46.6200 879.0000 1.0000
46.6300 835.0000 1.0000
46.6400 862.0000 1.0000
46.6500 899.0000 1.0000
46.6600 885.0000 1.0000
46.6700 857.0000 1.0000
46.6800 872.0000 1.0000
46.6900 901.0000 1.0000
46.7000 865.0000 1.0000
46.7100 918.0000 1.0000
46.7200 848.0000 1.0000
46.7300 894.0000 1.0000
46.7400 883.0000 1.0000
46.7500 913.0000 1.0000
46.7600 883.0000 1.0000
46.7700 865.0000 1.0000
46.7800 873.0000 1.0000
46.7900 866.0000 1.0000
46.8000 884.0000 1.0000
46.8100 887.0000 1.0000
46.8200 873.0000 1.0000
46.8300 850.0000 1.0000
46.8400 847.0000 1.0000
46.8500 851.0000 1.0000
46.8600 885.0000 1.0000
46.8700 945.0000 1.0000
46.8800 889.0000 1.0000
46.8900 907.0000 1.0000
46.9000 865.0000 1.0000
46.9100 870.0000 1.0000
46.9200 891.0000 1.0000
46.9300 885.0000 1.0000
46.9400 861.0000 1.0000
46.9500 851.0000 1.0000
46.9600 892.0000 1.0000
46.9700 912.0000 1.0000
46.9800 888.0000 1.0000
46.9900 887.0000 1.0000
47.0000 893.0000 1.0000
47.0100 903.0000 1.0000
47.0200 860.0000 1.0000
47.0300 845.0000 1.0000
47.0400 883.0000 1.0000
47.0500 832.0000 1.0000
47.0600 889.0000 1.0000
47.0700 894.0000 1.0000
47.0800 867.0000 1.0000
47.0900 868.0000 1.0000
47.1000 869.0000 1.0000
47.1100 867.0000 1.0000
47.1200 853.0000 1.0000
47.1300 834.0000 1.0000
47.1400 855.0000 1.0000
47.1500 860.0000 1.0000
47.1600 890.0000 1.0000
47.1700 871.0000 1.0000
47.1800 887.0000 1.0000
47.1900 874.0000 1.0000
47.2000 858.0000 1.0000
47.2100 803.0000 1.0000
47.2200 845.0000 1.0000
47.2300 856.0000 1.0000
47.2400 877.0000 1.0000
47.2500 845.0000 1.0000
47.2600 870.0000 1.0000
47.2700 828.0000 1.0000
47.2800 810.0000 1.0000
47.2900 813.0000 1.0000
47.3000 839.0000 1.0000
47.3100 859.0000 1.0000
47.3200 849.0000 1.0000
47.3300 867.0000 1.0000
47.3400 845.0000 1.0000
47.3500 884.0000 1.0000
47.3600 845.0000 1.0000
47.3700 912.0000 1.0000
47.3800 875.0000 1.0000
47.3900 840.0000 1.0000
47.4000 858.0000 1.0000
47.4100 874.0000 1.0000
47.4200 838.0000 1.0000
47.4300 872.0000 1.0000
47.4400 849.0000 1.0000
47.4500 856.0000 1.0000
47.4600 834.0000 1.0000
47.4700 810.0000 1.0000
47.4800 851.0000 1.0000
47.4900 842.0000 1.0000
47.5000 865.0000 1.0000
47.5100 850.0000 1.0000
47.5200 852.0000 1.0000
47.5300 844.0000 1.0000
47.5400 845.0000 1.0000
47.5500 818.0000 1.0000
47.5600 857.0000 1.0000
47.5700 850.0000 1.0000
47.5800 828.0000 1.0000
47.5900 850.0000 1.0000
47.6000 846.0000 1.0000
47.6100 813.0000 1.0000
47.6200 862.0000 1.0000
47.6300 856.0000 1.0000
47.6400 818.0000 1.0000
47.6500 839.0000 1.0000
47.6600 895.0000 1.0000
47.6700 846.0000 1.0000
47.6800 843.0000 1.0000
47.6900 850.0000 1.0000
47.7000 858.0000 1.0000
47.7100 861.0000 1.0000
47.7200 847.0000 1.0000
47.7300 860.0000 1.0000
47.7400 834.0000 1.0000
47.7500 858.0000 1.0000
47.7600 878.0000 1.0000
47.7700 817.0000 1.0000
47.7800 882.0000 1.0000
47.7900 879.0000 1.0000
47.8000 828.0000 1.0000
47.8100 841.0000 1.0000
47.8200 842.0000 1.0000
47.8300 869.0000 1.0000
47.8400 873.0000 1.0000
47.8500 871.0000 1.0000
47.8600 834.0000 1.0000
47.8700 819.0000 1.0000
47.8800 826.0000 1.0000
47.8900 859.0000 1.0000
47.9000 830.0000 1.0000
47.9100 808.0000 1.0000
47.9200 821.0000 1.0000
47.9300 812.0000 1.0000
47.9400 845.0000 1.0000
47.9500 838.0000 1.0000
47.9600 859.0000 1.0000
47.9700 872.0000 1.0000
47.9800 858.0000 1.0000
47.9900 811.0000 1.0000
48.0000 857.0000 1.0000
48.0100 850.0000 1.0000
48.0200 812.0000 1.0000
48.0300 863.0000 1.0000
48.0400 851.0000 1.0000
48.0500 884.0000 1.0000
48.0600 849.0000 1.0000
48.0700 857.0000 1.0000
48.0800 855.0000 1.0000
48.0900 837.0000 1.0000
48.1000 816.0000 1.0000
48.1100 836.0000 1.0000
48.1200 810.0000 1.0000
48.1300 799.0000 1.0000
48.1400 827.0000 1.0000
48.1500 831.0000 1.0000
48.1600 822.0000 1.0000
48.1700 823.0000 1.0000
48.1800 828.0000 1.0000
48.1900 842.0000 1.0000
48.2000 838.0000 1.0000
48.2100 850.0000 1.0000
48.2200 844.0000 1.0000
48.2300 842.0000 1.0000
48.2400 831.0000 1.0000
48.2500 841.0000 1.0000
48.2600 821.0000 1.0000
48.2700 830.0000 1.0000
48.2800 822.0000 1.0000
48.2900 842.0000 1.0000
48.3000 831.0000 1.0000
48.3100 778.0000 1.0000
48.3200 821.0000 1.0000
48.3300 838.0000 1.0000
48.3400 872.0000 1.0000
48.3500 831.0000 1.0000
48.3600 823.0000 1.0000
48.3700 843.0000 1.0000
48.3800 810.0000 1.0000
48.3900 840.0000 1.0000
48.4000 774.0000 1.0000
48.4100 819.0000 1.0000
48.4200 773.0000 1.0000
48.4300 772.0000 1.0000
48.4400 830.0000 1.0000
48.4500 849.0000 1.0000
48.4600 835.0000 1.0000
48.4700 828.0000 1.0000
48.4800 851.0000 1.0000
48.4900 810.0000 1.0000
48.5000 839.0000 1.0000
48.5100 843.0000 1.0000
48.5200 861.0000 1.0000
48.5300 859.0000 1.0000
48.5400 852.0000 1.0000
48.5500 839.0000 1.0000
48.5600 822.0000 1.0000
48.5700 841.0000 1.0000
48.5800 843.0000 1.0000
48.5900 837.0000 1.0000
48.6000 859.0000 1.0000
48.6100 850.0000 1.0000
48.6200 809.0000 1.0000
48.6300 815.0000 1.0000
48.6400 813.0000 1.0000
48.6500 833.0000 1.0000
48.6600 817.0000 1.0000
48.6700 845.0000 1.0000
48.6800 811.0000 1.0000
48.6900 859.0000 1.0000
48.7000 822.0000 1.0000
48.7100 804.0000 1.0000
48.7200 838.0000 1.0000
48.7300 816.0000 1.0000
48.7400 842.0000 1.0000
48.7500 809.0000 1.0000
48.7600 867.0000 1.0000
48.7700 832.0000 1.0000
48.7800 781.0000 1.0000
48.7900 823.0000 1.0000
48.8000 817.0000 1.0000
48.8100 844.0000 1.0000
48.8200 831.0000 1.0000
48.8300 847.0000 1.0000
48.8400 838.0000 1.0000
48.8500 861.0000 1.0000
48.8600 842.0000 1.0000
48.8700 804.0000 1.0000
48.8800 823.0000 1.0000
48.8900 867.0000 1.0000
48.9000 825.0000 1.0000
48.9100 773.0000 1.0000
48.9200 818.0000 1.0000
48.9300 821.0000 1.0000
48.9400 838.0000 1.0000
48.9500 826.0000 1.0000
48.9600 842.0000 1.0000
48.9700 854.0000 1.0000
48.9800 851.0000 1.0000
48.9900 760.0000 1.0000
49.0000 808.0000 1.0000
49.0100 795.0000 1.0000
49.0200 861.0000 1.0000
49.0300 816.0000 1.0000
49.0400 820.0000 1.0000
49.0500 816.0000 1.0000
49.0600 846.0000 1.0000
49.0700 830.0000 1.0000
49.0800 809.0000 1.0000
49.0900 811.0000 1.0000
49.1000 820.0000 1.0000
49.1100 841.0000 1.0000
49.1200 802.0000 1.0000
49.1300 780.0000 1.0000
49.1400 833.0000 1.0000
49.1500 879.0000 1.0000
49.1600 849.0000 1.0000
49.1700 822.0000 1.0000
49.1800 810.0000 1.0000
49.1900 895.0000 1.0000
49.2000 857.0000 1.0000
49.2100 810.0000 1.0000
49.2200 831.0000 1.0000
49.2300 825.0000 1.0000
49.2400 783.0000 1.0000
49.2500 839.0000 1.0000
49.2600 828.0000 1.0000
49.2700 774.0000 1.0000
49.2800 826.0000 1.0000
49.2900 860.0000 1.0000
49.3000 844.0000 1.0000
49.3100 783.0000 1.0000
49.3200 768.0000 1.0000
49.3300 823.0000 1.0000
49.3400 775.0000 1.0000
49.3500 817.0000 1.0000
49.3600 822.0000 1.0000
49.3700 803.0000 1.0000
49.3800 827.0000 1.0000
49.3900 839.0000 1.0000
49.4000 843.0000 1.0000
49.4100 794.0000 1.0000
49.4200 830.0000 1.0000
49.4300 811.0000 1.0000
49.4400 778.0000 1.0000
49.4500 829.0000 1.0000
49.4600 813.0000 1.0000
49.4700 816.0000 1.0000
49.4800 818.0000 1.0000
49.4900 843.0000 1.0000
49.5000 882.0000 1.0000
49.5100 804.0000 1.0000
49.5200 831.0000 1.0000
49.5300 836.0000 1.0000
49.5400 820.0000 1.0000
49.5500 818.0000 1.0000
49.5600 863.0000 1.0000
49.5700 889.0000 1.0000
49.5800 856.0000 1.0000
49.5900 839.0000 1.0000
49.6000 762.0000 1.0000
49.6100 753.0000 1.0000
49.6200 781.0000 1.0000
49.6300 825.0000 1.0000
49.6400 830.0000 1.0000
49.6500 834.0000 1.0000
49.6600 838.0000 1.0000
49.6700 856.0000 1.0000
49.6800 793.0000 1.0000
49.6900 825.0000 1.0000
49.7000 836.0000 1.0000
49.7100 840.0000 1.0000
49.7200 811.0000 1.0000
49.7300 814.0000 1.0000
49.7400 852.0000 1.0000
49.7500 813.0000 1.0000
49.7600 806.0000 1.0000
49.7700 776.0000 1.0000
49.7800 800.0000 1.0000
49.7900 817.0000 1.0000
49.8000 809.0000 1.0000
49.8100 822.0000 1.0000
49.8200 781.0000 1.0000
49.8300 818.0000 1.0000
49.8400 815.0000 1.0000
49.8500 839.0000 1.0000
49.8600 823.0000 1.0000
49.8700 828.0000 1.0000
49.8800 832.0000 1.0000
49.8900 857.0000 1.0000
49.9000 804.0000 1.0000
49.9100 870.0000 1.0000
49.9200 856.0000 1.0000
49.9300 866.0000 1.0000
49.9400 853.0000 1.0000
49.9500 800.0000 1.0000
49.9600 868.0000 1.0000
49.9700 851.0000 1.0000
49.9800 836.0000 1.0000
49.9900 800.0000 1.0000
50.0000 801.0000 1.0000
50.0100 847.0000 1.0000
50.0200 798.0000 1.0000
50.0300 819.0000 1.0000
50.0400 824.0000 1.0000
50.0500 806.0000 1.0000
50.0600 811.0000 1.0000
50.0700 854.0000 1.0000
50.0800 848.0000 1.0000
50.0900 791.0000 1.0000
50.1000 832.0000 1.0000
50.1100 805.0000 1.0000
50.1200 816.0000 1.0000
50.1300 825.0000 1.0000
50.1400 812.0000 1.0000
50.1500 823.0000 1.0000
50.1600 779.0000 1.0000
50.1700 832.0000 1.0000
50.1800 869.0000 1.0000
50.1900 852.0000 1.0000
50.2000 843.0000 1.0000
50.2100 803.0000 1.0000
50.2200 852.0000 1.0000
50.2300 803.0000 1.0000
50.2400 851.0000 1.0000
50.2500 840.0000 1.0000
50.2600 866.0000 1.0000
50.2700 870.0000 1.0000
50.2800 855.0000 1.0000
50.2900 851.0000 1.0000
50.3000 819.0000 1.0000
50.3100 837.0000 1.0000
50.3200 875.0000 1.0000
50.3300 831.0000 1.0000
50.3400 820.0000 1.0000
50.3500 845.0000 1.0000
50.3600 827.0000 1.0000
50.3700 800.0000 1.0000
50.3800 887.0000 1.0000
50.3900 848.0000 1.0000
50.4000 854.0000 1.0000
50.4100 843.0000 1.0000
50.4200 820.0000 1.0000
50.4300 876.0000 1.0000
50.4400 874.0000 1.0000
50.4500 821.0000 1.0000
50.4600 833.0000 1.0000
50.4700 834.0000 1.0000
50.4800 865.0000 1.0000
50.4900 801.0000 1.0000
50.5000 831.0000 1.0000
50.5100 809.0000 1.0000
50.5200 813.0000 1.0000
50.5300 837.0000 1.0000
50.5400 833.0000 1.0000
50.5500 792.0000 1.0000
50.5600 827.0000 1.0000
50.5700 825.0000 1.0000
50.5800 837.0000 1.0000
50.5900 805.0000 1.0000
50.6000 822.0000 1.0000
50.6100 864.0000 1.0000
50.6200 842.0000 1.0000
50.6300 838.0000 1.0000
50.6400 809.0000 1.0000
50.6500 815.0000 1.0000
50.6600 819.0000 1.0000
50.6700 865.0000 1.0000
50.6800 818.0000 1.0000
50.6900 843.0000 1.0000
50.7000 823.0000 1.0000
50.7100 848.0000 1.0000
50.7200 806.0000 1.0000
50.7300 842.0000 1.0000
50.7400 854.0000 1.0000
50.7500 810.0000 1.0000
50.7600 829.0000 1.0000
50.7700 812.0000 1.0000
50.7800 844.0000 1.0000
50.7900 802.0000 1.0000
50.8000 782.0000 1.0000
50.8100 863.0000 1.0000
50.8200 823.0000 1.0000
50.8300 825.0000 1.0000
50.8400 827.0000 1.0000
50.8500 837.0000 1.0000
50.8600 846.0000 1.0000
50.8700 871.0000 1.0000
50.8800 823.0000 1.0000
50.8900 811.0000 1.0000
50.9000 789.0000 1.0000
50.9100 824.0000 1.0000
50.9200 800.0000 1.0000
50.9300 820.0000 1.0000
50.9400 841.0000 1.0000
50.9500 803.0000 1.0000
50.9600 798.0000 1.0000
50.9700 866.0000 1.0000
50.9800 852.0000 1.0000
50.9900 854.0000 1.0000
51.0000 839.0000 1.0000
51.0100 786.0000 1.0000
51.0200 868.0000 1.0000
51.0300 820.0000 1.0000
51.0400 837.0000 1.0000
51.0500 855.0000 1.0000
51.0600 794.0000 1.0000
51.0700 798.0000 1.0000
51.0800 814.0000 1.0000
51.0900 875.0000 1.0000
51.1000 847.0000 1.0000
51.1100 842.0000 1.0000
51.1200 832.0000 1.0000
51.1300 852.0000 1.0000
51.1400 822.0000 1.0000
51.1500 813.0000 1.0000
51.1600 841.0000 1.0000
51.1700 804.0000 1.0000
51.1800 835.0000 1.0000
51.1900 822.0000 1.0000
51.2000 834.0000 1.0000
51.2100 872.0000 1.0000
51.2200 840.0000 1.0000
51.2300 842.0000 1.0000
51.2400 847.0000 1.0000
51.2500 822.0000 1.0000
51.2600 849.0000 1.0000
51.2700 809.0000 1.0000
51.2800 810.0000 1.0000
51.2900 817.0000 1.0000
51.3000 819.0000 1.0000
51.3100 821.0000 1.0000
51.3200 853.0000 1.0000
51.3300 882.0000 1.0000
51.3400 832.0000 1.0000
51.3500 872.0000 1.0000
51.3600 852.0000 1.0000
51.3700 802.0000 1.0000
51.3800 794.0000 1.0000
51.3900 863.0000 1.0000
51.4000 799.0000 1.0000
51.4100 878.0000 1.0000
51.4200 815.0000 1.0000
51.4300 809.0000 1.0000
51.4400 832.0000 1.0000
51.4500 878.0000 1.0000
51.4600 833.0000 1.0000
51.4700 876.0000 1.0000
51.4800 829.0000 1.0000
51.4900 868.0000 1.0000
51.5000 839.0000 1.0000
51.5100 839.0000 1.0000
51.5200 825.0000 1.0000
51.5300 887.0000 1.0000
51.5400 879.0000 1.0000
51.5500 838.0000 1.0000
51.5600 840.0000 1.0000
51.5700 840.0000 1.0000
51.5800 889.0000 1.0000
51.5900 861.0000 1.0000
51.6000 852.0000 1.0000
51.6100 840.0000 1.0000
51.6200 885.0000 1.0000
51.6300 880.0000 1.0000
51.6400 853.0000 1.0000
51.6500 870.0000 1.0000
51.6600 905.0000 1.0000
51.6700 889.0000 1.0000
51.6800 861.0000 1.0000
51.6900 853.0000 1.0000
51.7000 824.0000 1.0000
51.7100 906.0000 1.0000
51.7200 889.0000 1.0000
51.7300 865.0000 1.0000
51.7400 904.0000 1.0000
51.7500 880.0000 1.0000
51.7600 917.0000 1.0000
51.7700 952.0000 1.0000
51.7800 921.0000 1.0000
51.7900 907.0000 1.0000
51.8000 897.0000 1.0000
51.8100 961.0000 1.0000
51.8200 926.0000 1.0000
51.8300 926.0000 1.0000
51.8400 981.0000 1.0000
51.8500 1013.0000 1.0000
51.8600 993.0000 1.0000
51.8700 1023.0000 1.0000
51.8800 978.0000 1.0000
51.8900 1036.0000 1.0000
51.9000 1030.0000 1.0000
51.9100 1085.0000 1.0000
51.9200 1114.0000 1.0000
51.9300 1137.0000 1.0000
51.9400 1140.0000 1.0000
51.9500 1157.0000 1.0000
51.9600 1217.0000 1.0000
51.9700 1230.0000 1.0000
51.9800 1280.0000 1.0000
51.9900 1365.0000 1.0000
52.0000 1289.0000 1.0000
52.0100 1387.0000 1.0000
52.0200 1476.0000 1.0000
52.0300 1482.0000 1.0000
52.0400 1591.0000 1.0000
52.0500 1624.0000 1.0000
52.0600 1744.0000 1.0000
52.0700 1740.0000 1.0000
52.0800 1864.0000 1.0000
52.0900 1929.0000 1.0000
52.1000 2122.0000 1.0000
52.1100 2219.0000 1.0000
52.1200 2489.0000 1.0000
52.1300 2653.0000 1.0000
52.1400 2836.0000 1.0000
52.1500 2987.0000 1.0000
52.1600 3309.0000 1.0000
52.1700 3608.0000 1.0000
52.1800 3907.0000 1.0000
52.1900 4177.0000 1.0000
52.2000 4390.0000 1.0000
52.2100 4826.0000 1.0000
52.2200 4934.0000 1.0000
52.2300 5036.0000 1.0000
52.2400 5081.0000 1.0000
52.2500 5246.0000 1.0000
52.2600 5143.0000 1.0000
52.2700 5031.0000 1.0000
52.2800 4931.0000 1.0000
52.2900 4751.0000 1.0000
52.3000 4612.0000 1.0000
52.3100 4284.0000 1.0000
52.3200 4369.0000 1.0000
52.3300 4329.0000 1.0000
52.3400 4245.0000 1.0000
52.3500 4144.0000 1.0000
52.3600 4030.0000 1.0000
52.3700 3892.0000 1.0000
52.3800 3891.0000 1.0000
52.3900 3691.0000 1.0000
52.4000 3617.0000 1.0000
52.4100 3399.0000 1.0000
52.4200 3216.0000 1.0000
52.4300 3011.0000 1.0000
52.4400 2848.0000 1.0000
52.4500 2595.0000 1.0000
52.4600 2396.0000 1.0000
52.4700 2140.0000 1.0000
52.4800 2009.0000 1.0000
52.4900 1929.0000 1.0000
52.5000 1833.0000 1.0000
52.5100 1748.0000 1.0000
52.5200 1659.0000 1.0000
52.5300 1603.0000 1.0000
52.5400 1559.0000 1.0000
52.5500 1451.0000 1.0000
52.5600 1478.0000 1.0000
52.5700 1466.0000 1.0000
52.5800 1411.0000 1.0000
52.5900 1304.0000 1.0000
52.6000 1279.0000 1.0000
52.6100 1200.0000 1.0000
52.6200 1176.0000 1.0000
52.6300 1149.0000 1.0000
52.6400 1136.0000 1.0000
52.6500 1115.0000 1.0000
52.6600 1061.0000 1.0000
52.6700 1086.0000 1.0000
52.6800 1069.0000 1.0000
52.6900 1070.0000 1.0000
52.7000 1001.0000 1.0000
52.7100 1052.0000 1.0000
52.7200 1048.0000 1.0000
52.7300 1018.0000 1.0000
52.7400 964.0000 1.0000
52.7500 982.0000 1.0000
52.7600 995.0000 1.0000
52.7700 982.0000 1.0000
52.7800 938.0000 1.0000
52.7900 937.0000 1.0000
52.8000 932.0000 1.0000
52.8100 923.0000 1.0000
52.8200 948.0000 1.0000
52.8300 905.0000 1.0000
52.8400 883.0000 1.0000
52.8500 838.0000 1.0000
52.8600 935.0000 1.0000
52.8700 871.0000 1.0000
52.8800 924.0000 1.0000
52.8900 931.0000 1.0000
52.9000 925.0000 1.0000
52.9100 920.0000 1.0000
52.9200 894.0000 1.0000
52.9300 843.0000 1.0000
52.9400 852.0000 1.0000
52.9500 881.0000 1.0000
52.9600 831.0000 1.0000
52.9700 900.0000 1.0000
52.9800 860.0000 1.0000
52.9900 862.0000 1.0000
53.0000 857.0000 1.0000
53.0100 827.0000 1.0000
53.0200 834.0000 1.0000
53.0300 855.0000 1.0000
53.0400 871.0000 1.0000
53.0500 819.0000 1.0000
53.0600 824.0000 1.0000
53.0700 792.0000 1.0000
53.0800 853.0000 1.0000
53.0900 844.0000 1.0000
53.1000 861.0000 1.0000
53.1100 841.0000 1.0000
53.1200 881.0000 1.0000
53.1300 873.0000 1.0000
53.1400 845.0000 1.0000
53.1500 824.0000 1.0000
53.1600 863.0000 1.0000
53.1700 858.0000 1.0000
53.1800 819.0000 1.0000
53.1900 793.0000 1.0000
53.2000 854.0000 1.0000
53.2100 866.0000 1.0000
53.2200 834.0000 1.0000
53.2300 790.0000 1.0000
53.2400 811.0000 1.0000
53.2500 854.0000 1.0000
53.2600 827.0000 1.0000
53.2700 880.0000 1.0000
53.2800 856.0000 1.0000
53.2900 811.0000 1.0000
53.3000 859.0000 1.0000
53.3100 885.0000 1.0000
53.3200 830.0000 1.0000
53.3300 807.0000 1.0000
53.3400 820.0000 1.0000
53.3500 839.0000 1.0000
53.3600 828.0000 1.0000
53.3700 882.0000 1.0000
53.3800 793.0000 1.0000
53.3900 807.0000 1.0000
53.4000 850.0000 1.0000
53.4100 783.0000 1.0000
53.4200 796.0000 1.0000
53.4300 767.0000 1.0000
53.4400 819.0000 1.0000
53.4500 822.0000 1.0000
53.4600 814.0000 1.0000
53.4700 772.0000 1.0000
53.4800 857.0000 1.0000
53.4900 849.0000 1.0000
53.5000 823.0000 1.0000
53.5100 821.0000 1.0000
53.5200 816.0000 1.0000
53.5300 826.0000 1.0000
53.5400 839.0000 1.0000
53.5500 797.0000 1.0000
53.5600 758.0000 1.0000
53.5700 800.0000 1.0000
53.5800 808.0000 1.0000
53.5900 797.0000 1.0000
53.6000 811.0000 1.0000
53.6100 803.0000 1.0000
53.6200 847.0000 1.0000
53.6300 821.0000 1.0000
53.6400 790.0000 1.0000
53.6500 810.0000 1.0000
53.6600 806.0000 1.0000
53.6700 799.0000 1.0000
53.6800 811.0000 1.0000
53.6900 816.0000 1.0000
53.7000 822.0000 1.0000
53.7100 756.0000 1.0000
53.7200 800.0000 1.0000
53.7300 797.0000 1.0000
53.7400 824.0000 1.0000
53.7500 822.0000 1.0000
53.7600 786.0000 1.0000
53.7700 774.0000 1.0000
53.7800 798.0000 1.0000
53.7900 774.0000 1.0000
53.8000 793.0000 1.0000
53.8100 811.0000 1.0000
53.8200 810.0000 1.0000
53.8300 812.0000 1.0000
53.8400 775.0000 1.0000
53.8500 799.0000 1.0000
53.8600 853.0000 1.0000
53.8700 782.0000 1.0000
53.8800 822.0000 1.0000
53.8900 789.0000 1.0000
53.9000 817.0000 1.0000
53.9100 793.0000 1.0000
53.9200 791.0000 1.0000
53.9300 801.0000 1.0000
53.9400 821.0000 1.0000
53.9500 802.0000 1.0000
53.9600 769.0000 1.0000
53.9700 801.0000 1.0000
53.9800 785.0000 1.0000
53.9900 840.0000 1.0000
54.0000 769.0000 1.0000
54.0100 810.0000 1.0000
54.0200 818.0000 1.0000
54.0300 821.0000 1.0000
54.0400 788.0000 1.0000
54.0500 800.0000 1.0000
54.0600 830.0000 1.0000
54.0700 821.0000 1.0000
54.0800 795.0000 1.0000
54.0900 764.0000 1.0000
54.1000 800.0000 1.0000
54.1100 793.0000 1.0000
54.1200 822.0000 1.0000
54.1300 779.0000 1.0000
54.1400 816.0000 1.0000
54.1500 755.0000 1.0000
54.1600 749.0000 1.0000
54.1700 831.0000 1.0000
54.1800 769.0000 1.0000
54.1900 785.0000 1.0000
54.2000 801.0000 1.0000
54.2100 809.0000 1.0000
54.2200 812.0000 1.0000
54.2300 817.0000 1.0000
54.2400 802.0000 1.0000
54.2500 821.0000 1.0000
54.2600 841.0000 1.0000
54.2700 844.0000 1.0000
54.2800 817.0000 1.0000
54.2900 822.0000 1.0000
54.3000 806.0000 1.0000
54.3100 809.0000 1.0000
54.3200 778.0000 1.0000
54.3300 788.0000 1.0000
54.3400 801.0000 1.0000
54.3500 779.0000 1.0000
54.3600 807.0000 1.0000
54.3700 796.0000 1.0000
54.3800 814.0000 1.0000
54.3900 850.0000 1.0000
54.4000 815.0000 1.0000
54.4100 777.0000 1.0000
54.4200 777.0000 1.0000
54.4300 803.0000 1.0000
54.4400 830.0000 1.0000
54.4500 780.0000 1.0000
54.4600 783.0000 1.0000
54.4700 789.0000 1.0000
54.4800 773.0000 1.0000
54.4900 823.0000 1.0000
54.5000 811.0000 1.0000
54.5100 800.0000 1.0000
54.5200 815.0000 1.0000
54.5300 825.0000 1.0000
54.5400 847.0000 1.0000
54.5500 812.0000 1.0000
54.5600 783.0000 1.0000
54.5700 820.0000 1.0000
54.5800 867.0000 1.0000
54.5900 856.0000 1.0000
54.6000 820.0000 1.0000
54.6100 825.0000 1.0000
54.6200 852.0000 1.0000
54.6300 774.0000 1.0000
54.6400 834.0000 1.0000
54.6500 851.0000 1.0000
54.6600 780.0000 1.0000
54.6700 791.0000 1.0000
54.6800 808.0000 1.0000
54.6900 863.0000 1.0000
54.7000 833.0000 1.0000
54.7100 848.0000 1.0000
54.7200 820.0000 1.0000
54.7300 797.0000 1.0000
54.7400 821.0000 1.0000
54.7500 779.0000 1.0000
54.7600 796.0000 1.0000
54.7700 847.0000 1.0000
54.7800 818.0000 1.0000
54.7900 841.0000 1.0000
54.8000 858.0000 1.0000
54.8100 847.0000 1.0000
54.8200 864.0000 1.0000
54.8300 815.0000 1.0000
54.8400 838.0000 1.0000
54.8500 859.0000 1.0000
54.8600 829.0000 1.0000
54.8700 836.0000 1.0000
54.8800 817.0000 1.0000
54.8900 854.0000 1.0000
54.9000 868.0000 1.0000
54.9100 829.0000 1.0000
54.9200 843.0000 1.0000
54.9300 875.0000 1.0000
54.9400 807.0000 1.0000
54.9500 829.0000 1.0000
54.9600 868.0000 1.0000
54.9700 888.0000 1.0000
54.9800 909.0000 1.0000
54.9900 849.0000 1.0000
55.0000 899.0000 1.0000
55.0100 900.0000 1.0000
55.0200 856.0000 1.0000
55.0300 946.0000 1.0000
55.0400 902.0000 1.0000
55.0500 936.0000 1.0000
55.0600 931.0000 1.0000
55.0700 931.0000 1.0000
55.0800 924.0000 1.0000
55.0900 988.0000 1.0000
55.1000 999.0000 1.0000
55.1100 935.0000 1.0000
55.1200 968.0000 1.0000
55.1300 1018.0000 1.0000
55.1400 997.0000 1.0000
55.1500 1026.0000 1.0000
55.1600 1048.0000 1.0000
55.1700 1045.0000 1.0000
55.1800 1089.0000 1.0000
55.1900 1083.0000 1.0000
55.2000 1099.0000 1.0000
55.2100 1129.0000 1.0000
55.2200 1179.0000 1.0000
55.2300 1189.0000 1.0000
55.2400 1188.0000 1.0000
55.2500 1205.0000 1.0000
55.2600 1191.0000 1.0000
55.2700 1246.0000 1.0000
55.2800 1261.0000 1.0000
55.2900 1226.0000 1.0000
55.3000 1211.0000 1.0000
55.3100 1170.0000 1.0000
55.3200 1171.0000 1.0000
55.3300 1203.0000 1.0000
55.3400 1198.0000 1.0000
55.3500 1107.0000 1.0000
55.3600 1177.0000 1.0000
55.3700 1160.0000 1.0000
55.3800 1113.0000 1.0000
55.3900 1108.0000 1.0000
55.4000 1065.0000 1.0000
55.4100 1078.0000 1.0000
55.4200 1078.0000 1.0000
55.4300 1090.0000 1.0000
55.4400 1015.0000 1.0000
55.4500 1060.0000 1.0000
55.4600 971.0000 1.0000
55.4700 1010.0000 1.0000
55.4800 986.0000 1.0000
55.4900 1050.0000 1.0000
55.5000 949.0000 1.0000
55.5100 976.0000 1.0000
55.5200 965.0000 1.0000
55.5300 930.0000 1.0000
55.5400 897.0000 1.0000
55.5500 865.0000 1.0000
55.5600 881.0000 1.0000
55.5700 840.0000 1.0000
55.5800 864.0000 1.0000
55.5900 860.0000 1.0000
55.6000 859.0000 1.0000
55.6100 869.0000 1.0000
55.6200 886.0000 1.0000
55.6300 950.0000 1.0000
55.6400 858.0000 1.0000
55.6500 884.0000 1.0000
55.6600 821.0000 1.0000
55.6700 831.0000 1.0000
55.6800 846.0000 1.0000
55.6900 845.0000 1.0000
55.7000 827.0000 1.0000
55.7100 869.0000 1.0000
55.7200 818.0000 1.0000
55.7300 794.0000 1.0000
55.7400 820.0000 1.0000
55.7500 828.0000 1.0000
55.7600 815.0000 1.0000
55.7700 835.0000 1.0000
55.7800 786.0000 1.0000
55.7900 796.0000 1.0000
55.8000 826.0000 1.0000
55.8100 841.0000 1.0000
55.8200 790.0000 1.0000
55.8300 770.0000 1.0000
55.8400 801.0000 1.0000
55.8500 808.0000 1.0000
55.8600 814.0000 1.0000
55.8700 792.0000 1.0000
55.8800 766.0000 1.0000
55.8900 794.0000 1.0000
55.9000 800.0000 1.0000
55.9100 731.0000 1.0000
55.9200 789.0000 1.0000
55.9300 773.0000 1.0000
55.9400 773.0000 1.0000
55.9500 863.0000 1.0000
55.9600 777.0000 1.0000
55.9700 777.0000 1.0000
55.9800 820.0000 1.0000
55.9900 804.0000 1.0000
56.0000 783.0000 1.0000
56.0100 797.0000 1.0000
56.0200 760.0000 1.0000
56.0300 767.0000 1.0000
56.0400 790.0000 1.0000
56.0500 753.0000 1.0000
56.0600 768.0000 1.0000
56.0700 781.0000 1.0000
56.0800 772.0000 1.0000
56.0900 743.0000 1.0000
56.1000 750.0000 1.0000
56.1100 791.0000 1.0000
56.1200 749.0000 1.0000
56.1300 740.0000 1.0000
56.1400 791.0000 1.0000
56.1500 776.0000 1.0000
56.1600 777.0000 1.0000
56.1700 815.0000 1.0000
56.1800 788.0000 1.0000
56.1900 733.0000 1.0000
56.2000 767.0000 1.0000
56.2100 786.0000 1.0000
56.2200 749.0000 1.0000
56.2300 775.0000 1.0000
56.2400 759.0000 1.0000
56.2500 780.0000 1.0000
56.2600 730.0000 1.0000
56.2700 755.0000 1.0000
56.2800 730.0000 1.0000
56.2900 797.0000 1.0000
56.3000 779.0000 1.0000
56.3100 763.0000 1.0000
56.3200 762.0000 1.0000
56.3300 806.0000 1.0000
56.3400 771.0000 1.0000
56.3500 754.0000 1.0000
56.3600 770.0000 1.0000
56.3700 757.0000 1.0000
56.3800 776.0000 1.0000
56.3900 784.0000 1.0000
56.4000 744.0000 1.0000
56.4100 789.0000 1.0000
56.4200 772.0000 1.0000
56.4300 730.0000 1.0000
56.4400 755.0000 1.0000
56.4500 753.0000 1.0000
56.4600 762.0000 1.0000
56.4700 772.0000 1.0000
56.4800 745.0000 1.0000
56.4900 751.0000 1.0000
56.5000 785.0000 1.0000
56.5100 803.0000 1.0000
56.5200 775.0000 1.0000
56.5300 746.0000 1.0000
56.5400 741.0000 1.0000
56.5500 804.0000 1.0000
56.5600 783.0000 1.0000
56.5700 748.0000 1.0000
56.5800 787.0000 1.0000
56.5900 799.0000 1.0000
56.6000 805.0000 1.0000
56.6100 808.0000 1.0000
56.6200 750.0000 1.0000
56.6300 788.0000 1.0000
56.6400 787.0000 1.0000
56.6500 750.0000 1.0000
56.6600 746.0000 1.0000
56.6700 774.0000 1.0000
56.6800 739.0000 1.0000
56.6900 767.0000 1.0000
56.7000 725.0000 1.0000
56.7100 744.0000 1.0000
56.7200 788.0000 1.0000
56.7300 768.0000 1.0000
56.7400 773.0000 1.0000
56.7500 788.0000 1.0000
56.7600 712.0000 1.0000
56.7700 739.0000 1.0000
56.7800 791.0000 1.0000
56.7900 780.0000 1.0000
56.8000 764.0000 1.0000
56.8100 745.0000 1.0000
56.8200 781.0000 1.0000
56.8300 745.0000 1.0000
56.8400 749.0000 1.0000
56.8500 713.0000 1.0000
56.8600 784.0000 1.0000
56.8700 755.0000 1.0000
56.8800 743.0000 1.0000
56.8900 756.0000 1.0000
56.9000 766.0000 1.0000
56.9100 756.0000 1.0000
56.9200 761.0000 1.0000
56.9300 729.0000 1.0000
56.9400 775.0000 1.0000
56.9500 763.0000 1.0000
56.9600 758.0000 1.0000
56.9700 767.0000 1.0000
56.9800 775.0000 1.0000
56.9900 750.0000 1.0000
57.0000 755.0000 1.0000
57.0100 752.0000 1.0000
57.0200 750.0000 1.0000
57.0300 725.0000 1.0000
57.0400 752.0000 1.0000
57.0500 776.0000 1.0000
57.0600 792.0000 1.0000
57.0700 818.0000 1.0000
57.0800 765.0000 1.0000
57.0900 771.0000 1.0000
57.1000 808.0000 1.0000
57.1100 737.0000 1.0000
57.1200 818.0000 1.0000
57.1300 791.0000 1.0000
57.1400 769.0000 1.0000
57.1500 779.0000 1.0000
57.1600 763.0000 1.0000
57.1700 766.0000 1.0000
57.1800 766.0000 1.0000
57.1900 741.0000 1.0000
57.2000 778.0000 1.0000
57.2100 777.0000 1.0000
57.2200 734.0000 1.0000
57.2300 736.0000 1.0000
57.2400 743.0000 1.0000
57.2500 756.0000 1.0000
57.2600 743.0000 1.0000
57.2700 721.0000 1.0000
57.2800 779.0000 1.0000
57.2900 760.0000 1.0000
57.3000 739.0000 1.0000
57.3100 756.0000 1.0000
57.3200 754.0000 1.0000
57.3300 737.0000 1.0000
57.3400 738.0000 1.0000
57.3500 752.0000 1.0000
57.3600 765.0000 1.0000
57.3700 781.0000 1.0000
57.3800 726.0000 1.0000
57.3900 773.0000 1.0000
57.4000 742.0000 1.0000
57.4100 784.0000 1.0000
57.4200 744.0000 1.0000
57.4300 776.0000 1.0000
57.4400 748.0000 1.0000
57.4500 766.0000 1.0000
57.4600 775.0000 1.0000
57.4700 784.0000 1.0000
57.4800 786.0000 1.0000
57.4900 733.0000 1.0000
57.5000 728.0000 1.0000
57.5100 798.0000 1.0000
57.5200 754.0000 1.0000
57.5300 774.0000 1.0000
57.5400 759.0000 1.0000
57.5500 767.0000 1.0000
57.5600 741.0000 1.0000
57.5700 750.0000 1.0000
57.5800 725.0000 1.0000
57.5900 780.0000 1.0000
57.6000 788.0000 1.0000
57.6100 758.0000 1.0000
57.6200 810.0000 1.0000
57.6300 788.0000 1.0000
57.6400 755.0000 1.0000
57.6500 776.0000 1.0000
57.6600 757.0000 1.0000
57.6700 786.0000 1.0000
57.6800 767.0000 1.0000
57.6900 747.0000 1.0000
57.7000 781.0000 1.0000
57.7100 774.0000 1.0000
57.7200 766.0000 1.0000
57.7300 763.0000 1.0000
57.7400 752.0000 1.0000
57.7500 745.0000 1.0000
57.7600 776.0000 1.0000
57.7700 788.0000 1.0000
57.7800 780.0000 1.0000
57.7900 739.0000 1.0000
57.8000 800.0000 1.0000
57.8100 729.0000 1.0000
57.8200 814.0000 1.0000
57.8300 795.0000 1.0000
57.8400 739.0000 1.0000
57.8500 785.0000 1.0000
57.8600 780.0000 1.0000
57.8700 770.0000 1.0000
57.8800 784.0000 1.0000
57.8900 772.0000 1.0000
57.9000 818.0000 1.0000
57.9100 733.0000 1.0000
57.9200 787.0000 1.0000
57.9300 774.0000 1.0000
57.9400 751.0000 1.0000
57.9500 746.0000 1.0000
57.9600 759.0000 1.0000
57.9700 754.0000 1.0000
57.9800 774.0000 1.0000
57.9900 767.0000 1.0000
58.0000 720.0000 1.0000
58.0100 764.0000 1.0000
58.0200 791.0000 1.0000
58.0300 779.0000 1.0000
58.0400 768.0000 1.0000
58.0500 806.0000 1.0000
58.0600 722.0000 1.0000
58.0700 780.0000 1.0000
58.0800 810.0000 1.0000
58.0900 777.0000 1.0000
58.1000 767.0000 1.0000
58.1100 796.0000 1.0000
58.1200 819.0000 1.0000
58.1300 781.0000 1.0000
58.1400 808.0000 1.0000
58.1500 835.0000 1.0000
58.1600 810.0000 1.0000
58.1700 747.0000 1.0000
58.1800 775.0000 1.0000
58.1900 767.0000 1.0000
58.2000 721.0000 1.0000
58.2100 798.0000 1.0000
58.2200 811.0000 1.0000
58.2300 779.0000 1.0000
58.2400 764.0000 1.0000
58.2500 814.0000 1.0000
58.2600 767.0000 1.0000
58.2700 794.0000 1.0000
58.2800 808.0000 1.0000
58.2900 718.0000 1.0000
58.3000 764.0000 1.0000
58.3100 774.0000 1.0000
58.3200 771.0000 1.0000
58.3300 772.0000 1.0000
58.3400 819.0000 1.0000
58.3500 797.0000 1.0000
58.3600 833.0000 1.0000
58.3700 778.0000 1.0000
58.3800 806.0000 1.0000
58.3900 777.0000 1.0000
58.4000 733.0000 1.0000
58.4100 820.0000 1.0000
58.4200 817.0000 1.0000
58.4300 774.0000 1.0000
58.4400 801.0000 1.0000
58.4500 782.0000 1.0000
58.4600 789.0000 1.0000
58.4700 801.0000 1.0000
58.4800 756.0000 1.0000
58.4900 767.0000 1.0000
58.5000 768.0000 1.0000
58.5100 774.0000 1.0000
58.5200 812.0000 1.0000
58.5300 782.0000 1.0000
58.5400 780.0000 1.0000
58.5500 777.0000 1.0000
58.5600 769.0000 1.0000
58.5700 766.0000 1.0000
58.5800 740.0000 1.0000
58.5900 790.0000 1.0000
58.6000 746.0000 1.0000
58.6100 784.0000 1.0000
58.6200 751.0000 1.0000
58.6300 784.0000 1.0000
58.6400 755.0000 1.0000
58.6500 791.0000 1.0000
58.6600 771.0000 1.0000
58.6700 761.0000 1.0000
58.6800 746.0000 1.0000
58.6900 788.0000 1.0000
58.7000 757.0000 1.0000
58.7100 759.0000 1.0000
58.7200 793.0000 1.0000
58.7300 782.0000 1.0000
58.7400 799.0000 1.0000
58.7500 766.0000 1.0000
58.7600 725.0000 1.0000
58.7700 773.0000 1.0000
58.7800 768.0000 1.0000
58.7900 745.0000 1.0000
58.8000 772.0000 1.0000
58.8100 706.0000 1.0000
58.8200 765.0000 1.0000
58.8300 769.0000 1.0000
58.8400 752.0000 1.0000
58.8500 802.0000 1.0000
58.8600 780.0000 1.0000
58.8700 749.0000 1.0000
58.8800 792.0000 1.0000
58.8900 767.0000 1.0000
58.9000 767.0000 1.0000
58.9100 792.0000 1.0000
58.9200 742.0000 1.0000
58.9300 696.0000 1.0000
58.9400 730.0000 1.0000
58.9500 733.0000 1.0000
58.9600 771.0000 1.0000
58.9700 757.0000 1.0000
58.9800 768.0000 1.0000
58.9900 765.0000 1.0000
59.0000 770.0000 1.0000
59.0100 757.0000 1.0000
59.0200 774.0000 1.0000
59.0300 762.0000 1.0000
59.0400 790.0000 1.0000
59.0500 763.0000 1.0000
59.0600 767.0000 1.0000
59.0700 730.0000 1.0000
59.0800 780.0000 1.0000
59.0900 722.0000 1.0000
59.1000 739.0000 1.0000
59.1100 778.0000 1.0000
59.1200 803.0000 1.0000
59.1300 788.0000 1.0000
59.1400 737.0000 1.0000
59.1500 761.0000 1.0000
59.1600 728.0000 1.0000
59.1700 735.0000 1.0000
59.1800 777.0000 1.0000
59.1900 795.0000 1.0000
59.2000 753.0000 1.0000
59.2100 797.0000 1.0000
59.2200 781.0000 1.0000
59.2300 763.0000 1.0000
59.2400 797.0000 1.0000
59.2500 836.0000 1.0000
59.2600 756.0000 1.0000
59.2700 793.0000 1.0000
59.2800 759.0000 1.0000
59.2900 779.0000 1.0000
59.3000 773.0000 1.0000
59.3100 709.0000 1.0000
59.3200 785.0000 1.0000
59.3300 779.0000 1.0000
59.3400 798.0000 1.0000
59.3500 764.0000 1.0000
59.3600 780.0000 1.0000
59.3700 772.0000 1.0000
59.3800 742.0000 1.0000
59.3900 807.0000 1.0000
59.4000 767.0000 1.0000
59.4100 769.0000 1.0000
59.4200 723.0000 1.0000
59.4300 792.0000 1.0000
59.4400 781.0000 1.0000
59.4500 729.0000 1.0000
59.4600 730.0000 1.0000
59.4700 704.0000 1.0000
59.4800 736.0000 1.0000
59.4900 735.0000 1.0000
59.5000 763.0000 1.0000
59.5100 754.0000 1.0000
59.5200 790.0000 1.0000
59.5300 750.0000 1.0000
59.5400 780.0000 1.0000
59.5500 727.0000 1.0000
59.5600 771.0000 1.0000
59.5700 754.0000 1.0000
59.5800 778.0000 1.0000
59.5900 787.0000 1.0000
59.6000 741.0000 1.0000
59.6100 755.0000 1.0000
59.6200 735.0000 1.0000
59.6300 725.0000 1.0000
59.6400 772.0000 1.0000
59.6500 744.0000 1.0000
59.6600 750.0000 1.0000
59.6700 781.0000 1.0000
59.6800 760.0000 1.0000
59.6900 755.0000 1.0000
59.7000 734.0000 1.0000
59.7100 742.0000 1.0000
59.7200 762.0000 1.0000
59.7300 788.0000 1.0000
59.7400 777.0000 1.0000
59.7500 726.0000 1.0000
59.7600 712.0000 1.0000
59.7700 675.0000 1.0000
59.7800 752.0000 1.0000
59.7900 739.0000 1.0000
59.8000 688.0000 1.0000
59.8100 759.0000 1.0000
59.8200 739.0000 1.0000
59.8300 744.0000 1.0000
59.8400 747.0000 1.0000
59.8500 754.0000 1.0000
59.8600 766.0000 1.0000
59.8700 790.0000 1.0000
59.8800 757.0000 1.0000
59.8900 759.0000 1.0000
59.9000 788.0000 1.0000
59.9100 747.0000 1.0000
59.9200 748.0000 1.0000
59.9300 714.0000 1.0000
59.9400 762.0000 1.0000
59.9500 792.0000 1.0000
59.9600 755.0000 1.0000
59.9700 770.0000 1.0000
59.9800 766.0000 1.0000
59.9900 813.0000 1.0000
60.0000 784.0000 1.0000
60.0100 703.0000 1.0000
60.0200 773.0000 1.0000
60.0300 813.0000 1.0000
60.0400 737.0000 1.0000
60.0500 737.0000 1.0000
60.0600 754.0000 1.0000
60.0700 768.0000 1.0000
60.0800 759.0000 1.0000
60.0900 757.0000 1.0000
60.1000 773.0000 1.0000
60.1100 785.0000 1.0000
60.1200 801.0000 1.0000
60.1300 777.0000 1.0000
60.1400 747.0000 1.0000
60.1500 755.0000 1.0000
60.1600 771.0000 1.0000
60.1700 805.0000 1.0000
60.1800 780.0000 1.0000
60.1900 788.0000 1.0000
60.2000 766.0000 1.0000
60.2100 748.0000 1.0000
60.2200 744.0000 1.0000
60.2300 709.0000 1.0000
60.2400 753.0000 1.0000
60.2500 738.0000 1.0000
60.2600 754.0000 1.0000
60.2700 771.0000 1.0000
60.2800 762.0000 1.0000
60.2900 743.0000 1.0000
60.3000 819.0000 1.0000
60.3100 757.0000 1.0000
60.3200 726.0000 1.0000
60.3300 765.0000 1.0000
60.3400 775.0000 1.0000
60.3500 769.0000 1.0000
60.3600 794.0000 1.0000
60.3700 782.0000 1.0000
60.3800 722.0000 1.0000
60.3900 742.0000 1.0000
60.4000 754.0000 1.0000
60.4100 791.0000 1.0000
60.4200 752.0000 1.0000
60.4300 751.0000 1.0000
60.4400 720.0000 1.0000
60.4500 746.0000 1.0000
60.4600 767.0000 1.0000
60.4700 761.0000 1.0000
60.4800 753.0000 1.0000
60.4900 752.0000 1.0000
60.5000 729.0000 1.0000
60.5100 794.0000 1.0000
60.5200 729.0000 1.0000
60.5300 739.0000 1.0000
60.5400 730.0000 1.0000
60.5500 785.0000 1.0000
60.5600 773.0000 1.0000
60.5700 750.0000 1.0000
60.5800 738.0000 1.0000
60.5900 773.0000 1.0000
60.6000 773.0000 1.0000
60.6100 746.0000 1.0000
60.6200 764.0000 1.0000
60.6300 773.0000 1.0000
60.6400 755.0000 1.0000
60.6500 755.0000 1.0000
60.6600 748.0000 1.0000
60.6700 723.0000 1.0000
60.6800 765.0000 1.0000
60.6900 798.0000 1.0000
60.7000 762.0000 1.0000
60.7100 772.0000 1.0000
60.7200 766.0000 1.0000
60.7300 753.0000 1.0000
60.7400 773.0000 1.0000
60.7500 772.0000 1.0000
60.7600 809.0000 1.0000
60.7700 740.0000 1.0000
60.7800 738.0000 1.0000
60.7900 745.0000 1.0000
60.8000 716.0000 1.0000
60.8100 802.0000 1.0000
60.8200 729.0000 1.0000
60.8300 734.0000 1.0000
60.8400 754.0000 1.0000
60.8500 781.0000 1.0000
60.8600 794.0000 1.0000
60.8700 752.0000 1.0000
60.8800 788.0000 1.0000
60.8900 766.0000 1.0000
60.9000 781.0000 1.0000
60.9100 789.0000 1.0000
60.9200 796.0000 1.0000
60.9300 768.0000 1.0000
60.9400 779.0000 1.0000
60.9500 793.0000 1.0000
60.9600 753.0000 1.0000
60.9700 770.0000 1.0000
60.9800 778.0000 1.0000
60.9900 762.0000 1.0000
61.0000 727.0000 1.0000
61.0100 721.0000 1.0000
61.0200 720.0000 1.0000
61.0300 729.0000 1.0000
61.0400 742.0000 1.0000
61.0500 764.0000 1.0000
61.0600 776.0000 1.0000
61.0700 737.0000 1.0000
61.0800 764.0000 1.0000
61.0900 794.0000 1.0000
61.1000 744.0000 1.0000
61.1100 733.0000 1.0000
61.1200 784.0000 1.0000
61.1300 790.0000 1.0000
61.1400 768.0000 1.0000
61.1500 775.0000 1.0000
61.1600 742.0000 1.0000
61.1700 759.0000 1.0000
61.1800 781.0000 1.0000
61.1900 829.0000 1.0000
61.2000 778.0000 1.0000
61.2100 752.0000 1.0000
61.2200 752.0000 1.0000
61.2300 746.0000 1.0000
61.2400 786.0000 1.0000
61.2500 800.0000 1.0000
61.2600 737.0000 1.0000
61.2700 741.0000 1.0000
61.2800 748.0000 1.0000
61.2900 718.0000 1.0000
61.3000 791.0000 1.0000
61.3100 811.0000 1.0000
61.3200 764.0000 1.0000
61.3300 768.0000 1.0000
61.3400 754.0000 1.0000
61.3500 745.0000 1.0000
61.3600 768.0000 1.0000
61.3700 745.0000 1.0000
61.3800 768.0000 1.0000
61.3900 752.0000 1.0000
61.4000 789.0000 1.0000
61.4100 756.0000 1.0000
61.4200 780.0000 1.0000
61.4300 767.0000 1.0000
61.4400 765.0000 1.0000
61.4500 815.0000 1.0000
61.4600 777.0000 1.0000
61.4700 732.0000 1.0000
61.4800 775.0000 1.0000
61.4900 803.0000 1.0000
61.5000 835.0000 1.0000
61.5100 770.0000 1.0000
61.5200 798.0000 1.0000
61.5300 789.0000 1.0000
61.5400 770.0000 1.0000
61.5500 771.0000 1.0000
61.5600 776.0000 1.0000
61.5700 765.0000 1.0000
61.5800 804.0000 1.0000
61.5900 779.0000 1.0000
61.6000 819.0000 1.0000
61.6100 789.0000 1.0000
61.6200 813.0000 1.0000
61.6300 835.0000 1.0000
61.6400 827.0000 1.0000
61.6500 830.0000 1.0000
61.6600 800.0000 1.0000
61.6700 815.0000 1.0000
61.6800 834.0000 1.0000
61.6900 815.0000 1.0000
61.7000 827.0000 1.0000
61.7100 817.0000 1.0000
61.7200 771.0000 1.0000
61.7300 866.0000 1.0000
61.7400 845.0000 1.0000
61.7500 855.0000 1.0000
61.7600 830.0000 1.0000
61.7700 807.0000 1.0000
61.7800 826.0000 1.0000
61.7900 821.0000 1.0000
61.8000 865.0000 1.0000
61.8100 859.0000 1.0000
61.8200 826.0000 1.0000
61.8300 819.0000 1.0000
61.8400 906.0000 1.0000
61.8500 876.0000 1.0000
61.8600 862.0000 1.0000
61.8700 900.0000 1.0000
61.8800 907.0000 1.0000
61.8900 878.0000 1.0000
61.9000 884.0000 1.0000
61.9100 893.0000 1.0000
61.9200 919.0000 1.0000
61.9300 929.0000 1.0000
61.9400 963.0000 1.0000
61.9500 974.0000 1.0000
61.9600 967.0000 1.0000
61.9700 956.0000 1.0000
61.9800 987.0000 1.0000
61.9900 961.0000 1.0000
62.0000 985.0000 1.0000
62.0100 1002.0000 1.0000
62.0200 992.0000 1.0000
62.0300 1138.0000 1.0000
62.0400 1109.0000 1.0000
62.0500 1106.0000 1.0000
62.0600 1111.0000 1.0000
62.0700 1213.0000 1.0000
62.0800 1191.0000 1.0000
62.0900 1232.0000 1.0000
62.1000 1243.0000 1.0000
62.1100 1335.0000 1.0000
62.1200 1340.0000 1.0000
62.1300 1346.0000 1.0000
62.1400 1380.0000 1.0000
62.1500 1421.0000 1.0000
62.1600 1448.0000 1.0000
62.1700 1563.0000 1.0000
62.1800 1587.0000 1.0000
62.1900 1598.0000 1.0000
62.2000 1723.0000 1.0000
62.2100 1649.0000 1.0000
62.2200 1679.0000 1.0000
62.2300 1714.0000 1.0000
62.2400 1819.0000 1.0000
62.2500 1796.0000 1.0000
62.2600 1799.0000 1.0000
62.2700 1829.0000 1.0000
62.2800 1831.0000 1.0000
62.2900 1822.0000 1.0000
62.3000 1821.0000 1.0000
62.3100 1828.0000 1.0000
62.3200 1874.0000 1.0000
62.3300 1772.0000 1.0000
62.3400 1830.0000 1.0000
62.3500 1747.0000 1.0000
62.3600 1765.0000 1.0000
62.3700 1693.0000 1.0000
62.3800 1706.0000 1.0000
62.3900 1619.0000 1.0000
62.4000 1694.0000 1.0000
62.4100 1684.0000 1.0000
62.4200 1663.0000 1.0000
62.4300 1610.0000 1.0000
62.4400 1635.0000 1.0000
62.4500 1561.0000 1.0000
62.4600 1565.0000 1.0000
62.4700 1517.0000 1.0000
62.4800 1428.0000 1.0000
62.4900 1383.0000 1.0000
62.5000 1407.0000 1.0000
62.5100 1325.0000 1.0000
62.5200 1334.0000 1.0000
62.5300 1279.0000 1.0000
62.5400 1269.0000 1.0000
62.5500 1247.0000 1.0000
62.5600 1196.0000 1.0000
62.5700 1165.0000 1.0000
62.5800 1206.0000 1.0000
62.5900 1230.0000 1.0000
62.6000 1170.0000 1.0000
62.6100 1078.0000 1.0000
62.6200 1070.0000 1.0000
62.6300 1085.0000 1.0000
62.6400 1075.0000 1.0000
62.6500 1051.0000 1.0000
62.6600 1026.0000 1.0000
62.6700 1037.0000 1.0000
62.6800 990.0000 1.0000
62.6900 1027.0000 1.0000
62.7000 983.0000 1.0000
62.7100 975.0000 1.0000
62.7200 993.0000 1.0000
62.7300 983.0000 1.0000
62.7400 935.0000 1.0000
62.7500 913.0000 1.0000
62.7600 893.0000 1.0000
62.7700 902.0000 1.0000
62.7800 858.0000 1.0000
62.7900 917.0000 1.0000
62.8000 910.0000 1.0000
62.8100 906.0000 1.0000
62.8200 925.0000 1.0000
62.8300 909.0000 1.0000
62.8400 929.0000 1.0000
62.8500 914.0000 1.0000
62.8600 899.0000 1.0000
62.8700 863.0000 1.0000
62.8800 892.0000 1.0000
62.8900 855.0000 1.0000
62.9000 825.0000 1.0000
62.9100 812.0000 1.0000
62.9200 854.0000 1.0000
62.9300 839.0000 1.0000
62.9400 874.0000 1.0000
62.9500 849.0000 1.0000
62.9600 825.0000 1.0000
62.9700 853.0000 1.0000
62.9800 861.0000 1.0000
62.9900 858.0000 1.0000
63.0000 832.0000 1.0000
63.0100 809.0000 1.0000
63.0200 814.0000 1.0000
63.0300 872.0000 1.0000
63.0400 809.0000 1.0000
63.0500 831.0000 1.0000
63.0600 788.0000 1.0000
63.0700 851.0000 1.0000
63.0800 810.0000 1.0000
63.0900 832.0000 1.0000
63.1000 847.0000 1.0000
63.1100 856.0000 1.0000
63.1200 852.0000 1.0000
63.1300 776.0000 1.0000
63.1400 827.0000 1.0000
63.1500 824.0000 1.0000
63.1600 859.0000 1.0000
63.1700 837.0000 1.0000
63.1800 809.0000 1.0000
63.1900 808.0000 1.0000
63.2000 781.0000 1.0000
63.2100 777.0000 1.0000
63.2200 776.0000 1.0000
63.2300 823.0000 1.0000
63.2400 791.0000 1.0000
63.2500 817.0000 1.0000
63.2600 812.0000 1.0000
63.2700 783.0000 1.0000
63.2800 790.0000 1.0000
63.2900 836.0000 1.0000
63.3000 835.0000 1.0000
63.3100 790.0000 1.0000
63.3200 794.0000 1.0000
63.3300 785.0000 1.0000
63.3400 775.0000 1.0000
63.3500 797.0000 1.0000
63.3600 849.0000 1.0000
63.3700 833.0000 1.0000
63.3800 789.0000 1.0000
63.3900 798.0000 1.0000
63.4000 792.0000 1.0000
63.4100 802.0000 1.0000
63.4200 775.0000 1.0000
63.4300 776.0000 1.0000
63.4400 781.0000 1.0000
63.4500 757.0000 1.0000
63.4600 811.0000 1.0000
63.4700 777.0000 1.0000
63.4800 785.0000 1.0000
63.4900 797.0000 1.0000
63.5000 781.0000 1.0000
63.5100 781.0000 1.0000
63.5200 794.0000 1.0000
63.5300 809.0000 1.0000
63.5400 770.0000 1.0000
63.5500 770.0000 1.0000
63.5600 825.0000 1.0000
63.5700 791.0000 1.0000
63.5800 769.0000 1.0000
63.5900 747.0000 1.0000
63.6000 750.0000 1.0000
63.6100 759.0000 1.0000
63.6200 803.0000 1.0000
63.6300 772.0000 1.0000
63.6400 780.0000 1.0000
63.6500 797.0000 1.0000
63.6600 820.0000 1.0000
63.6700 782.0000 1.0000
63.6800 765.0000 1.0000
63.6900 775.0000 1.0000
63.7000 759.0000 1.0000
63.7100 784.0000 1.0000
63.7200 794.0000 1.0000
63.7300 786.0000 1.0000
63.7400 758.0000 1.0000
63.7500 731.0000 1.0000
63.7600 761.0000 1.0000
63.7700 776.0000 1.0000
63.7800 743.0000 1.0000
63.7900 778.0000 1.0000
63.8000 784.0000 1.0000
63.8100 806.0000 1.0000
63.8200 813.0000 1.0000
63.8300 812.0000 1.0000
63.8400 773.0000 1.0000
63.8500 808.0000 1.0000
63.8600 759.0000 1.0000
63.8700 754.0000 1.0000
63.8800 772.0000 1.0000
63.8900 789.0000 1.0000
63.9000 810.0000 1.0000
63.9100 826.0000 1.0000
63.9200 782.0000 1.0000
63.9300 776.0000 1.0000
63.9400 749.0000 1.0000
63.9500 779.0000 1.0000
63.9600 738.0000 1.0000
63.9700 723.0000 1.0000
63.9800 807.0000 1.0000
63.9900 769.0000 1.0000
64.0000 755.0000 1.0000
64.0100 794.0000 1.0000
64.0200 778.0000 1.0000
64.0300 827.0000 1.0000
64.0400 788.0000 1.0000
64.0500 786.0000 1.0000
64.0600 761.0000 1.0000
64.0700 784.0000 1.0000
64.0800 798.0000 1.0000
64.0900 808.0000 1.0000
64.1000 806.0000 1.0000
64.1100 816.0000 1.0000
64.1200 757.0000 1.0000
64.1300 793.0000 1.0000
64.1400 786.0000 1.0000
64.1500 785.0000 1.0000
64.1600 837.0000 1.0000
64.1700 804.0000 1.0000
64.1800 815.0000 1.0000
64.1900 802.0000 1.0000
64.2000 830.0000 1.0000
64.2100 830.0000 1.0000
64.2200 824.0000 1.0000
64.2300 779.0000 1.0000
64.2400 815.0000 1.0000
64.2500 807.0000 1.0000
64.2600 828.0000 1.0000
64.2700 793.0000 1.0000
64.2800 837.0000 1.0000
64.2900 816.0000 1.0000
64.3000 860.0000 1.0000
64.3100 862.0000 1.0000
64.3200 846.0000 1.0000
64.3300 814.0000 1.0000
64.3400 846.0000 1.0000
64.3500 857.0000 1.0000
64.3600 832.0000 1.0000
64.3700 870.0000 1.0000
64.3800 910.0000 1.0000
64.3900 878.0000 1.0000
64.4000 886.0000 1.0000
64.4100 893.0000 1.0000
64.4200 914.0000 1.0000
64.4300 890.0000 1.0000
64.4400 891.0000 1.0000
64.4500 921.0000 1.0000
64.4600 897.0000 1.0000
64.4700 922.0000 1.0000
64.4800 907.0000 1.0000
64.4900 962.0000 1.0000
64.5000 910.0000 1.0000
64.5100 963.0000 1.0000
64.5200 910.0000 1.0000
64.5300 985.0000 1.0000
64.5400 955.0000 1.0000
64.5500 954.0000 1.0000
64.5600 998.0000 1.0000
64.5700 992.0000 1.0000
64.5800 1011.0000 1.0000
64.5900 1028.0000 1.0000
64.6000 972.0000 1.0000
64.6100 974.0000 1.0000
64.6200 1017.0000 1.0000
64.6300 1048.0000 1.0000
64.6400 1075.0000 1.0000
64.6500 1033.0000 1.0000
64.6600 1082.0000 1.0000
64.6700 1042.0000 1.0000
64.6800 1086.0000 1.0000
64.6900 1028.0000 1.0000
64.7000 1102.0000 1.0000
64.7100 988.0000 1.0000
64.7200 1021.0000 1.0000
64.7300 1011.0000 1.0000
64.7400 1020.0000 1.0000
64.7500 1001.0000 1.0000
64.7600 1039.0000 1.0000
64.7700 1042.0000 1.0000
64.7800 975.0000 1.0000
64.7900 1019.0000 1.0000
64.8000 1030.0000 1.0000
64.8100 1021.0000 1.0000
64.8200 1058.0000 1.0000
64.8300 1047.0000 1.0000
64.8400 967.0000 1.0000
64.8500 1035.0000 1.0000
64.8600 998.0000 1.0000
64.8700 1029.0000 1.0000
64.8800 967.0000 1.0000
64.8900 993.0000 1.0000
64.9000 985.0000 1.0000
64.9100 970.0000 1.0000
64.9200 988.0000 1.0000
64.9300 935.0000 1.0000
64.9400 968.0000 1.0000
64.9500 976.0000 1.0000
64.9600 907.0000 1.0000
64.9700 902.0000 1.0000
64.9800 940.0000 1.0000
64.9900 897.0000 1.0000
65.0000 883.0000 1.0000
65.0100 926.0000 1.0000
65.0200 896.0000 1.0000
65.0300 903.0000 1.0000
65.0400 893.0000 1.0000
65.0500 856.0000 1.0000
65.0600 882.0000 1.0000
65.0700 845.0000 1.0000
65.0800 804.0000 1.0000
65.0900 867.0000 1.0000
65.1000 852.0000 1.0000
65.1100 845.0000 1.0000
65.1200 866.0000 1.0000
65.1300 847.0000 1.0000
65.1400 849.0000 1.0000
65.1500 837.0000 1.0000
65.1600 827.0000 1.0000
65.1700 861.0000 1.0000
65.1800 837.0000 1.0000
65.1900 849.0000 1.0000
65.2000 827.0000 1.0000
65.2100 852.0000 1.0000
65.2200 829.0000 1.0000
65.2300 800.0000 1.0000
65.2400 810.0000 1.0000
65.2500 821.0000 1.0000
65.2600 868.0000 1.0000
65.2700 865.0000 1.0000
65.2800 803.0000 1.0000
65.2900 791.0000 1.0000
65.3000 808.0000 1.0000
65.3100 785.0000 1.0000
65.3200 790.0000 1.0000
65.3300 820.0000 1.0000
65.3400 794.0000 1.0000
65.3500 826.0000 1.0000
65.3600 864.0000 1.0000
65.3700 763.0000 1.0000
65.3800 791.0000 1.0000
65.3900 816.0000 1.0000
65.4000 810.0000 1.0000
65.4100 837.0000 1.0000
65.4200 793.0000 1.0000
65.4300 800.0000 1.0000
65.4400 807.0000 1.0000
65.4500 792.0000 1.0000
65.4600 824.0000 1.0000
65.4700 811.0000 1.0000
65.4800 791.0000 1.0000
65.4900 793.0000 1.0000
65.5000 828.0000 1.0000
65.5100 786.0000 1.0000
65.5200 843.0000 1.0000
65.5300 791.0000 1.0000
65.5400 743.0000 1.0000
65.5500 766.0000 1.0000
65.5600 788.0000 1.0000
65.5700 805.0000 1.0000
65.5800 839.0000 1.0000
65.5900 830.0000 1.0000
65.6000 807.0000 1.0000
65.6100 826.0000 1.0000
65.6200 814.0000 1.0000
65.6300 798.0000 1.0000
65.6400 852.0000 1.0000
65.6500 857.0000 1.0000
65.6600 777.0000 1.0000
65.6700 846.0000 1.0000
65.6800 840.0000 1.0000
65.6900 873.0000 1.0000
65.7000 824.0000 1.0000
65.7100 878.0000 1.0000
65.7200 841.0000 1.0000
65.7300 846.0000 1.0000
65.7400 876.0000 1.0000
65.7500 819.0000 1.0000
65.7600 846.0000 1.0000
65.7700 842.0000 1.0000
65.7800 896.0000 1.0000
65.7900 906.0000 1.0000
65.8000 887.0000 1.0000
65.8100 878.0000 1.0000
65.8200 940.0000 1.0000
65.8300 973.0000 1.0000
65.8400 944.0000 1.0000
65.8500 941.0000 1.0000
65.8600 938.0000 1.0000
65.8700 987.0000 1.0000
65.8800 987.0000 1.0000
65.8900 1003.0000 1.0000
65.9000 1000.0000 1.0000
65.9100 997.0000 1.0000
65.9200 990.0000 1.0000
65.9300 1008.0000 1.0000
65.9400 1058.0000 1.0000
65.9500 1095.0000 1.0000
65.9600 1061.0000 1.0000
65.9700 1066.0000 1.0000
65.9800 1145.0000 1.0000
65.9900 1183.0000 1.0000
66.0000 1217.0000 1.0000
66.0100 1216.0000 1.0000
66.0200 1277.0000 1.0000
66.0300 1308.0000 1.0000
66.0400 1357.0000 1.0000
66.0500 1352.0000 1.0000
66.0600 1493.0000 1.0000
66.0700 1542.0000 1.0000
66.0800 1520.0000 1.0000
66.0900 1637.0000 1.0000
66.1000 1651.0000 1.0000
66.1100 1878.0000 1.0000
66.1200 2006.0000 1.0000
66.1300 2013.0000 1.0000
66.1400 2164.0000 1.0000
66.1500 2213.0000 1.0000
66.1600 2335.0000 1.0000
66.1700 2432.0000 1.0000
66.1800 2596.0000 1.0000
66.1900 2628.0000 1.0000
66.2000 2733.0000 1.0000
66.2100 2807.0000 1.0000
66.2200 2792.0000 1.0000
66.2300 2890.0000 1.0000
66.2400 2911.0000 1.0000
66.2500 2821.0000 1.0000
66.2600 2825.0000 1.0000
66.2700 2727.0000 1.0000
66.2800 2751.0000 1.0000
66.2900 2650.0000 1.0000
66.3000 2605.0000 1.0000
66.3100 2571.0000 1.0000
66.3200 2563.0000 1.0000
66.3300 2496.0000 1.0000
66.3400 2439.0000 1.0000
66.3500 2466.0000 1.0000
66.3600 2415.0000 1.0000
66.3700 2443.0000 1.0000
66.3800 2372.0000 1.0000
66.3900 2336.0000 1.0000
66.4000 2251.0000 1.0000
66.4100 2255.0000 1.0000
66.4200 2202.0000 1.0000
66.4300 2122.0000 1.0000
66.4400 2095.0000 1.0000
66.4500 2069.0000 1.0000
66.4600 1972.0000 1.0000
66.4700 1887.0000 1.0000
66.4800 1779.0000 1.0000
66.4900 1742.0000 1.0000
66.5000 1636.0000 1.0000
66.5100 1596.0000 1.0000
66.5200 1565.0000 1.0000
66.5300 1502.0000 1.0000
66.5400 1438.0000 1.0000
66.5500 1413.0000 1.0000
66.5600 1344.0000 1.0000
66.5700 1356.0000 1.0000
66.5800 1294.0000 1.0000
66.5900 1217.0000 1.0000
66.6000 1181.0000 1.0000
66.6100 1178.0000 1.0000
66.6200 1171.0000 1.0000
66.6300 1180.0000 1.0000
66.6400 1098.0000 1.0000
66.6500 1021.0000 1.0000
66.6600 1023.0000 1.0000
66.6700 1040.0000 1.0000
66.6800 995.0000 1.0000
66.6900 985.0000 1.0000
66.7000 949.0000 1.0000
66.7100 928.0000 1.0000
66.7200 929.0000 1.0000
66.7300 888.0000 1.0000
66.7400 948.0000 1.0000
66.7500 938.0000 1.0000
66.7600 919.0000 1.0000
66.7700 879.0000 1.0000
66.7800 861.0000 1.0000
66.7900 884.0000 1.0000
66.8000 889.0000 1.0000
66.8100 859.0000 1.0000
66.8200 827.0000 1.0000
66.8300 825.0000 1.0000
66.8400 821.0000 1.0000
66.8500 849.0000 1.0000
66.8600 827.0000 1.0000
66.8700 779.0000 1.0000
66.8800 823.0000 1.0000
66.8900 858.0000 1.0000
66.9000 840.0000 1.0000
66.9100 838.0000 1.0000
66.9200 799.0000 1.0000
66.9300 807.0000 1.0000
66.9400 822.0000 1.0000
66.9500 809.0000 1.0000
66.9600 811.0000 1.0000
66.9700 802.0000 1.0000
66.9800 787.0000 1.0000
66.9900 782.0000 1.0000
67.0000 813.0000 1.0000
67.0100 833.0000 1.0000
67.0200 781.0000 1.0000
67.0300 788.0000 1.0000
67.0400 764.0000 1.0000
67.0500 769.0000 1.0000
67.0600 766.0000 1.0000
67.0700 762.0000 1.0000
67.0800 776.0000 1.0000
67.0900 763.0000 1.0000
67.1000 719.0000 1.0000
67.1100 772.0000 1.0000
67.1200 781.0000 1.0000
67.1300 801.0000 1.0000
67.1400 737.0000 1.0000
67.1500 749.0000 1.0000
67.1600 727.0000 1.0000
67.1700 728.0000 1.0000
67.1800 747.0000 1.0000
67.1900 717.0000 1.0000
67.2000 764.0000 1.0000
67.2100 765.0000 1.0000
67.2200 735.0000 1.0000
67.2300 786.0000 1.0000
67.2400 763.0000 1.0000
67.2500 705.0000 1.0000
67.2600 715.0000 1.0000
67.2700 760.0000 1.0000
67.2800 705.0000 1.0000
67.2900 723.0000 1.0000
67.3000 680.0000 1.0000
67.3100 731.0000 1.0000
67.3200 766.0000 1.0000
67.3300 707.0000 1.0000
67.3400 679.0000 1.0000
67.3500 729.0000 1.0000
67.3600 737.0000 1.0000
67.3700 767.0000 1.0000
67.3800 764.0000 1.0000
67.3900 766.0000 1.0000
67.4000 767.0000 1.0000
67.4100 738.0000 1.0000
67.4200 717.0000 1.0000
67.4300 701.0000 1.0000
67.4400 699.0000 1.0000
67.4500 678.0000 1.0000
67.4600 729.0000 1.0000
67.4700 740.0000 1.0000
67.4800 741.0000 1.0000
67.4900 703.0000 1.0000
67.5000 680.0000 1.0000
67.5100 695.0000 1.0000
67.5200 673.0000 1.0000
67.5300 681.0000 1.0000
67.5400 660.0000 1.0000
67.5500 744.0000 1.0000
67.5600 742.0000 1.0000
67.5700 732.0000 1.0000
67.5800 722.0000 1.0000
67.5900 765.0000 1.0000
67.6000 737.0000 1.0000
67.6100 723.0000 1.0000
67.6200 700.0000 1.0000
67.6300 687.0000 1.0000
67.6400 716.0000 1.0000
67.6500 708.0000 1.0000
67.6600 732.0000 1.0000
67.6700 665.0000 1.0000
67.6800 678.0000 1.0000
67.6900 707.0000 1.0000
67.7000 699.0000 1.0000
67.7100 749.0000 1.0000
67.7200 710.0000 1.0000
67.7300 704.0000 1.0000
67.7400 693.0000 1.0000
67.7500 711.0000 1.0000
67.7600 717.0000 1.0000
67.7700 706.0000 1.0000
67.7800 703.0000 1.0000
67.7900 710.0000 1.0000
67.8000 690.0000 1.0000
67.8100 682.0000 1.0000
67.8200 696.0000 1.0000
67.8300 713.0000 1.0000
67.8400 740.0000 1.0000
67.8500 716.0000 1.0000
67.8600 730.0000 1.0000
67.8700 698.0000 1.0000
67.8800 653.0000 1.0000
67.8900 695.0000 1.0000
67.9000 723.0000 1.0000
67.9100 691.0000 1.0000
67.9200 725.0000 1.0000
67.9300 709.0000 1.0000
67.9400 662.0000 1.0000
67.9500 687.0000 1.0000
67.9600 719.0000 1.0000
67.9700 680.0000 1.0000
67.9800 670.0000 1.0000
67.9900 689.0000 1.0000
68.0000 695.0000 1.0000
68.0100 673.0000 1.0000
68.0200 741.0000 1.0000
68.0300 771.0000 1.0000
68.0400 732.0000 1.0000
68.0500 701.0000 1.0000
68.0600 707.0000 1.0000
68.0700 669.0000 1.0000
68.0800 709.0000 1.0000
68.0900 675.0000 1.0000
68.1000 744.0000 1.0000
68.1100 701.0000 1.0000
68.1200 673.0000 1.0000
68.1300 700.0000 1.0000
68.1400 697.0000 1.0000
68.1500 707.0000 1.0000
68.1600 708.0000 1.0000
68.1700 750.0000 1.0000
68.1800 706.0000 1.0000
68.1900 708.0000 1.0000
68.2000 696.0000 1.0000
68.2100 694.0000 1.0000
68.2200 685.0000 1.0000
68.2300 660.0000 1.0000
68.2400 668.0000 1.0000
68.2500 697.0000 1.0000
68.2600 684.0000 1.0000
68.2700 668.0000 1.0000
68.2800 691.0000 1.0000
68.2900 703.0000 1.0000
68.3000 684.0000 1.0000
68.3100 690.0000 1.0000
68.3200 699.0000 1.0000
68.3300 698.0000 1.0000
68.3400 741.0000 1.0000
68.3500 697.0000 1.0000
68.3600 690.0000 1.0000
68.3700 692.0000 1.0000
68.3800 730.0000 1.0000
68.3900 676.0000 1.0000
68.4000 696.0000 1.0000
68.4100 726.0000 1.0000
68.4200 708.0000 1.0000
68.4300 626.0000 1.0000
68.4400 690.0000 1.0000
68.4500 683.0000 1.0000
68.4600 692.0000 1.0000
68.4700 683.0000 1.0000
68.4800 659.0000 1.0000
68.4900 721.0000 1.0000
68.5000 672.0000 1.0000
68.5100 673.0000 1.0000
68.5200 725.0000 1.0000
68.5300 659.0000 1.0000
68.5400 680.0000 1.0000
68.5500 659.0000 1.0000
68.5600 691.0000 1.0000
68.5700 674.0000 1.0000
68.5800 717.0000 1.0000
68.5900 696.0000 1.0000
68.6000 681.0000 1.0000
68.6100 697.0000 1.0000
68.6200 715.0000 1.0000
68.6300 650.0000 1.0000
68.6400 709.0000 1.0000
68.6500 708.0000 1.0000
68.6600 717.0000 1.0000
68.6700 692.0000 1.0000
68.6800 718.0000 1.0000
68.6900 664.0000 1.0000
68.7000 692.0000 1.0000
68.7100 697.0000 1.0000
68.7200 683.0000 1.0000
68.7300 679.0000 1.0000
68.7400 739.0000 1.0000
68.7500 673.0000 1.0000
68.7600 658.0000 1.0000
68.7700 664.0000 1.0000
68.7800 658.0000 1.0000
68.7900 629.0000 1.0000
68.8000 654.0000 1.0000
68.8100 675.0000 1.0000
68.8200 686.0000 1.0000
68.8300 689.0000 1.0000
68.8400 697.0000 1.0000
68.8500 670.0000 1.0000
68.8600 657.0000 1.0000
68.8700 648.0000 1.0000
68.8800 678.0000 1.0000
68.8900 669.0000 1.0000
68.9000 710.0000 1.0000
68.9100 689.0000 1.0000
68.9200 647.0000 1.0000
68.9300 657.0000 1.0000
68.9400 682.0000 1.0000
68.9500 672.0000 1.0000
68.9600 668.0000 1.0000
68.9700 683.0000 1.0000
68.9800 695.0000 1.0000
68.9900 665.0000 1.0000
69.0000 640.0000 1.0000
69.0100 612.0000 1.0000
69.0200 684.0000 1.0000
69.0300 701.0000 1.0000
69.0400 695.0000 1.0000
69.0500 724.0000 1.0000
69.0600 677.0000 1.0000
69.0700 717.0000 1.0000
69.0800 669.0000 1.0000
69.0900 633.0000 1.0000
69.1000 727.0000 1.0000
69.1100 700.0000 1.0000
69.1200 685.0000 1.0000
69.1300 666.0000 1.0000
69.1400 652.0000 1.0000
69.1500 654.0000 1.0000
69.1600 716.0000 1.0000
69.1700 689.0000 1.0000
69.1800 664.0000 1.0000
69.1900 641.0000 1.0000
69.2000 677.0000 1.0000
69.2100 652.0000 1.0000
69.2200 700.0000 1.0000
69.2300 686.0000 1.0000
69.2400 674.0000 1.0000
69.2500 684.0000 1.0000
69.2600 668.0000 1.0000
69.2700 725.0000 1.0000
69.2800 692.0000 1.0000
69.2900 694.0000 1.0000
69.3000 682.0000 1.0000
69.3100 694.0000 1.0000
69.3200 684.0000 1.0000
69.3300 715.0000 1.0000
69.3400 650.0000 1.0000
69.3500 667.0000 1.0000
69.3600 636.0000 1.0000
69.3700 670.0000 1.0000
69.3800 686.0000 1.0000
69.3900 667.0000 1.0000
69.4000 668.0000 1.0000
69.4100 701.0000 1.0000
69.4200 669.0000 1.0000
69.4300 658.0000 1.0000
69.4400 677.0000 1.0000
69.4500 670.0000 1.0000
69.4600 680.0000 1.0000
69.4700 686.0000 1.0000
69.4800 695.0000 1.0000
69.4900 665.0000 1.0000
69.5000 646.0000 1.0000
69.5100 662.0000 1.0000
69.5200 688.0000 1.0000
69.5300 715.0000 1.0000
69.5400 676.0000 1.0000
69.5500 669.0000 1.0000
69.5600 661.0000 1.0000
69.5700 694.0000 1.0000
69.5800 686.0000 1.0000
69.5900 707.0000 1.0000
69.6000 685.0000 1.0000
69.6100 702.0000 1.0000
69.6200 712.0000 1.0000
69.6300 688.0000 1.0000
69.6400 681.0000 1.0000
69.6500 669.0000 1.0000
69.6600 707.0000 1.0000
69.6700 655.0000 1.0000
69.6800 690.0000 1.0000
69.6900 688.0000 1.0000
69.7000 671.0000 1.0000
69.7100 641.0000 1.0000
69.7200 678.0000 1.0000
69.7300 685.0000 1.0000
69.7400 697.0000 1.0000
69.7500 668.0000 1.0000
69.7600 685.0000 1.0000
69.7700 664.0000 1.0000
69.7800 673.0000 1.0000
69.7900 652.0000 1.0000
69.8000 672.0000 1.0000
69.8100 664.0000 1.0000
69.8200 634.0000 1.0000
69.8300 646.0000 1.0000
69.8400 636.0000 1.0000
69.8500 631.0000 1.0000
69.8600 642.0000 1.0000
69.8700 674.0000 1.0000
69.8800 696.0000 1.0000
69.8900 654.0000 1.0000
69.9000 638.0000 1.0000
69.9100 647.0000 1.0000
69.9200 631.0000 1.0000
69.9300 671.0000 1.0000
69.9400 683.0000 1.0000
69.9500 669.0000 1.0000
69.9600 615.0000 1.0000
69.9700 601.0000 1.0000
69.9800 649.0000 1.0000
69.9900 658.0000 1.0000
70.0000 654.0000 1.0000
*RAS_INT_END
*RAS_TEMPERATURE_START
*RAS_TEMPERATURE_END
*RAS_DATA_END
