*RAS_DATA_START
*RAS_HEADER_START
*DISP_FMT_X "%.2f"
*DISP_FMT_Y "%.0f"
*DISP_FULLSCALE "15152.0000000000"
*DISP_LINE_COLOR "255.0000000000"
*DISP_LINE_STYLE "0.0000000000"
*DISP_LINE_WIDTH "0.2500000000"
*DISP_NOTE "測定データ-4"
*DISP_OFFSET_Y "0.0000000000"
*DISP_PEAKSEARCH_UNIT_Y "cps"
*DISP_RANGE_BOTTOM "0.0000000000"
*DISP_RANGE_LEFT "20.0000000000"
*DISP_RANGE_LOGCUTOFF "0.0100000000"
*DISP_RANGE_RIGHT "70.0000000000"
*DISP_RANGE_TOP "15152.0000000000"
*DISP_SCALE_MODE_Y "0.0000000000"
*DISP_TAB_NAME "2θ/θ"
*DISP_TITLE_Y "強度"
*DISP_UNIT_Y "cps"
*DISP_WINDOW_NAME "MSG_MACROENGINE"
*FILE_COMMENT " "
*FILE_MD5 ""
*FILE_MEMO " "
*FILE_OPERATOR "Administrator"
*FILE_SAMPLE " "
*FILE_TYPE "RAS_RAW"
*FILE_USERGROUP "システムマネージャ"
*FILE_VERSION "1.0000000000"
*HW_ATTACHMENT_ID "ATT0025"
*HW_ATTACHMENT_NAME "標準|Standard"
*HW_COUNTER_ID-0 "CUT0025"
*HW_COUNTER_ID-1 "CUT0020"
*HW_COUNTER_ID-2 "CUT0020"
*HW_COUNTER_ID-3 "CSL0021"
*HW_COUNTER_ID-4 "CMC0021"
*HW_COUNTER_NAME-0 "D/teX Ultra|D/teX Ultra"
*HW_COUNTER_NAME-1 "None|None"
*HW_COUNTER_NAME-2 "None|None"
*HW_COUNTER_NAME-3 "BBM|BBM"
*HW_COUNTER_NAME-4 "検出器モノクロメータ|Detector monochromator"
*HW_COUNTER_SELECT_NAME "D/teX Ultra|D/teX Ultra"
*HW_GONIOMETER_ID "GON0023"
*HW_GONIOMETER_NAME "SmartLab|SmartLab"
*HW_GONIOMETER_RADIUS-0 "90.0"
*HW_GONIOMETER_RADIUS-1 "114.0"
*HW_GONIOMETER_RADIUS-2 "190.0"
*HW_GONIOMETER_RADIUS-3 "300.0"
*HW_GONIOMETER_RADIUS-4 "187.0"
*HW_GONIOMETER_RADIUS-5 "300.0"
*HW_GONIOMETER_RADIUS-6 "113.0"
*HW_GONIOMETER_RADIUS-7 "331.0"
*HW_I_OPT_ID-0 "CBO0021"
*HW_I_OPT_ID-1 "ICR0023"
*HW_I_OPT_ID-2 "ISL0021"
*HW_I_OPT_ID-3 "ISO0021"
*HW_I_OPT_ID-4 "IAD0021"
*HW_I_OPT_ID-5 "IPR0001"
*HW_I_OPT_NAME-0 "CBOユニット|CBO unit"
*HW_I_OPT_NAME-1 "標準入射光学ユニット|Standard incident optical unit"
*HW_I_OPT_NAME-2 "標準入射スリットボックス|Standard incident slit box"
*HW_I_OPT_NAME-3 "入射平行スリット|Incident parallel slit"
*HW_I_OPT_NAME-4 "長手制限スリット|Length limiting slit"
*HW_I_OPT_NAME-5 "None|None"
*HW_R_ATTENUATER_AUTOMODE "0"
*HW_R_OPT_ID-0 "RSS0021"
*HW_R_OPT_ID-1 "RCR0023"
*HW_R_OPT_ID-2 "RSO0021"
*HW_R_OPT_ID-3 "RRS0021"
*HW_R_OPT_ID-4 "ATN0021"
*HW_R_OPT_ID-5 "RFL0021"
*HW_R_OPT_ID-6 "RAD0021"
*HW_R_OPT_NAME-0 "標準受光スリットボックス1|Standard receiving slit box # 1"
*HW_R_OPT_NAME-1 "標準受光光学ユニット1|Standard receiving unit # 1"
*HW_R_OPT_NAME-2 "標準受光光学ユニット2|Standard receiving optical unit # 2"
*HW_R_OPT_NAME-3 "標準受光スリットボックス2|Standard receiving slit box # 2"
*HW_R_OPT_NAME-4 "標準アッテネータ|Standard Attenuator"
*HW_R_OPT_NAME-5 "Cu Kβ|Cu K-beta"
*HW_R_OPT_NAME-6 "調整用受光スリット|Alignment receiving slit"
*HW_SAMPLE_HOLDER_ID "SMP0023"
*HW_SAMPLE_HOLDER_NAME "標準Zステージ|Standard Z stage"
*HW_XG_CURRENT_MAX "50"
*HW_XG_CURRENT_MIN "2"
*HW_XG_CURRENT_RESOLUTION "1"
*HW_XG_CURRENT_UNIT "mA"
*HW_XG_FOCUS "1mm x 10mm"
*HW_XG_FOCUS_TYPE "Normal"
*HW_XG_ID ""
*HW_XG_NAME "3kW 封入管(ID:1200)|3kW Sealed tube(ID:1200)"
*HW_XG_TARGET_ATOMIC_NUMBER "29.0000000000"
*HW_XG_TARGET_NAME "Cu"
*HW_XG_TYPE "Hermetic"
*HW_XG_VOLTAGE_MAX "60"
*HW_XG_VOLTAGE_MIN "20"
*HW_XG_VOLTAGE_RESOLUTION "1"
*HW_XG_VOLTAGE_UNIT "kV"
*HW_XG_WATT_MAX "1.500"
*HW_XG_WATT_UNIT "kW"
*HW_XG_WAVE_LENGTH_ALPHA1 "1.540593"
*HW_XG_WAVE_LENGTH_ALPHA2 "1.544414"
*HW_XG_WAVE_LENGTH_BETA "1.392250"
*MEAS_COND_AXIS_NAME-0 "2θ/θ"
*MEAS_COND_AXIS_NAME-1 "2θ"
*MEAS_COND_AXIS_NAME-2 "ω"
*MEAS_COND_AXIS_NAME-3 "Z"
*MEAS_COND_AXIS_NAME-4 "2θ/ω"
*MEAS_COND_AXIS_NAME-5 "θs"
*MEAS_COND_AXIS_NAME-6 "θd"
*MEAS_COND_AXIS_NAME-7 "Ts"
*MEAS_COND_AXIS_NAME-8 "CBO選択スリット"
*MEAS_COND_AXIS_NAME-9 "M"
*MEAS_COND_AXIS_NAME-10 "入射平行スリット"
*MEAS_COND_AXIS_NAME-11 "入射スリット"
*MEAS_COND_AXIS_NAME-12 ""
*MEAS_COND_AXIS_NAME-13 "Zs"
*MEAS_COND_AXIS_NAME-14 "入射光学素子"
*MEAS_COND_AXIS_NAME-15 "長手制限スリット"
*MEAS_COND_AXIS_NAME-16 "センタースリット"
*MEAS_COND_AXIS_NAME-17 "フィルター"
*MEAS_COND_AXIS_NAME-18 "受光スリット1"
*MEAS_COND_AXIS_NAME-19 "受光スリット2"
*MEAS_COND_AXIS_NAME-20 "受光光学素子"
*MEAS_COND_AXIS_NAME-21 "受光平行スリット"
*MEAS_COND_AXIS_NAME-22 "調整用受光スリット"
*MEAS_COND_AXIS_NAME-23 ""
*MEAS_COND_AXIS_NAME-24 ""
*MEAS_COND_AXIS_NAME-25 "Zd"
*MEAS_COND_AXIS_NAME-26 "アッテネータ"
*MEAS_COND_AXIS_NAME-27 "検出器モノクロメータ"
*MEAS_COND_AXIS_NAME-28 "モノクロメータスリット"
*MEAS_COND_AXIS_NAME-29 "プライマリビーム"
*MEAS_COND_AXIS_NAME-30 "PHA"
*MEAS_COND_AXIS_NAME_INTERNAL-0 "TwoThetaTheta"
*MEAS_COND_AXIS_NAME_INTERNAL-1 "TwoTheta"
*MEAS_COND_AXIS_NAME_INTERNAL-2 "Omega"
*MEAS_COND_AXIS_NAME_INTERNAL-3 "Z"
*MEAS_COND_AXIS_NAME_INTERNAL-4 "TwoThetaOmega"
*MEAS_COND_AXIS_NAME_INTERNAL-5 "ThetaS"
*MEAS_COND_AXIS_NAME_INTERNAL-6 "ThetaD"
*MEAS_COND_AXIS_NAME_INTERNAL-7 "Ts"
*MEAS_COND_AXIS_NAME_INTERNAL-8 "CBO"
*MEAS_COND_AXIS_NAME_INTERNAL-9 "CBO-M"
*MEAS_COND_AXIS_NAME_INTERNAL-10 "IncidentSollerSlit"
*MEAS_COND_AXIS_NAME_INTERNAL-11 "IncidentSlitBox"
*MEAS_COND_AXIS_NAME_INTERNAL-12 "IncidentSlitBox-_Axis"
*MEAS_COND_AXIS_NAME_INTERNAL-13 "Zs"
*MEAS_COND_AXIS_NAME_INTERNAL-14 "IncidentMonochromator"
*MEAS_COND_AXIS_NAME_INTERNAL-15 "IncidentAxdSlit"
*MEAS_COND_AXIS_NAME_INTERNAL-16 "CenterSlit"
*MEAS_COND_AXIS_NAME_INTERNAL-17 "Filter"
*MEAS_COND_AXIS_NAME_INTERNAL-18 "ReceivingSlitBox1"
*MEAS_COND_AXIS_NAME_INTERNAL-19 "ReceivingSlitBox2"
*MEAS_COND_AXIS_NAME_INTERNAL-20 "ReceivingOptics"
*MEAS_COND_AXIS_NAME_INTERNAL-21 "ReceivingSollerSlit"
*MEAS_COND_AXIS_NAME_INTERNAL-22 "ReceivingAxdSlit"
*MEAS_COND_AXIS_NAME_INTERNAL-23 "ReceivingSlitBox1-_Axis"
*MEAS_COND_AXIS_NAME_INTERNAL-24 "ReceivingSlitBox2-_Axis"
*MEAS_COND_AXIS_NAME_INTERNAL-25 "ReceivingSlitBox2-Zd"
*MEAS_COND_AXIS_NAME_INTERNAL-26 "Attenuator"
*MEAS_COND_AXIS_NAME_INTERNAL-27 "CounterMonochromator"
*MEAS_COND_AXIS_NAME_INTERNAL-28 "CounterSlit"
*MEAS_COND_AXIS_NAME_INTERNAL-29 "IncidentPrimary"
*MEAS_COND_AXIS_NAME_INTERNAL-30 "PHA"
*MEAS_COND_AXIS_NAME_MAGICNO-0 "83951616.0000000000"
*MEAS_COND_AXIS_NAME_MAGICNO-1 "268632064.0000000000"
*MEAS_COND_AXIS_NAME_MAGICNO-2 "268500992.0000000000"
*MEAS_COND_AXIS_NAME_MAGICNO-3 "285278208.0000000000"
*MEAS_COND_AXIS_NAME_MAGICNO-4 "83951616.0000000000"
*MEAS_COND_AXIS_NAME_MAGICNO-5 "131072.0000000000"
*MEAS_COND_AXIS_NAME_MAGICNO-6 "131072.0000000000"
*MEAS_COND_AXIS_NAME_MAGICNO-7 "318898176.0000000000"
*MEAS_COND_AXIS_NAME_MAGICNO-8 "20971521.0000000000"
*MEAS_COND_AXIS_NAME_MAGICNO-9 "285343744.0000000000"
*MEAS_COND_AXIS_NAME_MAGICNO-10 "20971521.0000000000"
*MEAS_COND_AXIS_NAME_MAGICNO-11 "22020097.0000000000"
*MEAS_COND_AXIS_NAME_MAGICNO-12 "25165824.0000000000"
*MEAS_COND_AXIS_NAME_MAGICNO-13 "318898176.0000000000"
*MEAS_COND_AXIS_NAME_MAGICNO-14 "1.0000000000"
*MEAS_COND_AXIS_NAME_MAGICNO-15 "20971521.0000000000"
*MEAS_COND_AXIS_NAME_MAGICNO-16 "20971521.0000000000"
*MEAS_COND_AXIS_NAME_MAGICNO-17 "20971521.0000000000"
*MEAS_COND_AXIS_NAME_MAGICNO-18 "23068673.0000000000"
*MEAS_COND_AXIS_NAME_MAGICNO-19 "23068673.0000000000"
*MEAS_COND_AXIS_NAME_MAGICNO-20 "20971521.0000000000"
*MEAS_COND_AXIS_NAME_MAGICNO-21 "20971521.0000000000"
*MEAS_COND_AXIS_NAME_MAGICNO-22 "20971521.0000000000"
*MEAS_COND_AXIS_NAME_MAGICNO-23 "25165824.0000000000"
*MEAS_COND_AXIS_NAME_MAGICNO-24 "25165824.0000000000"
*MEAS_COND_AXIS_NAME_MAGICNO-25 "285343744.0000000000"
*MEAS_COND_AXIS_NAME_MAGICNO-26 "17301505.0000000000"
*MEAS_COND_AXIS_NAME_MAGICNO-27 "20971521.0000000000"
*MEAS_COND_AXIS_NAME_MAGICNO-28 "20971521.0000000000"
*MEAS_COND_AXIS_NAME_MAGICNO-29 "20971521.0000000000"
*MEAS_COND_AXIS_NAME_MAGICNO-30 "0.0000000000"
*MEAS_COND_AXIS_OFFSET-0 "-"
*MEAS_COND_AXIS_OFFSET-1 "-0.1081000000"
*MEAS_COND_AXIS_OFFSET-2 "0.3758000000"
*MEAS_COND_AXIS_OFFSET-3 "-"
*MEAS_COND_AXIS_OFFSET-4 "-"
*MEAS_COND_AXIS_OFFSET-5 "0.3758000000"
*MEAS_COND_AXIS_OFFSET-6 "-0.4839000000"
*MEAS_COND_AXIS_OFFSET-7 "-"
*MEAS_COND_AXIS_OFFSET-8 "-"
*MEAS_COND_AXIS_OFFSET-9 "-"
*MEAS_COND_AXIS_OFFSET-10 "-"
*MEAS_COND_AXIS_OFFSET-11 "-"
*MEAS_COND_AXIS_OFFSET-12 "-"
*MEAS_COND_AXIS_OFFSET-13 "-"
*MEAS_COND_AXIS_OFFSET-14 "-"
*MEAS_COND_AXIS_OFFSET-15 "-"
*MEAS_COND_AXIS_OFFSET-16 "-"
*MEAS_COND_AXIS_OFFSET-17 "-"
*MEAS_COND_AXIS_OFFSET-18 "-"
*MEAS_COND_AXIS_OFFSET-19 "-"
*MEAS_COND_AXIS_OFFSET-20 "-"
*MEAS_COND_AXIS_OFFSET-21 "-"
*MEAS_COND_AXIS_OFFSET-22 "-"
*MEAS_COND_AXIS_OFFSET-23 "-"
*MEAS_COND_AXIS_OFFSET-24 "-"
*MEAS_COND_AXIS_OFFSET-25 "-"
*MEAS_COND_AXIS_OFFSET-26 "-"
*MEAS_COND_AXIS_OFFSET-27 "-"
*MEAS_COND_AXIS_OFFSET-28 "-"
*MEAS_COND_AXIS_OFFSET-29 "-"
*MEAS_COND_AXIS_OFFSET-30 "-"
*MEAS_COND_AXIS_POSITION-0 "0.0000000000"
*MEAS_COND_AXIS_POSITION-1 "0.0000000000"
*MEAS_COND_AXIS_POSITION-2 "0.0000000000"
*MEAS_COND_AXIS_POSITION-3 "-0.5500000000"
*MEAS_COND_AXIS_POSITION-4 "0.0000000000"
*MEAS_COND_AXIS_POSITION-5 "0.0000000000"
*MEAS_COND_AXIS_POSITION-6 "0.0000000000"
*MEAS_COND_AXIS_POSITION-7 "-0.4278800000"
*MEAS_COND_AXIS_POSITION-8 "BB"
*MEAS_COND_AXIS_POSITION-9 "0.0000000000"
*MEAS_COND_AXIS_POSITION-10 "Soller_slit_5.0deg"
*MEAS_COND_AXIS_POSITION-11 "2/3deg"
*MEAS_COND_AXIS_POSITION-12 "2.2088000000"
*MEAS_COND_AXIS_POSITION-13 "-0.4140600000"
*MEAS_COND_AXIS_POSITION-14 "0.0000000000"
*MEAS_COND_AXIS_POSITION-15 "10.0mm"
*MEAS_COND_AXIS_POSITION-16 "None"
*MEAS_COND_AXIS_POSITION-17 "Cu_K-beta"
*MEAS_COND_AXIS_POSITION-18 "10.036mm"
*MEAS_COND_AXIS_POSITION-19 "13.000mm"
*MEAS_COND_AXIS_POSITION-20 "No_unit"
*MEAS_COND_AXIS_POSITION-21 "Soller_slit_5.0deg"
*MEAS_COND_AXIS_POSITION-22 "None"
*MEAS_COND_AXIS_POSITION-23 "10.0363000000"
*MEAS_COND_AXIS_POSITION-24 "13.0000000000"
*MEAS_COND_AXIS_POSITION-25 "0.0109400000"
*MEAS_COND_AXIS_POSITION-26 "Open"
*MEAS_COND_AXIS_POSITION-27 "None"
*MEAS_COND_AXIS_POSITION-28 "None"
*MEAS_COND_AXIS_POSITION-29 "None"
*MEAS_COND_AXIS_POSITION-30 "38.0000000000"
*MEAS_COND_AXIS_UNIT-0 "deg"
*MEAS_COND_AXIS_UNIT-1 "deg"
*MEAS_COND_AXIS_UNIT-2 "deg"
*MEAS_COND_AXIS_UNIT-3 "mm"
*MEAS_COND_AXIS_UNIT-4 "deg"
*MEAS_COND_AXIS_UNIT-5 "deg"
*MEAS_COND_AXIS_UNIT-6 "deg"
*MEAS_COND_AXIS_UNIT-7 "mm"
*MEAS_COND_AXIS_UNIT-8 ""
*MEAS_COND_AXIS_UNIT-9 "pulse"
*MEAS_COND_AXIS_UNIT-10 ""
*MEAS_COND_AXIS_UNIT-11 ""
*MEAS_COND_AXIS_UNIT-12 "mm"
*MEAS_COND_AXIS_UNIT-13 "mm"
*MEAS_COND_AXIS_UNIT-14 ""
*MEAS_COND_AXIS_UNIT-15 ""
*MEAS_COND_AXIS_UNIT-16 ""
*MEAS_COND_AXIS_UNIT-17 ""
*MEAS_COND_AXIS_UNIT-18 ""
*MEAS_COND_AXIS_UNIT-19 ""
*MEAS_COND_AXIS_UNIT-20 ""
*MEAS_COND_AXIS_UNIT-21 ""
*MEAS_COND_AXIS_UNIT-22 ""
*MEAS_COND_AXIS_UNIT-23 "mm"
*MEAS_COND_AXIS_UNIT-24 "mm"
*MEAS_COND_AXIS_UNIT-25 "mm"
*MEAS_COND_AXIS_UNIT-26 ""
*MEAS_COND_AXIS_UNIT-27 ""
*MEAS_COND_AXIS_UNIT-28 ""
*MEAS_COND_AXIS_UNIT-29 ""
*MEAS_COND_AXIS_UNIT-30 "div"
*MEAS_COND_COUNTER_CNTLOSS_CORR "0.0000000000"
*MEAS_COND_COUNTER_PHABASE "38.0000000000"
*MEAS_COND_COUNTER_PHAWINDOW "16.0000000000"
*MEAS_COND_COUNTER_PHA_UNIT "div"
*MEAS_COND_COUNTER_TAUDIFF "30.0000000000"
*MEAS_COND_COUNTER_TAUINT "0.0000000000"
*MEAS_COND_IRRADIATION_MODE "OFF"
*MEAS_COND_IRRADIATION_WIDTH ""
*MEAS_COND_OPT_ATTR "集中法"
*MEAS_COND_OPT_NAME "@集中法"
*MEAS_COND_UNSYMMETRIC_MODE "OFF"
*MEAS_COND_XG_CURRENT "30.0000000000"
*MEAS_COND_XG_VOLTAGE "40.0000000000"
*MEAS_COND_XG_WAVE_TYPE "Ka"
*MEAS_DATA_COUNT "5001.0000000000"
*MEAS_SCAN_AXIS_X "2θ/θ"
*MEAS_SCAN_AXIS_X_INTERNAL "TwoThetaTheta"
*MEAS_SCAN_END_TIME "07/15/21 15:00:52"
*MEAS_SCAN_MODE "CONTINUOUS"
*MEAS_SCAN_MONITOR "0"
*MEAS_SCAN_RESOLUTION_X "0.0002"
*MEAS_SCAN_SPEED "1.0"
*MEAS_SCAN_SPEED_UNIT "deg/min"
*MEAS_SCAN_START "20.0000000000"
*MEAS_SCAN_START_TIME "07/15/21 14:07:59"
*MEAS_SCAN_STEP "0.0100000000"
*MEAS_SCAN_STOP "70.0000000000"
*MEAS_SCAN_UNIT_X "deg"
*MEAS_SCAN_UNIT_Y "counts"
*RAS_HEADER_END
*RAS_INT_START
20.0000 1304.0000 1.0000
20.0100 1243.0000 1.0000
20.0200 1267.0000 1.0000
20.0300 1224.0000 1.0000
20.0400 1186.0000 1.0000
20.0500 1306.0000 1.0000
20.0600 1220.0000 1.0000
20.0700 1255.0000 1.0000
20.0800 1208.0000 1.0000
20.0900 1249.0000 1.0000
20.1000 1251.0000 1.0000
20.1100 1265.0000 1.0000
20.1200 1247.0000 1.0000
20.1300 1308.0000 1.0000
20.1400 1238.0000 1.0000
20.1500 1299.0000 1.0000
20.1600 1233.0000 1.0000
20.1700 1271.0000 1.0000
20.1800 1254.0000 1.0000
20.1900 1232.0000 1.0000
20.2000 1238.0000 1.0000
20.2100 1240.0000 1.0000
20.2200 1222.0000 1.0000
20.2300 1210.0000 1.0000
20.2400 1293.0000 1.0000
20.2500 1227.0000 1.0000
20.2600 1232.0000 1.0000
20.2700 1208.0000 1.0000
20.2800 1245.0000 1.0000
20.2900 1247.0000 1.0000
20.3000 1295.0000 1.0000
20.3100 1237.0000 1.0000
20.3200 1256.0000 1.0000
20.3300 1205.0000 1.0000
20.3400 1237.0000 1.0000
20.3500 1230.0000 1.0000
20.3600 1225.0000 1.0000
20.3700 1219.0000 1.0000
20.3800 1216.0000 1.0000
20.3900 1244.0000 1.0000
20.4000 1244.0000 1.0000
20.4100 1206.0000 1.0000
20.4200 1283.0000 1.0000
20.4300 1257.0000 1.0000
20.4400 1278.0000 1.0000
20.4500 1302.0000 1.0000
20.4600 1233.0000 1.0000
20.4700 1246.0000 1.0000
20.4800 1250.0000 1.0000
20.4900 1264.0000 1.0000
20.5000 1271.0000 1.0000
20.5100 1211.0000 1.0000
20.5200 1237.0000 1.0000
20.5300 1251.0000 1.0000
20.5400 1250.0000 1.0000
20.5500 1250.0000 1.0000
20.5600 1228.0000 1.0000
20.5700 1276.0000 1.0000
20.5800 1243.0000 1.0000
20.5900 1186.0000 1.0000
20.6000 1241.0000 1.0000
20.6100 1267.0000 1.0000
20.6200 1261.0000 1.0000
20.6300 1273.0000 1.0000
20.6400 1223.0000 1.0000
20.6500 1254.0000 1.0000
20.6600 1225.0000 1.0000
20.6700 1271.0000 1.0000
20.6800 1174.0000 1.0000
20.6900 1228.0000 1.0000
20.7000 1240.0000 1.0000
20.7100 1210.0000 1.0000
20.7200 1242.0000 1.0000
20.7300 1222.0000 1.0000
20.7400 1217.0000 1.0000
20.7500 1208.0000 1.0000
20.7600 1298.0000 1.0000
20.7700 1261.0000 1.0000
20.7800 1255.0000 1.0000
20.7900 1251.0000 1.0000
20.8000 1291.0000 1.0000
20.8100 1239.0000 1.0000
20.8200 1258.0000 1.0000
20.8300 1287.0000 1.0000
20.8400 1252.0000 1.0000
20.8500 1243.0000 1.0000
20.8600 1310.0000 1.0000
20.8700 1277.0000 1.0000
20.8800 1272.0000 1.0000
20.8900 1225.0000 1.0000
20.9000 1278.0000 1.0000
20.9100 1271.0000 1.0000
20.9200 1360.0000 1.0000
20.9300 1250.0000 1.0000
20.9400 1258.0000 1.0000
20.9500 1269.0000 1.0000
20.9600 1296.0000 1.0000
20.9700 1263.0000 1.0000
20.9800 1259.0000 1.0000
20.9900 1273.0000 1.0000
21.0000 1251.0000 1.0000
21.0100 1277.0000 1.0000
21.0200 1229.0000 1.0000
21.0300 1242.0000 1.0000
21.0400 1212.0000 1.0000
21.0500 1319.0000 1.0000
21.0600 1264.0000 1.0000
21.0700 1247.0000 1.0000
21.0800 1265.0000 1.0000
21.0900 1231.0000 1.0000
21.1000 1263.0000 1.0000
21.1100 1244.0000 1.0000
21.1200 1186.0000 1.0000
21.1300 1221.0000 1.0000
21.1400 1258.0000 1.0000
21.1500 1225.0000 1.0000
21.1600 1307.0000 1.0000
21.1700 1293.0000 1.0000
21.1800 1265.0000 1.0000
21.1900 1206.0000 1.0000
21.2000 1251.0000 1.0000
21.2100 1276.0000 1.0000
21.2200 1283.0000 1.0000
21.2300 1280.0000 1.0000
21.2400 1285.0000 1.0000
21.2500 1235.0000 1.0000
21.2600 1282.0000 1.0000
21.2700 1291.0000 1.0000
21.2800 1262.0000 1.0000
21.2900 1292.0000 1.0000
21.3000 1275.0000 1.0000
21.3100 1252.0000 1.0000
21.3200 1286.0000 1.0000
21.3300 1267.0000 1.0000
21.3400 1275.0000 1.0000
21.3500 1246.0000 1.0000
21.3600 1274.0000 1.0000
21.3700 1287.0000 1.0000
21.3800 1221.0000 1.0000
21.3900 1278.0000 1.0000
21.4000 1203.0000 1.0000
21.4100 1248.0000 1.0000
21.4200 1272.0000 1.0000
21.4300 1333.0000 1.0000
21.4400 1310.0000 1.0000
21.4500 1253.0000 1.0000
21.4600 1291.0000 1.0000
21.4700 1245.0000 1.0000
21.4800 1187.0000 1.0000
21.4900 1309.0000 1.0000
21.5000 1262.0000 1.0000
21.5100 1258.0000 1.0000
21.5200 1295.0000 1.0000
21.5300 1255.0000 1.0000
21.5400 1243.0000 1.0000
21.5500 1309.0000 1.0000
21.5600 1330.0000 1.0000
21.5700 1307.0000 1.0000
21.5800 1306.0000 1.0000
21.5900 1288.0000 1.0000
21.6000 1302.0000 1.0000
21.6100 1255.0000 1.0000
21.6200 1326.0000 1.0000
21.6300 1357.0000 1.0000
21.6400 1339.0000 1.0000
21.6500 1210.0000 1.0000
21.6600 1250.0000 1.0000
21.6700 1305.0000 1.0000
21.6800 1295.0000 1.0000
21.6900 1329.0000 1.0000
21.7000 1351.0000 1.0000
21.7100 1211.0000 1.0000
21.7200 1284.0000 1.0000
21.7300 1262.0000 1.0000
21.7400 1322.0000 1.0000
21.7500 1311.0000 1.0000
21.7600 1284.0000 1.0000
21.7700 1275.0000 1.0000
21.7800 1339.0000 1.0000
21.7900 1252.0000 1.0000
21.8000 1302.0000 1.0000
21.8100 1323.0000 1.0000
21.8200 1272.0000 1.0000
21.8300 1222.0000 1.0000
21.8400 1324.0000 1.0000
21.8500 1305.0000 1.0000
21.8600 1272.0000 1.0000
21.8700 1368.0000 1.0000
21.8800 1329.0000 1.0000
21.8900 1318.0000 1.0000
21.9000 1218.0000 1.0000
21.9100 1284.0000 1.0000
21.9200 1278.0000 1.0000
21.9300 1284.0000 1.0000
21.9400 1265.0000 1.0000
21.9500 1247.0000 1.0000
21.9600 1299.0000 1.0000
21.9700 1245.0000 1.0000
21.9800 1227.0000 1.0000
21.9900 1288.0000 1.0000
22.0000 1253.0000 1.0000
22.0100 1259.0000 1.0000
22.0200 1325.0000 1.0000
22.0300 1284.0000 1.0000
22.0400 1288.0000 1.0000
22.0500 1213.0000 1.0000
22.0600 1291.0000 1.0000
22.0700 1305.0000 1.0000
22.0800 1295.0000 1.0000
22.0900 1307.0000 1.0000
22.1000 1274.0000 1.0000
22.1100 1291.0000 1.0000
22.1200 1242.0000 1.0000
22.1300 1247.0000 1.0000
22.1400 1252.0000 1.0000
22.1500 1214.0000 1.0000
22.1600 1268.0000 1.0000
22.1700 1271.0000 1.0000
22.1800 1262.0000 1.0000
22.1900 1335.0000 1.0000
22.2000 1325.0000 1.0000
22.2100 1240.0000 1.0000
22.2200 1297.0000 1.0000
22.2300 1312.0000 1.0000
22.2400 1287.0000 1.0000
22.2500 1266.0000 1.0000
22.2600 1304.0000 1.0000
22.2700 1305.0000 1.0000
22.2800 1312.0000 1.0000
22.2900 1315.0000 1.0000
22.3000 1283.0000 1.0000
22.3100 1333.0000 1.0000
22.3200 1282.0000 1.0000
22.3300 1346.0000 1.0000
22.3400 1297.0000 1.0000
22.3500 1311.0000 1.0000
22.3600 1267.0000 1.0000
22.3700 1251.0000 1.0000
22.3800 1282.0000 1.0000
22.3900 1308.0000 1.0000
22.4000 1294.0000 1.0000
22.4100 1261.0000 1.0000
22.4200 1325.0000 1.0000
22.4300 1316.0000 1.0000
22.4400 1326.0000 1.0000
22.4500 1350.0000 1.0000
22.4600 1305.0000 1.0000
22.4700 1219.0000 1.0000
22.4800 1298.0000 1.0000
22.4900 1275.0000 1.0000
22.5000 1298.0000 1.0000
22.5100 1292.0000 1.0000
22.5200 1349.0000 1.0000
22.5300 1292.0000 1.0000
22.5400 1314.0000 1.0000
22.5500 1334.0000 1.0000
22.5600 1332.0000 1.0000
22.5700 1287.0000 1.0000
22.5800 1320.0000 1.0000
22.5900 1291.0000 1.0000
22.6000 1334.0000 1.0000
22.6100 1266.0000 1.0000
22.6200 1253.0000 1.0000
22.6300 1287.0000 1.0000
22.6400 1323.0000 1.0000
22.6500 1304.0000 1.0000
22.6600 1305.0000 1.0000
22.6700 1283.0000 1.0000
22.6800 1324.0000 1.0000
22.6900 1291.0000 1.0000
22.7000 1305.0000 1.0000
22.7100 1296.0000 1.0000
22.7200 1272.0000 1.0000
22.7300 1352.0000 1.0000
22.7400 1280.0000 1.0000
22.7500 1295.0000 1.0000
22.7600 1292.0000 1.0000
22.7700 1273.0000 1.0000
22.7800 1285.0000 1.0000
22.7900 1299.0000 1.0000
22.8000 1322.0000 1.0000
22.8100 1335.0000 1.0000
22.8200 1387.0000 1.0000
22.8300 1324.0000 1.0000
22.8400 1337.0000 1.0000
22.8500 1274.0000 1.0000
22.8600 1348.0000 1.0000
22.8700 1338.0000 1.0000
22.8800 1292.0000 1.0000
22.8900 1357.0000 1.0000
22.9000 1305.0000 1.0000
22.9100 1342.0000 1.0000
22.9200 1323.0000 1.0000
22.9300 1274.0000 1.0000
22.9400 1349.0000 1.0000
22.9500 1285.0000 1.0000
22.9600 1308.0000 1.0000
22.9700 1340.0000 1.0000
22.9800 1330.0000 1.0000
22.9900 1340.0000 1.0000
23.0000 1352.0000 1.0000
23.0100 1331.0000 1.0000
23.0200 1288.0000 1.0000
23.0300 1341.0000 1.0000
23.0400 1336.0000 1.0000
23.0500 1313.0000 1.0000
23.0600 1302.0000 1.0000
23.0700 1327.0000 1.0000
23.0800 1364.0000 1.0000
23.0900 1326.0000 1.0000
23.1000 1300.0000 1.0000
23.1100 1307.0000 1.0000
23.1200 1290.0000 1.0000
23.1300 1336.0000 1.0000
23.1400 1378.0000 1.0000
23.1500 1372.0000 1.0000
23.1600 1305.0000 1.0000
23.1700 1342.0000 1.0000
23.1800 1309.0000 1.0000
23.1900 1328.0000 1.0000
23.2000 1297.0000 1.0000
23.2100 1357.0000 1.0000
23.2200 1340.0000 1.0000
23.2300 1282.0000 1.0000
23.2400 1352.0000 1.0000
23.2500 1335.0000 1.0000
23.2600 1351.0000 1.0000
23.2700 1326.0000 1.0000
23.2800 1318.0000 1.0000
23.2900 1296.0000 1.0000
23.3000 1263.0000 1.0000
23.3100 1323.0000 1.0000
23.3200 1356.0000 1.0000
23.3300 1316.0000 1.0000
23.3400 1310.0000 1.0000
23.3500 1311.0000 1.0000
23.3600 1315.0000 1.0000
23.3700 1349.0000 1.0000
23.3800 1287.0000 1.0000
23.3900 1341.0000 1.0000
23.4000 1332.0000 1.0000
23.4100 1356.0000 1.0000
23.4200 1339.0000 1.0000
23.4300 1313.0000 1.0000
23.4400 1304.0000 1.0000
23.4500 1321.0000 1.0000
23.4600 1330.0000 1.0000
23.4700 1337.0000 1.0000
23.4800 1357.0000 1.0000
23.4900 1400.0000 1.0000
23.5000 1353.0000 1.0000
23.5100 1354.0000 1.0000
23.5200 1361.0000 1.0000
23.5300 1360.0000 1.0000
23.5400 1385.0000 1.0000
23.5500 1388.0000 1.0000
23.5600 1330.0000 1.0000
23.5700 1322.0000 1.0000
23.5800 1335.0000 1.0000
23.5900 1363.0000 1.0000
23.6000 1349.0000 1.0000
23.6100 1312.0000 1.0000
23.6200 1325.0000 1.0000
23.6300 1299.0000 1.0000
23.6400 1326.0000 1.0000
23.6500 1330.0000 1.0000
23.6600 1326.0000 1.0000
23.6700 1341.0000 1.0000
23.6800 1328.0000 1.0000
23.6900 1309.0000 1.0000
23.7000 1416.0000 1.0000
23.7100 1359.0000 1.0000
23.7200 1291.0000 1.0000
23.7300 1313.0000 1.0000
23.7400 1306.0000 1.0000
23.7500 1324.0000 1.0000
23.7600 1352.0000 1.0000
23.7700 1304.0000 1.0000
23.7800 1355.0000 1.0000
23.7900 1343.0000 1.0000
23.8000 1367.0000 1.0000
23.8100 1336.0000 1.0000
23.8200 1375.0000 1.0000
23.8300 1320.0000 1.0000
23.8400 1306.0000 1.0000
23.8500 1406.0000 1.0000
23.8600 1373.0000 1.0000
23.8700 1320.0000 1.0000
23.8800 1313.0000 1.0000
23.8900 1301.0000 1.0000
23.9000 1334.0000 1.0000
23.9100 1378.0000 1.0000
23.9200 1358.0000 1.0000
23.9300 1368.0000 1.0000
23.9400 1333.0000 1.0000
23.9500 1327.0000 1.0000
23.9600 1340.0000 1.0000
23.9700 1352.0000 1.0000
23.9800 1340.0000 1.0000
23.9900 1358.0000 1.0000
24.0000 1317.0000 1.0000
24.0100 1352.0000 1.0000
24.0200 1389.0000 1.0000
24.0300 1380.0000 1.0000
24.0400 1332.0000 1.0000
24.0500 1361.0000 1.0000
24.0600 1368.0000 1.0000
24.0700 1315.0000 1.0000
24.0800 1365.0000 1.0000
24.0900 1387.0000 1.0000
24.1000 1368.0000 1.0000
24.1100 1329.0000 1.0000
24.1200 1372.0000 1.0000
24.1300 1350.0000 1.0000
24.1400 1328.0000 1.0000
24.1500 1341.0000 1.0000
24.1600 1405.0000 1.0000
24.1700 1390.0000 1.0000
24.1800 1360.0000 1.0000
24.1900 1395.0000 1.0000
24.2000 1362.0000 1.0000
24.2100 1356.0000 1.0000
24.2200 1397.0000 1.0000
24.2300 1386.0000 1.0000
24.2400 1355.0000 1.0000
24.2500 1336.0000 1.0000
24.2600 1343.0000 1.0000
24.2700 1356.0000 1.0000
24.2800 1405.0000 1.0000
24.2900 1395.0000 1.0000
24.3000 1318.0000 1.0000
24.3100 1357.0000 1.0000
24.3200 1352.0000 1.0000
24.3300 1381.0000 1.0000
24.3400 1395.0000 1.0000
24.3500 1350.0000 1.0000
24.3600 1372.0000 1.0000
24.3700 1348.0000 1.0000
24.3800 1366.0000 1.0000
24.3900 1334.0000 1.0000
24.4000 1360.0000 1.0000
24.4100 1369.0000 1.0000
24.4200 1332.0000 1.0000
24.4300 1312.0000 1.0000
24.4400 1405.0000 1.0000
24.4500 1382.0000 1.0000
24.4600 1391.0000 1.0000
24.4700 1320.0000 1.0000
24.4800 1353.0000 1.0000
24.4900 1378.0000 1.0000
24.5000 1344.0000 1.0000
24.5100 1376.0000 1.0000
24.5200 1410.0000 1.0000
24.5300 1399.0000 1.0000
24.5400 1410.0000 1.0000
24.5500 1363.0000 1.0000
24.5600 1455.0000 1.0000
24.5700 1369.0000 1.0000
24.5800 1375.0000 1.0000
24.5900 1352.0000 1.0000
24.6000 1419.0000 1.0000
24.6100 1375.0000 1.0000
24.6200 1434.0000 1.0000
24.6300 1425.0000 1.0000
24.6400 1402.0000 1.0000
24.6500 1447.0000 1.0000
24.6600 1427.0000 1.0000
24.6700 1427.0000 1.0000
24.6800 1395.0000 1.0000
24.6900 1453.0000 1.0000
24.7000 1411.0000 1.0000
24.7100 1467.0000 1.0000
24.7200 1423.0000 1.0000
24.7300 1397.0000 1.0000
24.7400 1389.0000 1.0000
24.7500 1342.0000 1.0000
24.7600 1403.0000 1.0000
24.7700 1477.0000 1.0000
24.7800 1392.0000 1.0000
24.7900 1433.0000 1.0000
24.8000 1439.0000 1.0000
24.8100 1451.0000 1.0000
24.8200 1453.0000 1.0000
24.8300 1402.0000 1.0000
24.8400 1425.0000 1.0000
24.8500 1439.0000 1.0000
24.8600 1366.0000 1.0000
24.8700 1468.0000 1.0000
24.8800 1456.0000 1.0000
24.8900 1433.0000 1.0000
24.9000 1384.0000 1.0000
24.9100 1423.0000 1.0000
24.9200 1457.0000 1.0000
24.9300 1460.0000 1.0000
24.9400 1398.0000 1.0000
24.9500 1406.0000 1.0000
24.9600 1461.0000 1.0000
24.9700 1512.0000 1.0000
24.9800 1445.0000 1.0000
24.9900 1486.0000 1.0000
25.0000 1470.0000 1.0000
25.0100 1366.0000 1.0000
25.0200 1375.0000 1.0000
25.0300 1379.0000 1.0000
25.0400 1459.0000 1.0000
25.0500 1448.0000 1.0000
25.0600 1437.0000 1.0000
25.0700 1442.0000 1.0000
25.0800 1506.0000 1.0000
25.0900 1470.0000 1.0000
25.1000 1532.0000 1.0000
25.1100 1455.0000 1.0000
25.1200 1461.0000 1.0000
25.1300 1493.0000 1.0000
25.1400 1509.0000 1.0000
25.1500 1426.0000 1.0000
25.1600 1429.0000 1.0000
25.1700 1361.0000 1.0000
25.1800 1456.0000 1.0000
25.1900 1399.0000 1.0000
25.2000 1449.0000 1.0000
25.2100 1406.0000 1.0000
25.2200 1478.0000 1.0000
25.2300 1418.0000 1.0000
25.2400 1398.0000 1.0000
25.2500 1429.0000 1.0000
25.2600 1444.0000 1.0000
25.2700 1428.0000 1.0000
25.2800 1403.0000 1.0000
25.2900 1481.0000 1.0000
25.3000 1397.0000 1.0000
25.3100 1421.0000 1.0000
25.3200 1411.0000 1.0000
25.3300 1414.0000 1.0000
25.3400 1399.0000 1.0000
25.3500 1411.0000 1.0000
25.3600 1442.0000 1.0000
25.3700 1473.0000 1.0000
25.3800 1455.0000 1.0000
25.3900 1408.0000 1.0000
25.4000 1394.0000 1.0000
25.4100 1366.0000 1.0000
25.4200 1457.0000 1.0000
25.4300 1468.0000 1.0000
25.4400 1489.0000 1.0000
25.4500 1459.0000 1.0000
25.4600 1405.0000 1.0000
25.4700 1475.0000 1.0000
25.4800 1378.0000 1.0000
25.4900 1423.0000 1.0000
25.5000 1379.0000 1.0000
25.5100 1415.0000 1.0000
25.5200 1439.0000 1.0000
25.5300 1367.0000 1.0000
25.5400 1449.0000 1.0000
25.5500 1401.0000 1.0000
25.5600 1371.0000 1.0000
25.5700 1439.0000 1.0000
25.5800 1424.0000 1.0000
25.5900 1437.0000 1.0000
25.6000 1375.0000 1.0000
25.6100 1391.0000 1.0000
25.6200 1438.0000 1.0000
25.6300 1410.0000 1.0000
25.6400 1402.0000 1.0000
25.6500 1423.0000 1.0000
25.6600 1418.0000 1.0000
25.6700 1446.0000 1.0000
25.6800 1399.0000 1.0000
25.6900 1443.0000 1.0000
25.7000 1449.0000 1.0000
25.7100 1356.0000 1.0000
25.7200 1401.0000 1.0000
25.7300 1438.0000 1.0000
25.7400 1449.0000 1.0000
25.7500 1468.0000 1.0000
25.7600 1486.0000 1.0000
25.7700 1424.0000 1.0000
25.7800 1436.0000 1.0000
25.7900 1429.0000 1.0000
25.8000 1392.0000 1.0000
25.8100 1383.0000 1.0000
25.8200 1409.0000 1.0000
25.8300 1380.0000 1.0000
25.8400 1391.0000 1.0000
25.8500 1421.0000 1.0000
25.8600 1423.0000 1.0000
25.8700 1395.0000 1.0000
25.8800 1405.0000 1.0000
25.8900 1425.0000 1.0000
25.9000 1472.0000 1.0000
25.9100 1467.0000 1.0000
25.9200 1407.0000 1.0000
25.9300 1456.0000 1.0000
25.9400 1430.0000 1.0000
25.9500 1412.0000 1.0000
25.9600 1424.0000 1.0000
25.9700 1453.0000 1.0000
25.9800 1363.0000 1.0000
25.9900 1449.0000 1.0000
26.0000 1397.0000 1.0000
26.0100 1403.0000 1.0000
26.0200 1424.0000 1.0000
26.0300 1390.0000 1.0000
26.0400 1475.0000 1.0000
26.0500 1424.0000 1.0000
26.0600 1424.0000 1.0000
26.0700 1447.0000 1.0000
26.0800 1340.0000 1.0000
26.0900 1380.0000 1.0000
26.1000 1394.0000 1.0000
26.1100 1368.0000 1.0000
26.1200 1386.0000 1.0000
26.1300 1397.0000 1.0000
26.1400 1486.0000 1.0000
26.1500 1405.0000 1.0000
26.1600 1446.0000 1.0000
26.1700 1457.0000 1.0000
26.1800 1450.0000 1.0000
26.1900 1386.0000 1.0000
26.2000 1415.0000 1.0000
26.2100 1471.0000 1.0000
26.2200 1387.0000 1.0000
26.2300 1425.0000 1.0000
26.2400 1490.0000 1.0000
26.2500 1446.0000 1.0000
26.2600 1519.0000 1.0000
26.2700 1519.0000 1.0000
26.2800 1506.0000 1.0000
26.2900 1517.0000 1.0000
26.3000 1452.0000 1.0000
26.3100 1424.0000 1.0000
26.3200 1437.0000 1.0000
26.3300 1433.0000 1.0000
26.3400 1469.0000 1.0000
26.3500 1458.0000 1.0000
26.3600 1463.0000 1.0000
26.3700 1493.0000 1.0000
26.3800 1449.0000 1.0000
26.3900 1506.0000 1.0000
26.4000 1464.0000 1.0000
26.4100 1491.0000 1.0000
26.4200 1498.0000 1.0000
26.4300 1469.0000 1.0000
26.4400 1501.0000 1.0000
26.4500 1483.0000 1.0000
26.4600 1507.0000 1.0000
26.4700 1530.0000 1.0000
26.4800 1535.0000 1.0000
26.4900 1494.0000 1.0000
26.5000 1529.0000 1.0000
26.5100 1520.0000 1.0000
26.5200 1516.0000 1.0000
26.5300 1502.0000 1.0000
26.5400 1515.0000 1.0000
26.5500 1479.0000 1.0000
26.5600 1508.0000 1.0000
26.5700 1509.0000 1.0000
26.5800 1570.0000 1.0000
26.5900 1522.0000 1.0000
26.6000 1512.0000 1.0000
26.6100 1483.0000 1.0000
26.6200 1538.0000 1.0000
26.6300 1564.0000 1.0000
26.6400 1591.0000 1.0000
26.6500 1535.0000 1.0000
26.6600 1583.0000 1.0000
26.6700 1623.0000 1.0000
26.6800 1558.0000 1.0000
26.6900 1623.0000 1.0000
26.7000 1611.0000 1.0000
26.7100 1599.0000 1.0000
26.7200 1557.0000 1.0000
26.7300 1557.0000 1.0000
26.7400 1600.0000 1.0000
26.7500 1585.0000 1.0000
26.7600 1697.0000 1.0000
26.7700 1595.0000 1.0000
26.7800 1632.0000 1.0000
26.7900 1666.0000 1.0000
26.8000 1618.0000 1.0000
26.8100 1636.0000 1.0000
26.8200 1718.0000 1.0000
26.8300 1751.0000 1.0000
26.8400 1722.0000 1.0000
26.8500 1714.0000 1.0000
26.8600 1715.0000 1.0000
26.8700 1803.0000 1.0000
26.8800 1806.0000 1.0000
26.8900 1717.0000 1.0000
26.9000 1786.0000 1.0000
26.9100 1859.0000 1.0000
26.9200 1823.0000 1.0000
26.9300 1846.0000 1.0000
26.9400 1895.0000 1.0000
26.9500 1969.0000 1.0000
26.9600 1988.0000 1.0000
26.9700 1976.0000 1.0000
26.9800 2037.0000 1.0000
26.9900 2000.0000 1.0000
27.0000 2093.0000 1.0000
27.0100 2191.0000 1.0000
27.0200 2164.0000 1.0000
27.0300 2232.0000 1.0000
27.0400 2377.0000 1.0000
27.0500 2396.0000 1.0000
27.0600 2474.0000 1.0000
27.0700 2593.0000 1.0000
27.0800 2644.0000 1.0000
27.0900 2749.0000 1.0000
27.1000 2827.0000 1.0000
27.1100 2935.0000 1.0000
27.1200 3130.0000 1.0000
27.1300 3338.0000 1.0000
27.1400 3499.0000 1.0000
27.1500 3633.0000 1.0000
27.1600 3717.0000 1.0000
27.1700 3957.0000 1.0000
27.1800 4290.0000 1.0000
27.1900 4542.0000 1.0000
27.2000 4820.0000 1.0000
27.2100 4980.0000 1.0000
27.2200 5349.0000 1.0000
27.2300 5664.0000 1.0000
27.2400 5881.0000 1.0000
27.2500 6060.0000 1.0000
27.2600 6228.0000 1.0000
27.2700 6372.0000 1.0000
27.2800 6380.0000 1.0000
27.2900 6343.0000 1.0000
27.3000 6278.0000 1.0000
27.3100 6183.0000 1.0000
27.3200 5965.0000 1.0000
27.3300 5624.0000 1.0000
27.3400 5479.0000 1.0000
27.3500 5247.0000 1.0000
27.3600 5082.0000 1.0000
27.3700 4700.0000 1.0000
27.3800 4501.0000 1.0000
27.3900 4293.0000 1.0000
27.4000 3927.0000 1.0000
27.4100 3785.0000 1.0000
27.4200 3525.0000 1.0000
27.4300 3385.0000 1.0000
27.4400 3240.0000 1.0000
27.4500 3065.0000 1.0000
27.4600 2946.0000 1.0000
27.4700 2868.0000 1.0000
27.4800 2764.0000 1.0000
27.4900 2615.0000 1.0000
27.5000 2590.0000 1.0000
27.5100 2467.0000 1.0000
27.5200 2437.0000 1.0000
27.5300 2314.0000 1.0000
27.5400 2290.0000 1.0000
27.5500 2221.0000 1.0000
27.5600 2124.0000 1.0000
27.5700 2068.0000 1.0000
27.5800 2080.0000 1.0000
27.5900 1999.0000 1.0000
27.6000 1975.0000 1.0000
27.6100 1910.0000 1.0000
27.6200 1832.0000 1.0000
27.6300 1831.0000 1.0000
27.6400 1890.0000 1.0000
27.6500 1835.0000 1.0000
27.6600 1813.0000 1.0000
27.6700 1866.0000 1.0000
27.6800 1830.0000 1.0000
27.6900 1779.0000 1.0000
27.7000 1806.0000 1.0000
27.7100 1774.0000 1.0000
27.7200 1783.0000 1.0000
27.7300 1722.0000 1.0000
27.7400 1675.0000 1.0000
27.7500 1698.0000 1.0000
27.7600 1653.0000 1.0000
27.7700 1707.0000 1.0000
27.7800 1627.0000 1.0000
27.7900 1682.0000 1.0000
27.8000 1601.0000 1.0000
27.8100 1573.0000 1.0000
27.8200 1595.0000 1.0000
27.8300 1647.0000 1.0000
27.8400 1615.0000 1.0000
27.8500 1615.0000 1.0000
27.8600 1567.0000 1.0000
27.8700 1598.0000 1.0000
27.8800 1535.0000 1.0000
27.8900 1642.0000 1.0000
27.9000 1594.0000 1.0000
27.9100 1614.0000 1.0000
27.9200 1586.0000 1.0000
27.9300 1551.0000 1.0000
27.9400 1571.0000 1.0000
27.9500 1613.0000 1.0000
27.9600 1587.0000 1.0000
27.9700 1558.0000 1.0000
27.9800 1476.0000 1.0000
27.9900 1560.0000 1.0000
28.0000 1542.0000 1.0000
28.0100 1475.0000 1.0000
28.0200 1469.0000 1.0000
28.0300 1535.0000 1.0000
28.0400 1529.0000 1.0000
28.0500 1570.0000 1.0000
28.0600 1516.0000 1.0000
28.0700 1435.0000 1.0000
28.0800 1489.0000 1.0000
28.0900 1495.0000 1.0000
28.1000 1466.0000 1.0000
28.1100 1558.0000 1.0000
28.1200 1500.0000 1.0000
28.1300 1548.0000 1.0000
28.1400 1476.0000 1.0000
28.1500 1463.0000 1.0000
28.1600 1444.0000 1.0000
28.1700 1451.0000 1.0000
28.1800 1432.0000 1.0000
28.1900 1450.0000 1.0000
28.2000 1474.0000 1.0000
28.2100 1500.0000 1.0000
28.2200 1438.0000 1.0000
28.2300 1474.0000 1.0000
28.2400 1461.0000 1.0000
28.2500 1427.0000 1.0000
28.2600 1427.0000 1.0000
28.2700 1487.0000 1.0000
28.2800 1453.0000 1.0000
28.2900 1465.0000 1.0000
28.3000 1463.0000 1.0000
28.3100 1527.0000 1.0000
28.3200 1438.0000 1.0000
28.3300 1426.0000 1.0000
28.3400 1435.0000 1.0000
28.3500 1427.0000 1.0000
28.3600 1449.0000 1.0000
28.3700 1426.0000 1.0000
28.3800 1444.0000 1.0000
28.3900 1443.0000 1.0000
28.4000 1467.0000 1.0000
28.4100 1455.0000 1.0000
28.4200 1518.0000 1.0000
28.4300 1441.0000 1.0000
28.4400 1392.0000 1.0000
28.4500 1434.0000 1.0000
28.4600 1402.0000 1.0000
28.4700 1455.0000 1.0000
28.4800 1441.0000 1.0000
28.4900 1432.0000 1.0000
28.5000 1352.0000 1.0000
28.5100 1460.0000 1.0000
28.5200 1460.0000 1.0000
28.5300 1432.0000 1.0000
28.5400 1434.0000 1.0000
28.5500 1360.0000 1.0000
28.5600 1441.0000 1.0000
28.5700 1508.0000 1.0000
28.5800 1483.0000 1.0000
28.5900 1431.0000 1.0000
28.6000 1443.0000 1.0000
28.6100 1403.0000 1.0000
28.6200 1388.0000 1.0000
28.6300 1449.0000 1.0000
28.6400 1402.0000 1.0000
28.6500 1430.0000 1.0000
28.6600 1406.0000 1.0000
28.6700 1413.0000 1.0000
28.6800 1487.0000 1.0000
28.6900 1414.0000 1.0000
28.7000 1441.0000 1.0000
28.7100 1401.0000 1.0000
28.7200 1443.0000 1.0000
28.7300 1421.0000 1.0000
28.7400 1436.0000 1.0000
28.7500 1420.0000 1.0000
28.7600 1425.0000 1.0000
28.7700 1355.0000 1.0000
28.7800 1328.0000 1.0000
28.7900 1413.0000 1.0000
28.8000 1378.0000 1.0000
28.8100 1421.0000 1.0000
28.8200 1447.0000 1.0000
28.8300 1417.0000 1.0000
28.8400 1442.0000 1.0000
28.8500 1427.0000 1.0000
28.8600 1421.0000 1.0000
28.8700 1408.0000 1.0000
28.8800 1492.0000 1.0000
28.8900 1400.0000 1.0000
28.9000 1348.0000 1.0000
28.9100 1346.0000 1.0000
28.9200 1354.0000 1.0000
28.9300 1338.0000 1.0000
28.9400 1362.0000 1.0000
28.9500 1414.0000 1.0000
28.9600 1390.0000 1.0000
28.9700 1458.0000 1.0000
28.9800 1427.0000 1.0000
28.9900 1368.0000 1.0000
29.0000 1398.0000 1.0000
29.0100 1407.0000 1.0000
29.0200 1420.0000 1.0000
29.0300 1403.0000 1.0000
29.0400 1416.0000 1.0000
29.0500 1414.0000 1.0000
29.0600 1419.0000 1.0000
29.0700 1366.0000 1.0000
29.0800 1344.0000 1.0000
29.0900 1311.0000 1.0000
29.1000 1424.0000 1.0000
29.1100 1359.0000 1.0000
29.1200 1409.0000 1.0000
29.1300 1374.0000 1.0000
29.1400 1419.0000 1.0000
29.1500 1346.0000 1.0000
29.1600 1350.0000 1.0000
29.1700 1439.0000 1.0000
29.1800 1363.0000 1.0000
29.1900 1392.0000 1.0000
29.2000 1387.0000 1.0000
29.2100 1358.0000 1.0000
29.2200 1434.0000 1.0000
29.2300 1382.0000 1.0000
29.2400 1359.0000 1.0000
29.2500 1380.0000 1.0000
29.2600 1402.0000 1.0000
29.2700 1404.0000 1.0000
29.2800 1375.0000 1.0000
29.2900 1364.0000 1.0000
29.3000 1375.0000 1.0000
29.3100 1413.0000 1.0000
29.3200 1432.0000 1.0000
29.3300 1414.0000 1.0000
29.3400 1307.0000 1.0000
29.3500 1357.0000 1.0000
29.3600 1359.0000 1.0000
29.3700 1351.0000 1.0000
29.3800 1316.0000 1.0000
29.3900 1359.0000 1.0000
29.4000 1396.0000 1.0000
29.4100 1401.0000 1.0000
29.4200 1314.0000 1.0000
29.4300 1350.0000 1.0000
29.4400 1382.0000 1.0000
29.4500 1392.0000 1.0000
29.4600 1329.0000 1.0000
29.4700 1362.0000 1.0000
29.4800 1374.0000 1.0000
29.4900 1337.0000 1.0000
29.5000 1353.0000 1.0000
29.5100 1350.0000 1.0000
29.5200 1385.0000 1.0000
29.5300 1371.0000 1.0000
29.5400 1349.0000 1.0000
29.5500 1375.0000 1.0000
29.5600 1371.0000 1.0000
29.5700 1316.0000 1.0000
29.5800 1391.0000 1.0000
29.5900 1405.0000 1.0000
29.6000 1344.0000 1.0000
29.6100 1398.0000 1.0000
29.6200 1381.0000 1.0000
29.6300 1317.0000 1.0000
29.6400 1332.0000 1.0000
29.6500 1394.0000 1.0000
29.6600 1378.0000 1.0000
29.6700 1405.0000 1.0000
29.6800 1392.0000 1.0000
29.6900 1344.0000 1.0000
29.7000 1405.0000 1.0000
29.7100 1349.0000 1.0000
29.7200 1339.0000 1.0000
29.7300 1345.0000 1.0000
29.7400 1340.0000 1.0000
29.7500 1365.0000 1.0000
29.7600 1277.0000 1.0000
29.7700 1361.0000 1.0000
29.7800 1398.0000 1.0000
29.7900 1345.0000 1.0000
29.8000 1355.0000 1.0000
29.8100 1287.0000 1.0000
29.8200 1339.0000 1.0000
29.8300 1335.0000 1.0000
29.8400 1296.0000 1.0000
29.8500 1404.0000 1.0000
29.8600 1365.0000 1.0000
29.8700 1346.0000 1.0000
29.8800 1342.0000 1.0000
29.8900 1294.0000 1.0000
29.9000 1279.0000 1.0000
29.9100 1389.0000 1.0000
29.9200 1489.0000 1.0000
29.9300 1383.0000 1.0000
29.9400 1392.0000 1.0000
29.9500 1397.0000 1.0000
29.9600 1333.0000 1.0000
29.9700 1308.0000 1.0000
29.9800 1358.0000 1.0000
29.9900 1344.0000 1.0000
30.0000 1300.0000 1.0000
30.0100 1386.0000 1.0000
30.0200 1290.0000 1.0000
30.0300 1352.0000 1.0000
30.0400 1391.0000 1.0000
30.0500 1311.0000 1.0000
30.0600 1361.0000 1.0000
30.0700 1387.0000 1.0000
30.0800 1351.0000 1.0000
30.0900 1358.0000 1.0000
30.1000 1372.0000 1.0000
30.1100 1301.0000 1.0000
30.1200 1309.0000 1.0000
30.1300 1363.0000 1.0000
30.1400 1290.0000 1.0000
30.1500 1335.0000 1.0000
30.1600 1369.0000 1.0000
30.1700 1396.0000 1.0000
30.1800 1305.0000 1.0000
30.1900 1308.0000 1.0000
30.2000 1321.0000 1.0000
30.2100 1327.0000 1.0000
30.2200 1325.0000 1.0000
30.2300 1324.0000 1.0000
30.2400 1362.0000 1.0000
30.2500 1351.0000 1.0000
30.2600 1337.0000 1.0000
30.2700 1312.0000 1.0000
30.2800 1342.0000 1.0000
30.2900 1339.0000 1.0000
30.3000 1333.0000 1.0000
30.3100 1297.0000 1.0000
30.3200 1338.0000 1.0000
30.3300 1302.0000 1.0000
30.3400 1237.0000 1.0000
30.3500 1358.0000 1.0000
30.3600 1340.0000 1.0000
30.3700 1314.0000 1.0000
30.3800 1347.0000 1.0000
30.3900 1362.0000 1.0000
30.4000 1318.0000 1.0000
30.4100 1339.0000 1.0000
30.4200 1314.0000 1.0000
30.4300 1322.0000 1.0000
30.4400 1344.0000 1.0000
30.4500 1306.0000 1.0000
30.4600 1265.0000 1.0000
30.4700 1349.0000 1.0000
30.4800 1324.0000 1.0000
30.4900 1263.0000 1.0000
30.5000 1297.0000 1.0000
30.5100 1258.0000 1.0000
30.5200 1301.0000 1.0000
30.5300 1292.0000 1.0000
30.5400 1295.0000 1.0000
30.5500 1287.0000 1.0000
30.5600 1262.0000 1.0000
30.5700 1364.0000 1.0000
30.5800 1315.0000 1.0000
30.5900 1353.0000 1.0000
30.6000 1353.0000 1.0000
30.6100 1319.0000 1.0000
30.6200 1320.0000 1.0000
30.6300 1321.0000 1.0000
30.6400 1320.0000 1.0000
30.6500 1330.0000 1.0000
30.6600 1322.0000 1.0000
30.6700 1334.0000 1.0000
30.6800 1375.0000 1.0000
30.6900 1347.0000 1.0000
30.7000 1342.0000 1.0000
30.7100 1353.0000 1.0000
30.7200 1337.0000 1.0000
30.7300 1294.0000 1.0000
30.7400 1339.0000 1.0000
30.7500 1274.0000 1.0000
30.7600 1265.0000 1.0000
30.7700 1297.0000 1.0000
30.7800 1281.0000 1.0000
30.7900 1292.0000 1.0000
30.8000 1282.0000 1.0000
30.8100 1341.0000 1.0000
30.8200 1295.0000 1.0000
30.8300 1351.0000 1.0000
30.8400 1341.0000 1.0000
30.8500 1271.0000 1.0000
30.8600 1315.0000 1.0000
30.8700 1315.0000 1.0000
30.8800 1273.0000 1.0000
30.8900 1285.0000 1.0000
30.9000 1286.0000 1.0000
30.9100 1306.0000 1.0000
30.9200 1333.0000 1.0000
30.9300 1303.0000 1.0000
30.9400 1295.0000 1.0000
30.9500 1314.0000 1.0000
30.9600 1312.0000 1.0000
30.9700 1318.0000 1.0000
30.9800 1297.0000 1.0000
30.9900 1287.0000 1.0000
31.0000 1329.0000 1.0000
31.0100 1332.0000 1.0000
31.0200 1319.0000 1.0000
31.0300 1298.0000 1.0000
31.0400 1291.0000 1.0000
31.0500 1313.0000 1.0000
31.0600 1323.0000 1.0000
31.0700 1335.0000 1.0000
31.0800 1299.0000 1.0000
31.0900 1339.0000 1.0000
31.1000 1347.0000 1.0000
31.1100 1257.0000 1.0000
31.1200 1345.0000 1.0000
31.1300 1338.0000 1.0000
31.1400 1286.0000 1.0000
31.1500 1283.0000 1.0000
31.1600 1284.0000 1.0000
31.1700 1310.0000 1.0000
31.1800 1292.0000 1.0000
31.1900 1292.0000 1.0000
31.2000 1264.0000 1.0000
31.2100 1324.0000 1.0000
31.2200 1313.0000 1.0000
31.2300 1225.0000 1.0000
31.2400 1279.0000 1.0000
31.2500 1300.0000 1.0000
31.2600 1299.0000 1.0000
31.2700 1243.0000 1.0000
31.2800 1309.0000 1.0000
31.2900 1340.0000 1.0000
31.3000 1299.0000 1.0000
31.3100 1265.0000 1.0000
31.3200 1306.0000 1.0000
31.3300 1287.0000 1.0000
31.3400 1294.0000 1.0000
31.3500 1256.0000 1.0000
31.3600 1297.0000 1.0000
31.3700 1229.0000 1.0000
31.3800 1281.0000 1.0000
31.3900 1342.0000 1.0000
31.4000 1269.0000 1.0000
31.4100 1269.0000 1.0000
31.4200 1289.0000 1.0000
31.4300 1253.0000 1.0000
31.4400 1312.0000 1.0000
31.4500 1276.0000 1.0000
31.4600 1267.0000 1.0000
31.4700 1245.0000 1.0000
31.4800 1315.0000 1.0000
31.4900 1311.0000 1.0000
31.5000 1216.0000 1.0000
31.5100 1237.0000 1.0000
31.5200 1272.0000 1.0000
31.5300 1256.0000 1.0000
31.5400 1256.0000 1.0000
31.5500 1266.0000 1.0000
31.5600 1259.0000 1.0000
31.5700 1211.0000 1.0000
31.5800 1222.0000 1.0000
31.5900 1238.0000 1.0000
31.6000 1279.0000 1.0000
31.6100 1310.0000 1.0000
31.6200 1243.0000 1.0000
31.6300 1290.0000 1.0000
31.6400 1274.0000 1.0000
31.6500 1294.0000 1.0000
31.6600 1291.0000 1.0000
31.6700 1256.0000 1.0000
31.6800 1227.0000 1.0000
31.6900 1227.0000 1.0000
31.7000 1243.0000 1.0000
31.7100 1297.0000 1.0000
31.7200 1263.0000 1.0000
31.7300 1269.0000 1.0000
31.7400 1226.0000 1.0000
31.7500 1251.0000 1.0000
31.7600 1266.0000 1.0000
31.7700 1266.0000 1.0000
31.7800 1288.0000 1.0000
31.7900 1323.0000 1.0000
31.8000 1261.0000 1.0000
31.8100 1272.0000 1.0000
31.8200 1282.0000 1.0000
31.8300 1329.0000 1.0000
31.8400 1290.0000 1.0000
31.8500 1284.0000 1.0000
31.8600 1222.0000 1.0000
31.8700 1341.0000 1.0000
31.8800 1261.0000 1.0000
31.8900 1319.0000 1.0000
31.9000 1288.0000 1.0000
31.9100 1323.0000 1.0000
31.9200 1332.0000 1.0000
31.9300 1267.0000 1.0000
31.9400 1352.0000 1.0000
31.9500 1304.0000 1.0000
31.9600 1268.0000 1.0000
31.9700 1280.0000 1.0000
31.9800 1298.0000 1.0000
31.9900 1333.0000 1.0000
32.0000 1314.0000 1.0000
32.0100 1320.0000 1.0000
32.0200 1336.0000 1.0000
32.0300 1263.0000 1.0000
32.0400 1253.0000 1.0000
32.0500 1234.0000 1.0000
32.0600 1277.0000 1.0000
32.0700 1254.0000 1.0000
32.0800 1237.0000 1.0000
32.0900 1291.0000 1.0000
32.1000 1332.0000 1.0000
32.1100 1222.0000 1.0000
32.1200 1243.0000 1.0000
32.1300 1281.0000 1.0000
32.1400 1288.0000 1.0000
32.1500 1282.0000 1.0000
32.1600 1255.0000 1.0000
32.1700 1251.0000 1.0000
32.1800 1266.0000 1.0000
32.1900 1277.0000 1.0000
32.2000 1269.0000 1.0000
32.2100 1261.0000 1.0000
32.2200 1241.0000 1.0000
32.2300 1276.0000 1.0000
32.2400 1227.0000 1.0000
32.2500 1213.0000 1.0000
32.2600 1213.0000 1.0000
32.2700 1277.0000 1.0000
32.2800 1212.0000 1.0000
32.2900 1231.0000 1.0000
32.3000 1278.0000 1.0000
32.3100 1236.0000 1.0000
32.3200 1215.0000 1.0000
32.3300 1234.0000 1.0000
32.3400 1185.0000 1.0000
32.3500 1233.0000 1.0000
32.3600 1251.0000 1.0000
32.3700 1220.0000 1.0000
32.3800 1229.0000 1.0000
32.3900 1255.0000 1.0000
32.4000 1214.0000 1.0000
32.4100 1320.0000 1.0000
32.4200 1248.0000 1.0000
32.4300 1238.0000 1.0000
32.4400 1194.0000 1.0000
32.4500 1214.0000 1.0000
32.4600 1228.0000 1.0000
32.4700 1209.0000 1.0000
32.4800 1184.0000 1.0000
32.4900 1246.0000 1.0000
32.5000 1220.0000 1.0000
32.5100 1234.0000 1.0000
32.5200 1175.0000 1.0000
32.5300 1212.0000 1.0000
32.5400 1210.0000 1.0000
32.5500 1200.0000 1.0000
32.5600 1204.0000 1.0000
32.5700 1199.0000 1.0000
32.5800 1174.0000 1.0000
32.5900 1221.0000 1.0000
32.6000 1260.0000 1.0000
32.6100 1206.0000 1.0000
32.6200 1216.0000 1.0000
32.6300 1246.0000 1.0000
32.6400 1207.0000 1.0000
32.6500 1311.0000 1.0000
32.6600 1243.0000 1.0000
32.6700 1166.0000 1.0000
32.6800 1214.0000 1.0000
32.6900 1200.0000 1.0000
32.7000 1227.0000 1.0000
32.7100 1208.0000 1.0000
32.7200 1206.0000 1.0000
32.7300 1211.0000 1.0000
32.7400 1174.0000 1.0000
32.7500 1182.0000 1.0000
32.7600 1250.0000 1.0000
32.7700 1214.0000 1.0000
32.7800 1283.0000 1.0000
32.7900 1195.0000 1.0000
32.8000 1162.0000 1.0000
32.8100 1223.0000 1.0000
32.8200 1186.0000 1.0000
32.8300 1235.0000 1.0000
32.8400 1214.0000 1.0000
32.8500 1178.0000 1.0000
32.8600 1253.0000 1.0000
32.8700 1204.0000 1.0000
32.8800 1226.0000 1.0000
32.8900 1224.0000 1.0000
32.9000 1230.0000 1.0000
32.9100 1272.0000 1.0000
32.9200 1196.0000 1.0000
32.9300 1258.0000 1.0000
32.9400 1219.0000 1.0000
32.9500 1270.0000 1.0000
32.9600 1210.0000 1.0000
32.9700 1218.0000 1.0000
32.9800 1238.0000 1.0000
32.9900 1201.0000 1.0000
33.0000 1184.0000 1.0000
33.0100 1205.0000 1.0000
33.0200 1199.0000 1.0000
33.0300 1276.0000 1.0000
33.0400 1235.0000 1.0000
33.0500 1184.0000 1.0000
33.0600 1166.0000 1.0000
33.0700 1210.0000 1.0000
33.0800 1221.0000 1.0000
33.0900 1221.0000 1.0000
33.1000 1260.0000 1.0000
33.1100 1256.0000 1.0000
33.1200 1232.0000 1.0000
33.1300 1222.0000 1.0000
33.1400 1239.0000 1.0000
33.1500 1229.0000 1.0000
33.1600 1183.0000 1.0000
33.1700 1222.0000 1.0000
33.1800 1190.0000 1.0000
33.1900 1178.0000 1.0000
33.2000 1152.0000 1.0000
33.2100 1221.0000 1.0000
33.2200 1261.0000 1.0000
33.2300 1168.0000 1.0000
33.2400 1165.0000 1.0000
33.2500 1187.0000 1.0000
33.2600 1218.0000 1.0000
33.2700 1231.0000 1.0000
33.2800 1225.0000 1.0000
33.2900 1220.0000 1.0000
33.3000 1225.0000 1.0000
33.3100 1181.0000 1.0000
33.3200 1241.0000 1.0000
33.3300 1216.0000 1.0000
33.3400 1196.0000 1.0000
33.3500 1229.0000 1.0000
33.3600 1199.0000 1.0000
33.3700 1159.0000 1.0000
33.3800 1188.0000 1.0000
33.3900 1180.0000 1.0000
33.4000 1213.0000 1.0000
33.4100 1229.0000 1.0000
33.4200 1246.0000 1.0000
33.4300 1171.0000 1.0000
33.4400 1163.0000 1.0000
33.4500 1185.0000 1.0000
33.4600 1165.0000 1.0000
33.4700 1152.0000 1.0000
33.4800 1211.0000 1.0000
33.4900 1209.0000 1.0000
33.5000 1231.0000 1.0000
33.5100 1169.0000 1.0000
33.5200 1210.0000 1.0000
33.5300 1244.0000 1.0000
33.5400 1226.0000 1.0000
33.5500 1227.0000 1.0000
33.5600 1238.0000 1.0000
33.5700 1254.0000 1.0000
33.5800 1256.0000 1.0000
33.5900 1208.0000 1.0000
33.6000 1192.0000 1.0000
33.6100 1217.0000 1.0000
33.6200 1175.0000 1.0000
33.6300 1226.0000 1.0000
33.6400 1222.0000 1.0000
33.6500 1169.0000 1.0000
33.6600 1166.0000 1.0000
33.6700 1245.0000 1.0000
33.6800 1228.0000 1.0000
33.6900 1273.0000 1.0000
33.7000 1244.0000 1.0000
33.7100 1292.0000 1.0000
33.7200 1290.0000 1.0000
33.7300 1266.0000 1.0000
33.7400 1284.0000 1.0000
33.7500 1244.0000 1.0000
33.7600 1214.0000 1.0000
33.7700 1230.0000 1.0000
33.7800 1233.0000 1.0000
33.7900 1316.0000 1.0000
33.8000 1307.0000 1.0000
33.8100 1263.0000 1.0000
33.8200 1278.0000 1.0000
33.8300 1333.0000 1.0000
33.8400 1296.0000 1.0000
33.8500 1329.0000 1.0000
33.8600 1361.0000 1.0000
33.8700 1288.0000 1.0000
33.8800 1306.0000 1.0000
33.8900 1362.0000 1.0000
33.9000 1310.0000 1.0000
33.9100 1348.0000 1.0000
33.9200 1314.0000 1.0000
33.9300 1337.0000 1.0000
33.9400 1384.0000 1.0000
33.9500 1356.0000 1.0000
33.9600 1343.0000 1.0000
33.9700 1346.0000 1.0000
33.9800 1361.0000 1.0000
33.9900 1369.0000 1.0000
34.0000 1321.0000 1.0000
34.0100 1350.0000 1.0000
34.0200 1367.0000 1.0000
34.0300 1339.0000 1.0000
34.0400 1345.0000 1.0000
34.0500 1288.0000 1.0000
34.0600 1361.0000 1.0000
34.0700 1397.0000 1.0000
34.0800 1373.0000 1.0000
34.0900 1335.0000 1.0000
34.1000 1332.0000 1.0000
34.1100 1429.0000 1.0000
34.1200 1420.0000 1.0000
34.1300 1401.0000 1.0000
34.1400 1445.0000 1.0000
34.1500 1416.0000 1.0000
34.1600 1395.0000 1.0000
34.1700 1438.0000 1.0000
34.1800 1403.0000 1.0000
34.1900 1386.0000 1.0000
34.2000 1440.0000 1.0000
34.2100 1480.0000 1.0000
34.2200 1503.0000 1.0000
34.2300 1514.0000 1.0000
34.2400 1582.0000 1.0000
34.2500 1608.0000 1.0000
34.2600 1597.0000 1.0000
34.2700 1626.0000 1.0000
34.2800 1689.0000 1.0000
34.2900 1736.0000 1.0000
34.3000 1761.0000 1.0000
34.3100 1802.0000 1.0000
34.3200 1841.0000 1.0000
34.3300 1884.0000 1.0000
34.3400 1959.0000 1.0000
34.3500 2089.0000 1.0000
34.3600 2135.0000 1.0000
34.3700 2105.0000 1.0000
34.3800 2242.0000 1.0000
34.3900 2410.0000 1.0000
34.4000 2476.0000 1.0000
34.4100 2556.0000 1.0000
34.4200 2701.0000 1.0000
34.4300 2771.0000 1.0000
34.4400 2779.0000 1.0000
34.4500 2849.0000 1.0000
34.4600 2889.0000 1.0000
34.4700 2930.0000 1.0000
34.4800 2912.0000 1.0000
34.4900 2831.0000 1.0000
34.5000 2833.0000 1.0000
34.5100 2793.0000 1.0000
34.5200 2674.0000 1.0000
34.5300 2609.0000 1.0000
34.5400 2492.0000 1.0000
34.5500 2423.0000 1.0000
34.5600 2376.0000 1.0000
34.5700 2341.0000 1.0000
34.5800 2267.0000 1.0000
34.5900 2141.0000 1.0000
34.6000 2044.0000 1.0000
34.6100 1933.0000 1.0000
34.6200 1971.0000 1.0000
34.6300 1839.0000 1.0000
34.6400 1805.0000 1.0000
34.6500 1749.0000 1.0000
34.6600 1718.0000 1.0000
34.6700 1673.0000 1.0000
34.6800 1631.0000 1.0000
34.6900 1572.0000 1.0000
34.7000 1612.0000 1.0000
34.7100 1608.0000 1.0000
34.7200 1579.0000 1.0000
34.7300 1484.0000 1.0000
34.7400 1486.0000 1.0000
34.7500 1431.0000 1.0000
34.7600 1431.0000 1.0000
34.7700 1477.0000 1.0000
34.7800 1380.0000 1.0000
34.7900 1345.0000 1.0000
34.8000 1302.0000 1.0000
34.8100 1344.0000 1.0000
34.8200 1304.0000 1.0000
34.8300 1349.0000 1.0000
34.8400 1328.0000 1.0000
34.8500 1278.0000 1.0000
34.8600 1229.0000 1.0000
34.8700 1281.0000 1.0000
34.8800 1280.0000 1.0000
34.8900 1265.0000 1.0000
34.9000 1211.0000 1.0000
34.9100 1186.0000 1.0000
34.9200 1140.0000 1.0000
34.9300 1218.0000 1.0000
34.9400 1227.0000 1.0000
34.9500 1205.0000 1.0000
34.9600 1265.0000 1.0000
34.9700 1175.0000 1.0000
34.9800 1142.0000 1.0000
34.9900 1156.0000 1.0000
35.0000 1195.0000 1.0000
35.0100 1190.0000 1.0000
35.0200 1173.0000 1.0000
35.0300 1214.0000 1.0000
35.0400 1127.0000 1.0000
35.0500 1162.0000 1.0000
35.0600 1172.0000 1.0000
35.0700 1142.0000 1.0000
35.0800 1133.0000 1.0000
35.0900 1136.0000 1.0000
35.1000 1148.0000 1.0000
35.1100 1167.0000 1.0000
35.1200 1166.0000 1.0000
35.1300 1103.0000 1.0000
35.1400 1134.0000 1.0000
35.1500 1136.0000 1.0000
35.1600 1098.0000 1.0000
35.1700 1127.0000 1.0000
35.1800 1105.0000 1.0000
35.1900 1148.0000 1.0000
35.2000 1096.0000 1.0000
35.2100 1075.0000 1.0000
35.2200 1113.0000 1.0000
35.2300 1123.0000 1.0000
35.2400 1093.0000 1.0000
35.2500 1095.0000 1.0000
35.2600 1062.0000 1.0000
35.2700 1133.0000 1.0000
35.2800 1115.0000 1.0000
35.2900 1074.0000 1.0000
35.3000 1095.0000 1.0000
35.3100 1128.0000 1.0000
35.3200 1109.0000 1.0000
35.3300 1032.0000 1.0000
35.3400 1103.0000 1.0000
35.3500 1097.0000 1.0000
35.3600 1107.0000 1.0000
35.3700 1106.0000 1.0000
35.3800 1051.0000 1.0000
35.3900 1063.0000 1.0000
35.4000 1091.0000 1.0000
35.4100 1088.0000 1.0000
35.4200 1092.0000 1.0000
35.4300 1047.0000 1.0000
35.4400 1049.0000 1.0000
35.4500 983.0000 1.0000
35.4600 1045.0000 1.0000
35.4700 1033.0000 1.0000
35.4800 1119.0000 1.0000
35.4900 1045.0000 1.0000
35.5000 1027.0000 1.0000
35.5100 1057.0000 1.0000
35.5200 1056.0000 1.0000
35.5300 1045.0000 1.0000
35.5400 1033.0000 1.0000
35.5500 1067.0000 1.0000
35.5600 1022.0000 1.0000
35.5700 1056.0000 1.0000
35.5800 1058.0000 1.0000
35.5900 1030.0000 1.0000
35.6000 986.0000 1.0000
35.6100 1007.0000 1.0000
35.6200 1035.0000 1.0000
35.6300 1041.0000 1.0000
35.6400 1022.0000 1.0000
35.6500 1072.0000 1.0000
35.6600 1023.0000 1.0000
35.6700 1034.0000 1.0000
35.6800 998.0000 1.0000
35.6900 1051.0000 1.0000
35.7000 1062.0000 1.0000
35.7100 1013.0000 1.0000
35.7200 1023.0000 1.0000
35.7300 1014.0000 1.0000
35.7400 1043.0000 1.0000
35.7500 1029.0000 1.0000
35.7600 978.0000 1.0000
35.7700 1096.0000 1.0000
35.7800 1023.0000 1.0000
35.7900 983.0000 1.0000
35.8000 1048.0000 1.0000
35.8100 1006.0000 1.0000
35.8200 1019.0000 1.0000
35.8300 1023.0000 1.0000
35.8400 1008.0000 1.0000
35.8500 965.0000 1.0000
35.8600 1043.0000 1.0000
35.8700 1042.0000 1.0000
35.8800 1044.0000 1.0000
35.8900 1003.0000 1.0000
35.9000 1011.0000 1.0000
35.9100 1066.0000 1.0000
35.9200 1029.0000 1.0000
35.9300 1016.0000 1.0000
35.9400 1020.0000 1.0000
35.9500 993.0000 1.0000
35.9600 1030.0000 1.0000
35.9700 1023.0000 1.0000
35.9800 1082.0000 1.0000
35.9900 1061.0000 1.0000
36.0000 1034.0000 1.0000
36.0100 1021.0000 1.0000
36.0200 1051.0000 1.0000
36.0300 979.0000 1.0000
36.0400 1036.0000 1.0000
36.0500 1065.0000 1.0000
36.0600 1026.0000 1.0000
36.0700 1080.0000 1.0000
36.0800 1052.0000 1.0000
36.0900 1091.0000 1.0000
36.1000 1047.0000 1.0000
36.1100 1102.0000 1.0000
36.1200 1097.0000 1.0000
36.1300 1010.0000 1.0000
36.1400 1067.0000 1.0000
36.1500 1098.0000 1.0000
36.1600 1086.0000 1.0000
36.1700 1099.0000 1.0000
36.1800 1158.0000 1.0000
36.1900 1117.0000 1.0000
36.2000 1179.0000 1.0000
36.2100 1138.0000 1.0000
36.2200 1161.0000 1.0000
36.2300 1148.0000 1.0000
36.2400 1189.0000 1.0000
36.2500 1159.0000 1.0000
36.2600 1203.0000 1.0000
36.2700 1240.0000 1.0000
36.2800 1186.0000 1.0000
36.2900 1196.0000 1.0000
36.3000 1259.0000 1.0000
36.3100 1290.0000 1.0000
36.3200 1308.0000 1.0000
36.3300 1255.0000 1.0000
36.3400 1291.0000 1.0000
36.3500 1297.0000 1.0000
36.3600 1319.0000 1.0000
36.3700 1337.0000 1.0000
36.3800 1276.0000 1.0000
36.3900 1315.0000 1.0000
36.4000 1345.0000 1.0000
36.4100 1335.0000 1.0000
36.4200 1335.0000 1.0000
36.4300 1334.0000 1.0000
36.4400 1310.0000 1.0000
36.4500 1266.0000 1.0000
36.4600 1260.0000 1.0000
36.4700 1249.0000 1.0000
36.4800 1279.0000 1.0000
36.4900 1212.0000 1.0000
36.5000 1194.0000 1.0000
36.5100 1262.0000 1.0000
36.5200 1203.0000 1.0000
36.5300 1223.0000 1.0000
36.5400 1163.0000 1.0000
36.5500 1171.0000 1.0000
36.5600 1154.0000 1.0000
36.5700 1155.0000 1.0000
36.5800 1116.0000 1.0000
36.5900 1112.0000 1.0000
36.6000 1050.0000 1.0000
36.6100 1114.0000 1.0000
36.6200 1094.0000 1.0000
36.6300 1030.0000 1.0000
36.6400 1055.0000 1.0000
36.6500 1026.0000 1.0000
36.6600 1054.0000 1.0000
36.6700 1024.0000 1.0000
36.6800 1033.0000 1.0000
36.6900 1030.0000 1.0000
36.7000 1009.0000 1.0000
36.7100 981.0000 1.0000
36.7200 1008.0000 1.0000
36.7300 958.0000 1.0000
36.7400 1008.0000 1.0000
36.7500 975.0000 1.0000
36.7600 1014.0000 1.0000
36.7700 1028.0000 1.0000
36.7800 987.0000 1.0000
36.7900 1005.0000 1.0000
36.8000 955.0000 1.0000
36.8100 965.0000 1.0000
36.8200 1031.0000 1.0000
36.8300 997.0000 1.0000
36.8400 1005.0000 1.0000
36.8500 952.0000 1.0000
36.8600 964.0000 1.0000
36.8700 939.0000 1.0000
36.8800 977.0000 1.0000
36.8900 941.0000 1.0000
36.9000 938.0000 1.0000
36.9100 1017.0000 1.0000
36.9200 992.0000 1.0000
36.9300 954.0000 1.0000
36.9400 966.0000 1.0000
36.9500 954.0000 1.0000
36.9600 977.0000 1.0000
36.9700 959.0000 1.0000
36.9800 971.0000 1.0000
36.9900 985.0000 1.0000
37.0000 991.0000 1.0000
37.0100 964.0000 1.0000
37.0200 930.0000 1.0000
37.0300 964.0000 1.0000
37.0400 941.0000 1.0000
37.0500 914.0000 1.0000
37.0600 914.0000 1.0000
37.0700 980.0000 1.0000
37.0800 952.0000 1.0000
37.0900 947.0000 1.0000
37.1000 971.0000 1.0000
37.1100 962.0000 1.0000
37.1200 903.0000 1.0000
37.1300 895.0000 1.0000
37.1400 946.0000 1.0000
37.1500 988.0000 1.0000
37.1600 952.0000 1.0000
37.1700 936.0000 1.0000
37.1800 948.0000 1.0000
37.1900 982.0000 1.0000
37.2000 947.0000 1.0000
37.2100 945.0000 1.0000
37.2200 934.0000 1.0000
37.2300 946.0000 1.0000
37.2400 955.0000 1.0000
37.2500 924.0000 1.0000
37.2600 934.0000 1.0000
37.2700 989.0000 1.0000
37.2800 971.0000 1.0000
37.2900 924.0000 1.0000
37.3000 967.0000 1.0000
37.3100 931.0000 1.0000
37.3200 981.0000 1.0000
37.3300 932.0000 1.0000
37.3400 907.0000 1.0000
37.3500 936.0000 1.0000
37.3600 943.0000 1.0000
37.3700 913.0000 1.0000
37.3800 913.0000 1.0000
37.3900 970.0000 1.0000
37.4000 957.0000 1.0000
37.4100 1016.0000 1.0000
37.4200 1006.0000 1.0000
37.4300 947.0000 1.0000
37.4400 949.0000 1.0000
37.4500 950.0000 1.0000
37.4600 993.0000 1.0000
37.4700 978.0000 1.0000
37.4800 968.0000 1.0000
37.4900 953.0000 1.0000
37.5000 942.0000 1.0000
37.5100 938.0000 1.0000
37.5200 980.0000 1.0000
37.5300 917.0000 1.0000
37.5400 894.0000 1.0000
37.5500 932.0000 1.0000
37.5600 915.0000 1.0000
37.5700 944.0000 1.0000
37.5800 936.0000 1.0000
37.5900 995.0000 1.0000
37.6000 936.0000 1.0000
37.6100 925.0000 1.0000
37.6200 931.0000 1.0000
37.6300 981.0000 1.0000
37.6400 963.0000 1.0000
37.6500 950.0000 1.0000
37.6600 938.0000 1.0000
37.6700 935.0000 1.0000
37.6800 975.0000 1.0000
37.6900 973.0000 1.0000
37.7000 949.0000 1.0000
37.7100 970.0000 1.0000
37.7200 1050.0000 1.0000
37.7300 923.0000 1.0000
37.7400 921.0000 1.0000
37.7500 970.0000 1.0000
37.7600 998.0000 1.0000
37.7700 990.0000 1.0000
37.7800 954.0000 1.0000
37.7900 990.0000 1.0000
37.8000 985.0000 1.0000
37.8100 990.0000 1.0000
37.8200 976.0000 1.0000
37.8300 938.0000 1.0000
37.8400 986.0000 1.0000
37.8500 952.0000 1.0000
37.8600 971.0000 1.0000
37.8700 952.0000 1.0000
37.8800 999.0000 1.0000
37.8900 1008.0000 1.0000
37.9000 991.0000 1.0000
37.9100 979.0000 1.0000
37.9200 1024.0000 1.0000
37.9300 1100.0000 1.0000
37.9400 1068.0000 1.0000
37.9500 998.0000 1.0000
37.9600 1016.0000 1.0000
37.9700 1011.0000 1.0000
37.9800 1048.0000 1.0000
37.9900 1066.0000 1.0000
38.0000 1091.0000 1.0000
38.0100 1057.0000 1.0000
38.0200 1061.0000 1.0000
38.0300 1108.0000 1.0000
38.0400 1065.0000 1.0000
38.0500 1104.0000 1.0000
38.0600 1127.0000 1.0000
38.0700 1124.0000 1.0000
38.0800 1156.0000 1.0000
38.0900 1191.0000 1.0000
38.1000 1228.0000 1.0000
38.1100 1186.0000 1.0000
38.1200 1247.0000 1.0000
38.1300 1215.0000 1.0000
38.1400 1274.0000 1.0000
38.1500 1298.0000 1.0000
38.1600 1396.0000 1.0000
38.1700 1392.0000 1.0000
38.1800 1420.0000 1.0000
38.1900 1460.0000 1.0000
38.2000 1511.0000 1.0000
38.2100 1591.0000 1.0000
38.2200 1605.0000 1.0000
38.2300 1675.0000 1.0000
38.2400 1769.0000 1.0000
38.2500 1858.0000 1.0000
38.2600 1906.0000 1.0000
38.2700 2028.0000 1.0000
38.2800 2085.0000 1.0000
38.2900 2209.0000 1.0000
38.3000 2371.0000 1.0000
38.3100 2439.0000 1.0000
38.3200 2581.0000 1.0000
38.3300 2768.0000 1.0000
38.3400 2949.0000 1.0000
38.3500 3019.0000 1.0000
38.3600 3292.0000 1.0000
38.3700 3526.0000 1.0000
38.3800 3766.0000 1.0000
38.3900 4141.0000 1.0000
38.4000 4549.0000 1.0000
38.4100 4678.0000 1.0000
38.4200 5174.0000 1.0000
38.4300 5582.0000 1.0000
38.4400 5986.0000 1.0000
38.4500 6245.0000 1.0000
38.4600 6682.0000 1.0000
38.4700 6957.0000 1.0000
38.4800 7121.0000 1.0000
38.4900 7330.0000 1.0000
38.5000 7459.0000 1.0000
38.5100 7576.0000 1.0000
38.5200 7467.0000 1.0000
38.5300 7477.0000 1.0000
38.5400 7261.0000 1.0000
38.5500 7188.0000 1.0000
38.5600 6972.0000 1.0000
38.5700 6870.0000 1.0000
38.5800 6462.0000 1.0000
38.5900 6253.0000 1.0000
38.6000 6027.0000 1.0000
38.6100 5582.0000 1.0000
38.6200 5403.0000 1.0000
38.6300 5073.0000 1.0000
38.6400 4689.0000 1.0000
38.6500 4412.0000 1.0000
38.6600 4169.0000 1.0000
38.6700 3786.0000 1.0000
38.6800 3558.0000 1.0000
38.6900 3311.0000 1.0000
38.7000 3084.0000 1.0000
38.7100 2858.0000 1.0000
38.7200 2738.0000 1.0000
38.7300 2531.0000 1.0000
38.7400 2402.0000 1.0000
38.7500 2273.0000 1.0000
38.7600 2090.0000 1.0000
38.7700 2076.0000 1.0000
38.7800 1877.0000 1.0000
38.7900 1785.0000 1.0000
38.8000 1717.0000 1.0000
38.8100 1668.0000 1.0000
38.8200 1577.0000 1.0000
38.8300 1524.0000 1.0000
38.8400 1459.0000 1.0000
38.8500 1412.0000 1.0000
38.8600 1348.0000 1.0000
38.8700 1317.0000 1.0000
38.8800 1303.0000 1.0000
38.8900 1229.0000 1.0000
38.9000 1185.0000 1.0000
38.9100 1179.0000 1.0000
38.9200 1142.0000 1.0000
38.9300 1146.0000 1.0000
38.9400 1151.0000 1.0000
38.9500 1061.0000 1.0000
38.9600 1068.0000 1.0000
38.9700 1066.0000 1.0000
38.9800 1103.0000 1.0000
38.9900 1010.0000 1.0000
39.0000 965.0000 1.0000
39.0100 1013.0000 1.0000
39.0200 1019.0000 1.0000
39.0300 1002.0000 1.0000
39.0400 953.0000 1.0000
39.0500 981.0000 1.0000
39.0600 998.0000 1.0000
39.0700 941.0000 1.0000
39.0800 971.0000 1.0000
39.0900 937.0000 1.0000
39.1000 939.0000 1.0000
39.1100 955.0000 1.0000
39.1200 964.0000 1.0000
39.1300 944.0000 1.0000
39.1400 943.0000 1.0000
39.1500 964.0000 1.0000
39.1600 921.0000 1.0000
39.1700 920.0000 1.0000
39.1800 916.0000 1.0000
39.1900 946.0000 1.0000
39.2000 881.0000 1.0000
39.2100 853.0000 1.0000
39.2200 920.0000 1.0000
39.2300 915.0000 1.0000
39.2400 911.0000 1.0000
39.2500 900.0000 1.0000
39.2600 879.0000 1.0000
39.2700 870.0000 1.0000
39.2800 869.0000 1.0000
39.2900 887.0000 1.0000
39.3000 898.0000 1.0000
39.3100 861.0000 1.0000
39.3200 868.0000 1.0000
39.3300 882.0000 1.0000
39.3400 866.0000 1.0000
39.3500 867.0000 1.0000
39.3600 885.0000 1.0000
39.3700 913.0000 1.0000
39.3800 892.0000 1.0000
39.3900 926.0000 1.0000
39.4000 855.0000 1.0000
39.4100 924.0000 1.0000
39.4200 877.0000 1.0000
39.4300 871.0000 1.0000
39.4400 844.0000 1.0000
39.4500 878.0000 1.0000
39.4600 895.0000 1.0000
39.4700 879.0000 1.0000
39.4800 923.0000 1.0000
39.4900 915.0000 1.0000
39.5000 906.0000 1.0000
39.5100 898.0000 1.0000
39.5200 898.0000 1.0000
39.5300 880.0000 1.0000
39.5400 880.0000 1.0000
39.5500 870.0000 1.0000
39.5600 865.0000 1.0000
39.5700 928.0000 1.0000
39.5800 946.0000 1.0000
39.5900 945.0000 1.0000
39.6000 895.0000 1.0000
39.6100 895.0000 1.0000
39.6200 898.0000 1.0000
39.6300 848.0000 1.0000
39.6400 925.0000 1.0000
39.6500 890.0000 1.0000
39.6600 837.0000 1.0000
39.6700 824.0000 1.0000
39.6800 864.0000 1.0000
39.6900 832.0000 1.0000
39.7000 873.0000 1.0000
39.7100 891.0000 1.0000
39.7200 859.0000 1.0000
39.7300 832.0000 1.0000
39.7400 875.0000 1.0000
39.7500 815.0000 1.0000
39.7600 810.0000 1.0000
39.7700 832.0000 1.0000
39.7800 862.0000 1.0000
39.7900 845.0000 1.0000
39.8000 859.0000 1.0000
39.8100 830.0000 1.0000
39.8200 912.0000 1.0000
39.8300 849.0000 1.0000
39.8400 851.0000 1.0000
39.8500 792.0000 1.0000
39.8600 802.0000 1.0000
39.8700 803.0000 1.0000
39.8800 871.0000 1.0000
39.8900 827.0000 1.0000
39.9000 832.0000 1.0000
39.9100 833.0000 1.0000
39.9200 842.0000 1.0000
39.9300 808.0000 1.0000
39.9400 849.0000 1.0000
39.9500 758.0000 1.0000
39.9600 797.0000 1.0000
39.9700 772.0000 1.0000
39.9800 750.0000 1.0000
39.9900 792.0000 1.0000
40.0000 819.0000 1.0000
40.0100 793.0000 1.0000
40.0200 781.0000 1.0000
40.0300 856.0000 1.0000
40.0400 799.0000 1.0000
40.0500 804.0000 1.0000
40.0600 769.0000 1.0000
40.0700 762.0000 1.0000
40.0800 775.0000 1.0000
40.0900 822.0000 1.0000
40.1000 773.0000 1.0000
40.1100 781.0000 1.0000
40.1200 802.0000 1.0000
40.1300 819.0000 1.0000
40.1400 788.0000 1.0000
40.1500 818.0000 1.0000
40.1600 847.0000 1.0000
40.1700 811.0000 1.0000
40.1800 777.0000 1.0000
40.1900 810.0000 1.0000
40.2000 801.0000 1.0000
40.2100 806.0000 1.0000
40.2200 778.0000 1.0000
40.2300 791.0000 1.0000
40.2400 801.0000 1.0000
40.2500 825.0000 1.0000
40.2600 771.0000 1.0000
40.2700 821.0000 1.0000
40.2800 770.0000 1.0000
40.2900 820.0000 1.0000
40.3000 767.0000 1.0000
40.3100 794.0000 1.0000
40.3200 822.0000 1.0000
40.3300 827.0000 1.0000
40.3400 794.0000 1.0000
40.3500 803.0000 1.0000
40.3600 785.0000 1.0000
40.3700 767.0000 1.0000
40.3800 778.0000 1.0000
40.3900 788.0000 1.0000
40.4000 804.0000 1.0000
40.4100 823.0000 1.0000
40.4200 801.0000 1.0000
40.4300 794.0000 1.0000
40.4400 773.0000 1.0000
40.4500 800.0000 1.0000
40.4600 796.0000 1.0000
40.4700 766.0000 1.0000
40.4800 805.0000 1.0000
40.4900 816.0000 1.0000
40.5000 788.0000 1.0000
40.5100 795.0000 1.0000
40.5200 780.0000 1.0000
40.5300 800.0000 1.0000
40.5400 836.0000 1.0000
40.5500 772.0000 1.0000
40.5600 717.0000 1.0000
40.5700 781.0000 1.0000
40.5800 798.0000 1.0000
40.5900 789.0000 1.0000
40.6000 762.0000 1.0000
40.6100 757.0000 1.0000
40.6200 752.0000 1.0000
40.6300 810.0000 1.0000
40.6400 804.0000 1.0000
40.6500 820.0000 1.0000
40.6600 798.0000 1.0000
40.6700 815.0000 1.0000
40.6800 809.0000 1.0000
40.6900 781.0000 1.0000
40.7000 781.0000 1.0000
40.7100 797.0000 1.0000
40.7200 796.0000 1.0000
40.7300 774.0000 1.0000
40.7400 798.0000 1.0000
40.7500 798.0000 1.0000
40.7600 779.0000 1.0000
40.7700 734.0000 1.0000
40.7800 759.0000 1.0000
40.7900 779.0000 1.0000
40.8000 805.0000 1.0000
40.8100 802.0000 1.0000
40.8200 790.0000 1.0000
40.8300 780.0000 1.0000
40.8400 775.0000 1.0000
40.8500 796.0000 1.0000
40.8600 778.0000 1.0000
40.8700 786.0000 1.0000
40.8800 756.0000 1.0000
40.8900 761.0000 1.0000
40.9000 791.0000 1.0000
40.9100 782.0000 1.0000
40.9200 768.0000 1.0000
40.9300 807.0000 1.0000
40.9400 815.0000 1.0000
40.9500 749.0000 1.0000
40.9600 757.0000 1.0000
40.9700 752.0000 1.0000
40.9800 763.0000 1.0000
40.9900 781.0000 1.0000
41.0000 774.0000 1.0000
41.0100 757.0000 1.0000
41.0200 755.0000 1.0000
41.0300 812.0000 1.0000
41.0400 809.0000 1.0000
41.0500 810.0000 1.0000
41.0600 770.0000 1.0000
41.0700 785.0000 1.0000
41.0800 753.0000 1.0000
41.0900 737.0000 1.0000
41.1000 785.0000 1.0000
41.1100 815.0000 1.0000
41.1200 755.0000 1.0000
41.1300 776.0000 1.0000
41.1400 760.0000 1.0000
41.1500 739.0000 1.0000
41.1600 759.0000 1.0000
41.1700 818.0000 1.0000
41.1800 762.0000 1.0000
41.1900 772.0000 1.0000
41.2000 740.0000 1.0000
41.2100 793.0000 1.0000
41.2200 748.0000 1.0000
41.2300 773.0000 1.0000
41.2400 784.0000 1.0000
41.2500 765.0000 1.0000
41.2600 779.0000 1.0000
41.2700 822.0000 1.0000
41.2800 758.0000 1.0000
41.2900 765.0000 1.0000
41.3000 777.0000 1.0000
41.3100 771.0000 1.0000
41.3200 761.0000 1.0000
41.3300 780.0000 1.0000
41.3400 788.0000 1.0000
41.3500 819.0000 1.0000
41.3600 752.0000 1.0000
41.3700 771.0000 1.0000
41.3800 754.0000 1.0000
41.3900 774.0000 1.0000
41.4000 786.0000 1.0000
41.4100 759.0000 1.0000
41.4200 778.0000 1.0000
41.4300 779.0000 1.0000
41.4400 785.0000 1.0000
41.4500 770.0000 1.0000
41.4600 769.0000 1.0000
41.4700 774.0000 1.0000
41.4800 767.0000 1.0000
41.4900 748.0000 1.0000
41.5000 790.0000 1.0000
41.5100 793.0000 1.0000
41.5200 792.0000 1.0000
41.5300 746.0000 1.0000
41.5400 798.0000 1.0000
41.5500 794.0000 1.0000
41.5600 796.0000 1.0000
41.5700 768.0000 1.0000
41.5800 791.0000 1.0000
41.5900 801.0000 1.0000
41.6000 795.0000 1.0000
41.6100 811.0000 1.0000
41.6200 787.0000 1.0000
41.6300 798.0000 1.0000
41.6400 784.0000 1.0000
41.6500 803.0000 1.0000
41.6600 800.0000 1.0000
41.6700 809.0000 1.0000
41.6800 804.0000 1.0000
41.6900 794.0000 1.0000
41.7000 791.0000 1.0000
41.7100 810.0000 1.0000
41.7200 760.0000 1.0000
41.7300 786.0000 1.0000
41.7400 855.0000 1.0000
41.7500 806.0000 1.0000
41.7600 779.0000 1.0000
41.7700 770.0000 1.0000
41.7800 827.0000 1.0000
41.7900 781.0000 1.0000
41.8000 800.0000 1.0000
41.8100 716.0000 1.0000
41.8200 750.0000 1.0000
41.8300 765.0000 1.0000
41.8400 801.0000 1.0000
41.8500 774.0000 1.0000
41.8600 764.0000 1.0000
41.8700 817.0000 1.0000
41.8800 786.0000 1.0000
41.8900 758.0000 1.0000
41.9000 765.0000 1.0000
41.9100 768.0000 1.0000
41.9200 772.0000 1.0000
41.9300 766.0000 1.0000
41.9400 752.0000 1.0000
41.9500 709.0000 1.0000
41.9600 743.0000 1.0000
41.9700 782.0000 1.0000
41.9800 765.0000 1.0000
41.9900 771.0000 1.0000
42.0000 784.0000 1.0000
42.0100 747.0000 1.0000
42.0200 709.0000 1.0000
42.0300 758.0000 1.0000
42.0400 751.0000 1.0000
42.0500 777.0000 1.0000
42.0600 744.0000 1.0000
42.0700 751.0000 1.0000
42.0800 767.0000 1.0000
42.0900 775.0000 1.0000
42.1000 755.0000 1.0000
42.1100 807.0000 1.0000
42.1200 747.0000 1.0000
42.1300 752.0000 1.0000
42.1400 768.0000 1.0000
42.1500 722.0000 1.0000
42.1600 783.0000 1.0000
42.1700 733.0000 1.0000
42.1800 754.0000 1.0000
42.1900 729.0000 1.0000
42.2000 745.0000 1.0000
42.2100 713.0000 1.0000
42.2200 711.0000 1.0000
42.2300 738.0000 1.0000
42.2400 754.0000 1.0000
42.2500 776.0000 1.0000
42.2600 804.0000 1.0000
42.2700 760.0000 1.0000
42.2800 764.0000 1.0000
42.2900 739.0000 1.0000
42.3000 760.0000 1.0000
42.3100 761.0000 1.0000
42.3200 809.0000 1.0000
42.3300 769.0000 1.0000
42.3400 750.0000 1.0000
42.3500 752.0000 1.0000
42.3600 742.0000 1.0000
42.3700 741.0000 1.0000
42.3800 758.0000 1.0000
42.3900 713.0000 1.0000
42.4000 751.0000 1.0000
42.4100 801.0000 1.0000
42.4200 790.0000 1.0000
42.4300 781.0000 1.0000
42.4400 746.0000 1.0000
42.4500 724.0000 1.0000
42.4600 739.0000 1.0000
42.4700 784.0000 1.0000
42.4800 772.0000 1.0000
42.4900 790.0000 1.0000
42.5000 772.0000 1.0000
42.5100 782.0000 1.0000
42.5200 772.0000 1.0000
42.5300 792.0000 1.0000
42.5400 765.0000 1.0000
42.5500 775.0000 1.0000
42.5600 774.0000 1.0000
42.5700 730.0000 1.0000
42.5800 764.0000 1.0000
42.5900 760.0000 1.0000
42.6000 765.0000 1.0000
42.6100 770.0000 1.0000
42.6200 736.0000 1.0000
42.6300 751.0000 1.0000
42.6400 759.0000 1.0000
42.6500 745.0000 1.0000
42.6600 756.0000 1.0000
42.6700 757.0000 1.0000
42.6800 744.0000 1.0000
42.6900 765.0000 1.0000
42.7000 789.0000 1.0000
42.7100 734.0000 1.0000
42.7200 756.0000 1.0000
42.7300 790.0000 1.0000
42.7400 802.0000 1.0000
42.7500 741.0000 1.0000
42.7600 760.0000 1.0000
42.7700 777.0000 1.0000
42.7800 759.0000 1.0000
42.7900 763.0000 1.0000
42.8000 778.0000 1.0000
42.8100 767.0000 1.0000
42.8200 734.0000 1.0000
42.8300 751.0000 1.0000
42.8400 742.0000 1.0000
42.8500 769.0000 1.0000
42.8600 730.0000 1.0000
42.8700 749.0000 1.0000
42.8800 780.0000 1.0000
42.8900 752.0000 1.0000
42.9000 731.0000 1.0000
42.9100 782.0000 1.0000
42.9200 778.0000 1.0000
42.9300 775.0000 1.0000
42.9400 754.0000 1.0000
42.9500 752.0000 1.0000
42.9600 720.0000 1.0000
42.9700 787.0000 1.0000
42.9800 772.0000 1.0000
42.9900 765.0000 1.0000
43.0000 781.0000 1.0000
43.0100 768.0000 1.0000
43.0200 750.0000 1.0000
43.0300 813.0000 1.0000
43.0400 781.0000 1.0000
43.0500 778.0000 1.0000
43.0600 778.0000 1.0000
43.0700 776.0000 1.0000
43.0800 746.0000 1.0000
43.0900 812.0000 1.0000
43.1000 759.0000 1.0000
43.1100 817.0000 1.0000
43.1200 815.0000 1.0000
43.1300 828.0000 1.0000
43.1400 850.0000 1.0000
43.1500 796.0000 1.0000
43.1600 831.0000 1.0000
43.1700 811.0000 1.0000
43.1800 845.0000 1.0000
43.1900 823.0000 1.0000
43.2000 838.0000 1.0000
43.2100 846.0000 1.0000
43.2200 863.0000 1.0000
43.2300 845.0000 1.0000
43.2400 864.0000 1.0000
43.2500 833.0000 1.0000
43.2600 830.0000 1.0000
43.2700 855.0000 1.0000
43.2800 830.0000 1.0000
43.2900 892.0000 1.0000
43.3000 802.0000 1.0000
43.3100 812.0000 1.0000
43.3200 822.0000 1.0000
43.3300 827.0000 1.0000
43.3400 854.0000 1.0000
43.3500 805.0000 1.0000
43.3600 744.0000 1.0000
43.3700 822.0000 1.0000
43.3800 798.0000 1.0000
43.3900 767.0000 1.0000
43.4000 789.0000 1.0000
43.4100 765.0000 1.0000
43.4200 795.0000 1.0000
43.4300 762.0000 1.0000
43.4400 759.0000 1.0000
43.4500 826.0000 1.0000
43.4600 781.0000 1.0000
43.4700 726.0000 1.0000
43.4800 764.0000 1.0000
43.4900 774.0000 1.0000
43.5000 810.0000 1.0000
43.5100 759.0000 1.0000
43.5200 746.0000 1.0000
43.5300 788.0000 1.0000
43.5400 727.0000 1.0000
43.5500 740.0000 1.0000
43.5600 758.0000 1.0000
43.5700 727.0000 1.0000
43.5800 697.0000 1.0000
43.5900 721.0000 1.0000
43.6000 769.0000 1.0000
43.6100 740.0000 1.0000
43.6200 726.0000 1.0000
43.6300 743.0000 1.0000
43.6400 755.0000 1.0000
43.6500 719.0000 1.0000
43.6600 710.0000 1.0000
43.6700 740.0000 1.0000
43.6800 729.0000 1.0000
43.6900 715.0000 1.0000
43.7000 742.0000 1.0000
43.7100 775.0000 1.0000
43.7200 720.0000 1.0000
43.7300 696.0000 1.0000
43.7400 739.0000 1.0000
43.7500 720.0000 1.0000
43.7600 718.0000 1.0000
43.7700 700.0000 1.0000
43.7800 712.0000 1.0000
43.7900 753.0000 1.0000
43.8000 737.0000 1.0000
43.8100 758.0000 1.0000
43.8200 728.0000 1.0000
43.8300 733.0000 1.0000
43.8400 753.0000 1.0000
43.8500 770.0000 1.0000
43.8600 707.0000 1.0000
43.8700 714.0000 1.0000
43.8800 745.0000 1.0000
43.8900 734.0000 1.0000
43.9000 783.0000 1.0000
43.9100 743.0000 1.0000
43.9200 723.0000 1.0000
43.9300 755.0000 1.0000
43.9400 717.0000 1.0000
43.9500 749.0000 1.0000
43.9600 732.0000 1.0000
43.9700 740.0000 1.0000
43.9800 740.0000 1.0000
43.9900 725.0000 1.0000
44.0000 681.0000 1.0000
44.0100 753.0000 1.0000
44.0200 711.0000 1.0000
44.0300 753.0000 1.0000
44.0400 726.0000 1.0000
44.0500 714.0000 1.0000
44.0600 768.0000 1.0000
44.0700 716.0000 1.0000
44.0800 756.0000 1.0000
44.0900 756.0000 1.0000
44.1000 709.0000 1.0000
44.1100 713.0000 1.0000
44.1200 696.0000 1.0000
44.1300 763.0000 1.0000
44.1400 763.0000 1.0000
44.1500 753.0000 1.0000
44.1600 719.0000 1.0000
44.1700 780.0000 1.0000
44.1800 743.0000 1.0000
44.1900 719.0000 1.0000
44.2000 733.0000 1.0000
44.2100 767.0000 1.0000
44.2200 801.0000 1.0000
44.2300 757.0000 1.0000
44.2400 706.0000 1.0000
44.2500 715.0000 1.0000
44.2600 759.0000 1.0000
44.2700 748.0000 1.0000
44.2800 707.0000 1.0000
44.2900 700.0000 1.0000
44.3000 713.0000 1.0000
44.3100 748.0000 1.0000
44.3200 724.0000 1.0000
44.3300 746.0000 1.0000
44.3400 781.0000 1.0000
44.3500 749.0000 1.0000
44.3600 725.0000 1.0000
44.3700 745.0000 1.0000
44.3800 731.0000 1.0000
44.3900 754.0000 1.0000
44.4000 717.0000 1.0000
44.4100 680.0000 1.0000
44.4200 719.0000 1.0000
44.4300 748.0000 1.0000
44.4400 718.0000 1.0000
44.4500 719.0000 1.0000
44.4600 745.0000 1.0000
44.4700 750.0000 1.0000
44.4800 762.0000 1.0000
44.4900 685.0000 1.0000
44.5000 715.0000 1.0000
44.5100 707.0000 1.0000
44.5200 717.0000 1.0000
44.5300 721.0000 1.0000
44.5400 725.0000 1.0000
44.5500 786.0000 1.0000
44.5600 733.0000 1.0000
44.5700 776.0000 1.0000
44.5800 741.0000 1.0000
44.5900 762.0000 1.0000
44.6000 702.0000 1.0000
44.6100 780.0000 1.0000
44.6200 756.0000 1.0000
44.6300 698.0000 1.0000
44.6400 656.0000 1.0000
44.6500 697.0000 1.0000
44.6600 703.0000 1.0000
44.6700 714.0000 1.0000
44.6800 734.0000 1.0000
44.6900 707.0000 1.0000
44.7000 699.0000 1.0000
44.7100 764.0000 1.0000
44.7200 722.0000 1.0000
44.7300 725.0000 1.0000
44.7400 694.0000 1.0000
44.7500 738.0000 1.0000
44.7600 703.0000 1.0000
44.7700 730.0000 1.0000
44.7800 753.0000 1.0000
44.7900 712.0000 1.0000
44.8000 694.0000 1.0000
44.8100 758.0000 1.0000
44.8200 711.0000 1.0000
44.8300 727.0000 1.0000
44.8400 727.0000 1.0000
44.8500 731.0000 1.0000
44.8600 683.0000 1.0000
44.8700 697.0000 1.0000
44.8800 716.0000 1.0000
44.8900 704.0000 1.0000
44.9000 678.0000 1.0000
44.9100 729.0000 1.0000
44.9200 673.0000 1.0000
44.9300 686.0000 1.0000
44.9400 690.0000 1.0000
44.9500 749.0000 1.0000
44.9600 684.0000 1.0000
44.9700 706.0000 1.0000
44.9800 722.0000 1.0000
44.9900 710.0000 1.0000
45.0000 670.0000 1.0000
45.0100 728.0000 1.0000
45.0200 691.0000 1.0000
45.0300 672.0000 1.0000
45.0400 744.0000 1.0000
45.0500 740.0000 1.0000
45.0600 683.0000 1.0000
45.0700 724.0000 1.0000
45.0800 746.0000 1.0000
45.0900 684.0000 1.0000
45.1000 702.0000 1.0000
45.1100 742.0000 1.0000
45.1200 675.0000 1.0000
45.1300 652.0000 1.0000
45.1400 672.0000 1.0000
45.1500 700.0000 1.0000
45.1600 695.0000 1.0000
45.1700 727.0000 1.0000
45.1800 679.0000 1.0000
45.1900 788.0000 1.0000
45.2000 712.0000 1.0000
45.2100 687.0000 1.0000
45.2200 712.0000 1.0000
45.2300 694.0000 1.0000
45.2400 693.0000 1.0000
45.2500 740.0000 1.0000
45.2600 690.0000 1.0000
45.2700 699.0000 1.0000
45.2800 670.0000 1.0000
45.2900 683.0000 1.0000
45.3000 723.0000 1.0000
45.3100 774.0000 1.0000
45.3200 708.0000 1.0000
45.3300 690.0000 1.0000
45.3400 703.0000 1.0000
45.3500 699.0000 1.0000
45.3600 683.0000 1.0000
45.3700 721.0000 1.0000
45.3800 733.0000 1.0000
45.3900 690.0000 1.0000
45.4000 700.0000 1.0000
45.4100 719.0000 1.0000
45.4200 706.0000 1.0000
45.4300 710.0000 1.0000
45.4400 699.0000 1.0000
45.4500 763.0000 1.0000
45.4600 706.0000 1.0000
45.4700 734.0000 1.0000
45.4800 682.0000 1.0000
45.4900 741.0000 1.0000
45.5000 743.0000 1.0000
45.5100 706.0000 1.0000
45.5200 696.0000 1.0000
45.5300 675.0000 1.0000
45.5400 689.0000 1.0000
45.5500 645.0000 1.0000
45.5600 711.0000 1.0000
45.5700 689.0000 1.0000
45.5800 706.0000 1.0000
45.5900 707.0000 1.0000
45.6000 724.0000 1.0000
45.6100 716.0000 1.0000
45.6200 698.0000 1.0000
45.6300 711.0000 1.0000
45.6400 685.0000 1.0000
45.6500 700.0000 1.0000
45.6600 732.0000 1.0000
45.6700 736.0000 1.0000
45.6800 718.0000 1.0000
45.6900 736.0000 1.0000
45.7000 700.0000 1.0000
45.7100 684.0000 1.0000
45.7200 714.0000 1.0000
45.7300 706.0000 1.0000
45.7400 699.0000 1.0000
45.7500 712.0000 1.0000
45.7600 703.0000 1.0000
45.7700 716.0000 1.0000
45.7800 700.0000 1.0000
45.7900 657.0000 1.0000
45.8000 714.0000 1.0000
45.8100 699.0000 1.0000
45.8200 699.0000 1.0000
45.8300 692.0000 1.0000
45.8400 648.0000 1.0000
45.8500 731.0000 1.0000
45.8600 728.0000 1.0000
45.8700 731.0000 1.0000
45.8800 694.0000 1.0000
45.8900 685.0000 1.0000
45.9000 681.0000 1.0000
45.9100 715.0000 1.0000
45.9200 745.0000 1.0000
45.9300 695.0000 1.0000
45.9400 684.0000 1.0000
45.9500 697.0000 1.0000
45.9600 708.0000 1.0000
45.9700 703.0000 1.0000
45.9800 669.0000 1.0000
45.9900 668.0000 1.0000
46.0000 710.0000 1.0000
46.0100 703.0000 1.0000
46.0200 682.0000 1.0000
46.0300 687.0000 1.0000
46.0400 698.0000 1.0000
46.0500 693.0000 1.0000
46.0600 712.0000 1.0000
46.0700 677.0000 1.0000
46.0800 701.0000 1.0000
46.0900 699.0000 1.0000
46.1000 678.0000 1.0000
46.1100 710.0000 1.0000
46.1200 706.0000 1.0000
46.1300 699.0000 1.0000
46.1400 706.0000 1.0000
46.1500 649.0000 1.0000
46.1600 663.0000 1.0000
46.1700 662.0000 1.0000
46.1800 706.0000 1.0000
46.1900 696.0000 1.0000
46.2000 684.0000 1.0000
46.2100 658.0000 1.0000
46.2200 674.0000 1.0000
46.2300 657.0000 1.0000
46.2400 730.0000 1.0000
46.2500 707.0000 1.0000
46.2600 650.0000 1.0000
46.2700 668.0000 1.0000
46.2800 679.0000 1.0000
46.2900 716.0000 1.0000
46.3000 707.0000 1.0000
46.3100 694.0000 1.0000
46.3200 684.0000 1.0000
46.3300 661.0000 1.0000
46.3400 692.0000 1.0000
46.3500 680.0000 1.0000
46.3600 710.0000 1.0000
46.3700 686.0000 1.0000
46.3800 647.0000 1.0000
46.3900 685.0000 1.0000
46.4000 674.0000 1.0000
46.4100 691.0000 1.0000
46.4200 699.0000 1.0000
46.4300 704.0000 1.0000
46.4400 687.0000 1.0000
46.4500 709.0000 1.0000
46.4600 721.0000 1.0000
46.4700 693.0000 1.0000
46.4800 698.0000 1.0000
46.4900 669.0000 1.0000
46.5000 691.0000 1.0000
46.5100 672.0000 1.0000
46.5200 675.0000 1.0000
46.5300 688.0000 1.0000
46.5400 711.0000 1.0000
46.5500 697.0000 1.0000
46.5600 699.0000 1.0000
46.5700 674.0000 1.0000
46.5800 669.0000 1.0000
46.5900 688.0000 1.0000
46.6000 732.0000 1.0000
46.6100 667.0000 1.0000
46.6200 702.0000 1.0000
46.6300 705.0000 1.0000
46.6400 728.0000 1.0000
46.6500 673.0000 1.0000
46.6600 693.0000 1.0000
46.6700 664.0000 1.0000
46.6800 706.0000 1.0000
46.6900 688.0000 1.0000
46.7000 647.0000 1.0000
46.7100 702.0000 1.0000
46.7200 681.0000 1.0000
46.7300 684.0000 1.0000
46.7400 668.0000 1.0000
46.7500 644.0000 1.0000
46.7600 651.0000 1.0000
46.7700 691.0000 1.0000
46.7800 678.0000 1.0000
46.7900 681.0000 1.0000
46.8000 653.0000 1.0000
46.8100 705.0000 1.0000
46.8200 723.0000 1.0000
46.8300 688.0000 1.0000
46.8400 660.0000 1.0000
46.8500 664.0000 1.0000
46.8600 710.0000 1.0000
46.8700 718.0000 1.0000
46.8800 682.0000 1.0000
46.8900 699.0000 1.0000
46.9000 659.0000 1.0000
46.9100 704.0000 1.0000
46.9200 675.0000 1.0000
46.9300 705.0000 1.0000
46.9400 724.0000 1.0000
46.9500 707.0000 1.0000
46.9600 716.0000 1.0000
46.9700 681.0000 1.0000
46.9800 765.0000 1.0000
46.9900 721.0000 1.0000
47.0000 725.0000 1.0000
47.0100 711.0000 1.0000
47.0200 689.0000 1.0000
47.0300 699.0000 1.0000
47.0400 692.0000 1.0000
47.0500 714.0000 1.0000
47.0600 682.0000 1.0000
47.0700 707.0000 1.0000
47.0800 707.0000 1.0000
47.0900 710.0000 1.0000
47.1000 679.0000 1.0000
47.1100 698.0000 1.0000
47.1200 693.0000 1.0000
47.1300 692.0000 1.0000
47.1400 658.0000 1.0000
47.1500 704.0000 1.0000
47.1600 673.0000 1.0000
47.1700 698.0000 1.0000
47.1800 680.0000 1.0000
47.1900 683.0000 1.0000
47.2000 679.0000 1.0000
47.2100 689.0000 1.0000
47.2200 674.0000 1.0000
47.2300 687.0000 1.0000
47.2400 688.0000 1.0000
47.2500 690.0000 1.0000
47.2600 682.0000 1.0000
47.2700 661.0000 1.0000
47.2800 669.0000 1.0000
47.2900 694.0000 1.0000
47.3000 656.0000 1.0000
47.3100 673.0000 1.0000
47.3200 688.0000 1.0000
47.3300 695.0000 1.0000
47.3400 645.0000 1.0000
47.3500 726.0000 1.0000
47.3600 679.0000 1.0000
47.3700 648.0000 1.0000
47.3800 657.0000 1.0000
47.3900 683.0000 1.0000
47.4000 703.0000 1.0000
47.4100 708.0000 1.0000
47.4200 714.0000 1.0000
47.4300 659.0000 1.0000
47.4400 691.0000 1.0000
47.4500 716.0000 1.0000
47.4600 666.0000 1.0000
47.4700 644.0000 1.0000
47.4800 638.0000 1.0000
47.4900 672.0000 1.0000
47.5000 631.0000 1.0000
47.5100 650.0000 1.0000
47.5200 666.0000 1.0000
47.5300 719.0000 1.0000
47.5400 683.0000 1.0000
47.5500 669.0000 1.0000
47.5600 658.0000 1.0000
47.5700 667.0000 1.0000
47.5800 634.0000 1.0000
47.5900 697.0000 1.0000
47.6000 662.0000 1.0000
47.6100 678.0000 1.0000
47.6200 637.0000 1.0000
47.6300 665.0000 1.0000
47.6400 661.0000 1.0000
47.6500 670.0000 1.0000
47.6600 673.0000 1.0000
47.6700 662.0000 1.0000
47.6800 655.0000 1.0000
47.6900 669.0000 1.0000
47.7000 684.0000 1.0000
47.7100 735.0000 1.0000
47.7200 707.0000 1.0000
47.7300 666.0000 1.0000
47.7400 674.0000 1.0000
47.7500 654.0000 1.0000
47.7600 702.0000 1.0000
47.7700 698.0000 1.0000
47.7800 664.0000 1.0000
47.7900 701.0000 1.0000
47.8000 657.0000 1.0000
47.8100 658.0000 1.0000
47.8200 682.0000 1.0000
47.8300 664.0000 1.0000
47.8400 673.0000 1.0000
47.8500 658.0000 1.0000
47.8600 688.0000 1.0000
47.8700 675.0000 1.0000
47.8800 658.0000 1.0000
47.8900 648.0000 1.0000
47.9000 628.0000 1.0000
47.9100 641.0000 1.0000
47.9200 687.0000 1.0000
47.9300 709.0000 1.0000
47.9400 680.0000 1.0000
47.9500 669.0000 1.0000
47.9600 674.0000 1.0000
47.9700 655.0000 1.0000
47.9800 660.0000 1.0000
47.9900 675.0000 1.0000
48.0000 647.0000 1.0000
48.0100 644.0000 1.0000
48.0200 666.0000 1.0000
48.0300 662.0000 1.0000
48.0400 696.0000 1.0000
48.0500 658.0000 1.0000
48.0600 696.0000 1.0000
48.0700 707.0000 1.0000
48.0800 648.0000 1.0000
48.0900 657.0000 1.0000
48.1000 675.0000 1.0000
48.1100 686.0000 1.0000
48.1200 644.0000 1.0000
48.1300 660.0000 1.0000
48.1400 656.0000 1.0000
48.1500 658.0000 1.0000
48.1600 667.0000 1.0000
48.1700 690.0000 1.0000
48.1800 708.0000 1.0000
48.1900 647.0000 1.0000
48.2000 674.0000 1.0000
48.2100 671.0000 1.0000
48.2200 648.0000 1.0000
48.2300 664.0000 1.0000
48.2400 649.0000 1.0000
48.2500 644.0000 1.0000
48.2600 706.0000 1.0000
48.2700 680.0000 1.0000
48.2800 700.0000 1.0000
48.2900 692.0000 1.0000
48.3000 666.0000 1.0000
48.3100 676.0000 1.0000
48.3200 670.0000 1.0000
48.3300 629.0000 1.0000
48.3400 690.0000 1.0000
48.3500 671.0000 1.0000
48.3600 680.0000 1.0000
48.3700 655.0000 1.0000
48.3800 671.0000 1.0000
48.3900 683.0000 1.0000
48.4000 676.0000 1.0000
48.4100 611.0000 1.0000
48.4200 639.0000 1.0000
48.4300 677.0000 1.0000
48.4400 703.0000 1.0000
48.4500 647.0000 1.0000
48.4600 643.0000 1.0000
48.4700 726.0000 1.0000
48.4800 673.0000 1.0000
48.4900 661.0000 1.0000
48.5000 670.0000 1.0000
48.5100 718.0000 1.0000
48.5200 656.0000 1.0000
48.5300 642.0000 1.0000
48.5400 639.0000 1.0000
48.5500 674.0000 1.0000
48.5600 663.0000 1.0000
48.5700 643.0000 1.0000
48.5800 675.0000 1.0000
48.5900 623.0000 1.0000
48.6000 673.0000 1.0000
48.6100 658.0000 1.0000
48.6200 664.0000 1.0000
48.6300 664.0000 1.0000
48.6400 661.0000 1.0000
48.6500 658.0000 1.0000
48.6600 668.0000 1.0000
48.6700 713.0000 1.0000
48.6800 645.0000 1.0000
48.6900 646.0000 1.0000
48.7000 669.0000 1.0000
48.7100 663.0000 1.0000
48.7200 654.0000 1.0000
48.7300 696.0000 1.0000
48.7400 693.0000 1.0000
48.7500 640.0000 1.0000
48.7600 667.0000 1.0000
48.7700 719.0000 1.0000
48.7800 648.0000 1.0000
48.7900 636.0000 1.0000
48.8000 680.0000 1.0000
48.8100 711.0000 1.0000
48.8200 654.0000 1.0000
48.8300 704.0000 1.0000
48.8400 672.0000 1.0000
48.8500 667.0000 1.0000
48.8600 674.0000 1.0000
48.8700 673.0000 1.0000
48.8800 662.0000 1.0000
48.8900 652.0000 1.0000
48.9000 640.0000 1.0000
48.9100 644.0000 1.0000
48.9200 671.0000 1.0000
48.9300 677.0000 1.0000
48.9400 703.0000 1.0000
48.9500 654.0000 1.0000
48.9600 716.0000 1.0000
48.9700 677.0000 1.0000
48.9800 637.0000 1.0000
48.9900 625.0000 1.0000
49.0000 642.0000 1.0000
49.0100 668.0000 1.0000
49.0200 655.0000 1.0000
49.0300 666.0000 1.0000
49.0400 674.0000 1.0000
49.0500 693.0000 1.0000
49.0600 686.0000 1.0000
49.0700 669.0000 1.0000
49.0800 654.0000 1.0000
49.0900 635.0000 1.0000
49.1000 651.0000 1.0000
49.1100 614.0000 1.0000
49.1200 653.0000 1.0000
49.1300 621.0000 1.0000
49.1400 650.0000 1.0000
49.1500 611.0000 1.0000
49.1600 658.0000 1.0000
49.1700 653.0000 1.0000
49.1800 683.0000 1.0000
49.1900 642.0000 1.0000
49.2000 646.0000 1.0000
49.2100 632.0000 1.0000
49.2200 662.0000 1.0000
49.2300 660.0000 1.0000
49.2400 673.0000 1.0000
49.2500 645.0000 1.0000
49.2600 689.0000 1.0000
49.2700 646.0000 1.0000
49.2800 639.0000 1.0000
49.2900 665.0000 1.0000
49.3000 727.0000 1.0000
49.3100 688.0000 1.0000
49.3200 632.0000 1.0000
49.3300 645.0000 1.0000
49.3400 635.0000 1.0000
49.3500 649.0000 1.0000
49.3600 666.0000 1.0000
49.3700 685.0000 1.0000
49.3800 656.0000 1.0000
49.3900 675.0000 1.0000
49.4000 646.0000 1.0000
49.4100 635.0000 1.0000
49.4200 607.0000 1.0000
49.4300 652.0000 1.0000
49.4400 628.0000 1.0000
49.4500 672.0000 1.0000
49.4600 653.0000 1.0000
49.4700 652.0000 1.0000
49.4800 633.0000 1.0000
49.4900 621.0000 1.0000
49.5000 662.0000 1.0000
49.5100 639.0000 1.0000
49.5200 645.0000 1.0000
49.5300 647.0000 1.0000
49.5400 669.0000 1.0000
49.5500 678.0000 1.0000
49.5600 617.0000 1.0000
49.5700 614.0000 1.0000
49.5800 633.0000 1.0000
49.5900 641.0000 1.0000
49.6000 610.0000 1.0000
49.6100 641.0000 1.0000
49.6200 657.0000 1.0000
49.6300 711.0000 1.0000
49.6400 691.0000 1.0000
49.6500 647.0000 1.0000
49.6600 680.0000 1.0000
49.6700 680.0000 1.0000
49.6800 655.0000 1.0000
49.6900 672.0000 1.0000
49.7000 641.0000 1.0000
49.7100 640.0000 1.0000
49.7200 661.0000 1.0000
49.7300 691.0000 1.0000
49.7400 683.0000 1.0000
49.7500 669.0000 1.0000
49.7600 651.0000 1.0000
49.7700 614.0000 1.0000
49.7800 671.0000 1.0000
49.7900 655.0000 1.0000
49.8000 606.0000 1.0000
49.8100 667.0000 1.0000
49.8200 634.0000 1.0000
49.8300 677.0000 1.0000
49.8400 646.0000 1.0000
49.8500 608.0000 1.0000
49.8600 681.0000 1.0000
49.8700 691.0000 1.0000
49.8800 705.0000 1.0000
49.8900 689.0000 1.0000
49.9000 634.0000 1.0000
49.9100 651.0000 1.0000
49.9200 658.0000 1.0000
49.9300 640.0000 1.0000
49.9400 655.0000 1.0000
49.9500 683.0000 1.0000
49.9600 721.0000 1.0000
49.9700 672.0000 1.0000
49.9800 667.0000 1.0000
49.9900 643.0000 1.0000
50.0000 652.0000 1.0000
50.0100 696.0000 1.0000
50.0200 692.0000 1.0000
50.0300 673.0000 1.0000
50.0400 620.0000 1.0000
50.0500 662.0000 1.0000
50.0600 622.0000 1.0000
50.0700 655.0000 1.0000
50.0800 659.0000 1.0000
50.0900 644.0000 1.0000
50.1000 671.0000 1.0000
50.1100 679.0000 1.0000
50.1200 687.0000 1.0000
50.1300 658.0000 1.0000
50.1400 682.0000 1.0000
50.1500 687.0000 1.0000
50.1600 643.0000 1.0000
50.1700 664.0000 1.0000
50.1800 622.0000 1.0000
50.1900 668.0000 1.0000
50.2000 698.0000 1.0000
50.2100 646.0000 1.0000
50.2200 660.0000 1.0000
50.2300 655.0000 1.0000
50.2400 668.0000 1.0000
50.2500 698.0000 1.0000
50.2600 647.0000 1.0000
50.2700 655.0000 1.0000
50.2800 644.0000 1.0000
50.2900 666.0000 1.0000
50.3000 731.0000 1.0000
50.3100 696.0000 1.0000
50.3200 662.0000 1.0000
50.3300 650.0000 1.0000
50.3400 669.0000 1.0000
50.3500 680.0000 1.0000
50.3600 697.0000 1.0000
50.3700 704.0000 1.0000
50.3800 676.0000 1.0000
50.3900 683.0000 1.0000
50.4000 704.0000 1.0000
50.4100 656.0000 1.0000
50.4200 722.0000 1.0000
50.4300 697.0000 1.0000
50.4400 688.0000 1.0000
50.4500 663.0000 1.0000
50.4600 695.0000 1.0000
50.4700 679.0000 1.0000
50.4800 702.0000 1.0000
50.4900 682.0000 1.0000
50.5000 720.0000 1.0000
50.5100 637.0000 1.0000
50.5200 701.0000 1.0000
50.5300 665.0000 1.0000
50.5400 685.0000 1.0000
50.5500 685.0000 1.0000
50.5600 689.0000 1.0000
50.5700 618.0000 1.0000
50.5800 691.0000 1.0000
50.5900 692.0000 1.0000
50.6000 668.0000 1.0000
50.6100 688.0000 1.0000
50.6200 651.0000 1.0000
50.6300 626.0000 1.0000
50.6400 676.0000 1.0000
50.6500 670.0000 1.0000
50.6600 690.0000 1.0000
50.6700 643.0000 1.0000
50.6800 678.0000 1.0000
50.6900 701.0000 1.0000
50.7000 701.0000 1.0000
50.7100 674.0000 1.0000
50.7200 660.0000 1.0000
50.7300 638.0000 1.0000
50.7400 670.0000 1.0000
50.7500 649.0000 1.0000
50.7600 671.0000 1.0000
50.7700 676.0000 1.0000
50.7800 676.0000 1.0000
50.7900 643.0000 1.0000
50.8000 658.0000 1.0000
50.8100 684.0000 1.0000
50.8200 672.0000 1.0000
50.8300 679.0000 1.0000
50.8400 658.0000 1.0000
50.8500 663.0000 1.0000
50.8600 674.0000 1.0000
50.8700 674.0000 1.0000
50.8800 672.0000 1.0000
50.8900 683.0000 1.0000
50.9000 705.0000 1.0000
50.9100 689.0000 1.0000
50.9200 622.0000 1.0000
50.9300 684.0000 1.0000
50.9400 662.0000 1.0000
50.9500 660.0000 1.0000
50.9600 671.0000 1.0000
50.9700 652.0000 1.0000
50.9800 666.0000 1.0000
50.9900 692.0000 1.0000
51.0000 677.0000 1.0000
51.0100 686.0000 1.0000
51.0200 663.0000 1.0000
51.0300 660.0000 1.0000
51.0400 687.0000 1.0000
51.0500 661.0000 1.0000
51.0600 662.0000 1.0000
51.0700 620.0000 1.0000
51.0800 691.0000 1.0000
51.0900 682.0000 1.0000
51.1000 701.0000 1.0000
51.1100 668.0000 1.0000
51.1200 665.0000 1.0000
51.1300 693.0000 1.0000
51.1400 673.0000 1.0000
51.1500 651.0000 1.0000
51.1600 673.0000 1.0000
51.1700 651.0000 1.0000
51.1800 701.0000 1.0000
51.1900 705.0000 1.0000
51.2000 673.0000 1.0000
51.2100 675.0000 1.0000
51.2200 712.0000 1.0000
51.2300 697.0000 1.0000
51.2400 640.0000 1.0000
51.2500 668.0000 1.0000
51.2600 659.0000 1.0000
51.2700 661.0000 1.0000
51.2800 670.0000 1.0000
51.2900 688.0000 1.0000
51.3000 694.0000 1.0000
51.3100 720.0000 1.0000
51.3200 674.0000 1.0000
51.3300 663.0000 1.0000
51.3400 717.0000 1.0000
51.3500 655.0000 1.0000
51.3600 679.0000 1.0000
51.3700 673.0000 1.0000
51.3800 644.0000 1.0000
51.3900 668.0000 1.0000
51.4000 683.0000 1.0000
51.4100 676.0000 1.0000
51.4200 661.0000 1.0000
51.4300 685.0000 1.0000
51.4400 687.0000 1.0000
51.4500 651.0000 1.0000
51.4600 709.0000 1.0000
51.4700 669.0000 1.0000
51.4800 729.0000 1.0000
51.4900 672.0000 1.0000
51.5000 689.0000 1.0000
51.5100 713.0000 1.0000
51.5200 665.0000 1.0000
51.5300 676.0000 1.0000
51.5400 684.0000 1.0000
51.5500 709.0000 1.0000
51.5600 699.0000 1.0000
51.5700 651.0000 1.0000
51.5800 700.0000 1.0000
51.5900 720.0000 1.0000
51.6000 728.0000 1.0000
51.6100 718.0000 1.0000
51.6200 701.0000 1.0000
51.6300 713.0000 1.0000
51.6400 676.0000 1.0000
51.6500 698.0000 1.0000
51.6600 675.0000 1.0000
51.6700 707.0000 1.0000
51.6800 700.0000 1.0000
51.6900 718.0000 1.0000
51.7000 681.0000 1.0000
51.7100 717.0000 1.0000
51.7200 699.0000 1.0000
51.7300 739.0000 1.0000
51.7400 719.0000 1.0000
51.7500 742.0000 1.0000
51.7600 732.0000 1.0000
51.7700 764.0000 1.0000
51.7800 708.0000 1.0000
51.7900 774.0000 1.0000
51.8000 772.0000 1.0000
51.8100 811.0000 1.0000
51.8200 800.0000 1.0000
51.8300 834.0000 1.0000
51.8400 794.0000 1.0000
51.8500 822.0000 1.0000
51.8600 811.0000 1.0000
51.8700 842.0000 1.0000
51.8800 854.0000 1.0000
51.8900 842.0000 1.0000
51.9000 913.0000 1.0000
51.9100 953.0000 1.0000
51.9200 909.0000 1.0000
51.9300 1024.0000 1.0000
51.9400 987.0000 1.0000
51.9500 1020.0000 1.0000
51.9600 1064.0000 1.0000
51.9700 1092.0000 1.0000
51.9800 1142.0000 1.0000
51.9900 1165.0000 1.0000
52.0000 1192.0000 1.0000
52.0100 1243.0000 1.0000
52.0200 1314.0000 1.0000
52.0300 1384.0000 1.0000
52.0400 1455.0000 1.0000
52.0500 1490.0000 1.0000
52.0600 1630.0000 1.0000
52.0700 1728.0000 1.0000
52.0800 1847.0000 1.0000
52.0900 1925.0000 1.0000
52.1000 2040.0000 1.0000
52.1100 2245.0000 1.0000
52.1200 2413.0000 1.0000
52.1300 2666.0000 1.0000
52.1400 2829.0000 1.0000
52.1500 3114.0000 1.0000
52.1600 3396.0000 1.0000
52.1700 3595.0000 1.0000
52.1800 3933.0000 1.0000
52.1900 4171.0000 1.0000
52.2000 4423.0000 1.0000
52.2100 4659.0000 1.0000
52.2200 4910.0000 1.0000
52.2300 4958.0000 1.0000
52.2400 4887.0000 1.0000
52.2500 4930.0000 1.0000
52.2600 4756.0000 1.0000
52.2700 4571.0000 1.0000
52.2800 4577.0000 1.0000
52.2900 4340.0000 1.0000
52.3000 4177.0000 1.0000
52.3100 4017.0000 1.0000
52.3200 3950.0000 1.0000
52.3300 3906.0000 1.0000
52.3400 3755.0000 1.0000
52.3500 3727.0000 1.0000
52.3600 3770.0000 1.0000
52.3700 3658.0000 1.0000
52.3800 3536.0000 1.0000
52.3900 3316.0000 1.0000
52.4000 3201.0000 1.0000
52.4100 2983.0000 1.0000
52.4200 2754.0000 1.0000
52.4300 2570.0000 1.0000
52.4400 2371.0000 1.0000
52.4500 2193.0000 1.0000
52.4600 2091.0000 1.0000
52.4700 1864.0000 1.0000
52.4800 1711.0000 1.0000
52.4900 1627.0000 1.0000
52.5000 1601.0000 1.0000
52.5100 1503.0000 1.0000
52.5200 1435.0000 1.0000
52.5300 1372.0000 1.0000
52.5400 1319.0000 1.0000
52.5500 1232.0000 1.0000
52.5600 1242.0000 1.0000
52.5700 1203.0000 1.0000
52.5800 1112.0000 1.0000
52.5900 1146.0000 1.0000
52.6000 1070.0000 1.0000
52.6100 1029.0000 1.0000
52.6200 988.0000 1.0000
52.6300 1007.0000 1.0000
52.6400 983.0000 1.0000
52.6500 961.0000 1.0000
52.6600 976.0000 1.0000
52.6700 918.0000 1.0000
52.6800 948.0000 1.0000
52.6900 917.0000 1.0000
52.7000 857.0000 1.0000
52.7100 847.0000 1.0000
52.7200 874.0000 1.0000
52.7300 796.0000 1.0000
52.7400 828.0000 1.0000
52.7500 799.0000 1.0000
52.7600 778.0000 1.0000
52.7700 826.0000 1.0000
52.7800 801.0000 1.0000
52.7900 730.0000 1.0000
52.8000 774.0000 1.0000
52.8100 756.0000 1.0000
52.8200 758.0000 1.0000
52.8300 778.0000 1.0000
52.8400 774.0000 1.0000
52.8500 780.0000 1.0000
52.8600 725.0000 1.0000
52.8700 739.0000 1.0000
52.8800 710.0000 1.0000
52.8900 736.0000 1.0000
52.9000 706.0000 1.0000
52.9100 674.0000 1.0000
52.9200 694.0000 1.0000
52.9300 739.0000 1.0000
52.9400 713.0000 1.0000
52.9500 687.0000 1.0000
52.9600 687.0000 1.0000
52.9700 674.0000 1.0000
52.9800 711.0000 1.0000
52.9900 719.0000 1.0000
53.0000 690.0000 1.0000
53.0100 646.0000 1.0000
53.0200 696.0000 1.0000
53.0300 690.0000 1.0000
53.0400 695.0000 1.0000
53.0500 697.0000 1.0000
53.0600 685.0000 1.0000
53.0700 660.0000 1.0000
53.0800 691.0000 1.0000
53.0900 703.0000 1.0000
53.1000 665.0000 1.0000
53.1100 668.0000 1.0000
53.1200 671.0000 1.0000
53.1300 662.0000 1.0000
53.1400 654.0000 1.0000
53.1500 675.0000 1.0000
53.1600 663.0000 1.0000
53.1700 689.0000 1.0000
53.1800 666.0000 1.0000
53.1900 734.0000 1.0000
53.2000 690.0000 1.0000
53.2100 660.0000 1.0000
53.2200 704.0000 1.0000
53.2300 695.0000 1.0000
53.2400 686.0000 1.0000
53.2500 697.0000 1.0000
53.2600 683.0000 1.0000
53.2700 618.0000 1.0000
53.2800 678.0000 1.0000
53.2900 703.0000 1.0000
53.3000 686.0000 1.0000
53.3100 703.0000 1.0000
53.3200 708.0000 1.0000
53.3300 663.0000 1.0000
53.3400 638.0000 1.0000
53.3500 644.0000 1.0000
53.3600 670.0000 1.0000
53.3700 690.0000 1.0000
53.3800 645.0000 1.0000
53.3900 637.0000 1.0000
53.4000 677.0000 1.0000
53.4100 678.0000 1.0000
53.4200 663.0000 1.0000
53.4300 624.0000 1.0000
53.4400 679.0000 1.0000
53.4500 656.0000 1.0000
53.4600 647.0000 1.0000
53.4700 649.0000 1.0000
53.4800 688.0000 1.0000
53.4900 667.0000 1.0000
53.5000 694.0000 1.0000
53.5100 659.0000 1.0000
53.5200 636.0000 1.0000
53.5300 623.0000 1.0000
53.5400 663.0000 1.0000
53.5500 695.0000 1.0000
53.5600 660.0000 1.0000
53.5700 656.0000 1.0000
53.5800 672.0000 1.0000
53.5900 669.0000 1.0000
53.6000 632.0000 1.0000
53.6100 651.0000 1.0000
53.6200 700.0000 1.0000
53.6300 641.0000 1.0000
53.6400 643.0000 1.0000
53.6500 668.0000 1.0000
53.6600 666.0000 1.0000
53.6700 658.0000 1.0000
53.6800 647.0000 1.0000
53.6900 700.0000 1.0000
53.7000 674.0000 1.0000
53.7100 639.0000 1.0000
53.7200 629.0000 1.0000
53.7300 626.0000 1.0000
53.7400 626.0000 1.0000
53.7500 621.0000 1.0000
53.7600 654.0000 1.0000
53.7700 652.0000 1.0000
53.7800 648.0000 1.0000
53.7900 664.0000 1.0000
53.8000 624.0000 1.0000
53.8100 612.0000 1.0000
53.8200 683.0000 1.0000
53.8300 660.0000 1.0000
53.8400 687.0000 1.0000
53.8500 674.0000 1.0000
53.8600 637.0000 1.0000
53.8700 642.0000 1.0000
53.8800 667.0000 1.0000
53.8900 636.0000 1.0000
53.9000 684.0000 1.0000
53.9100 659.0000 1.0000
53.9200 705.0000 1.0000
53.9300 658.0000 1.0000
53.9400 648.0000 1.0000
53.9500 670.0000 1.0000
53.9600 648.0000 1.0000
53.9700 664.0000 1.0000
53.9800 649.0000 1.0000
53.9900 653.0000 1.0000
54.0000 623.0000 1.0000
54.0100 671.0000 1.0000
54.0200 625.0000 1.0000
54.0300 646.0000 1.0000
54.0400 649.0000 1.0000
54.0500 643.0000 1.0000
54.0600 615.0000 1.0000
54.0700 652.0000 1.0000
54.0800 659.0000 1.0000
54.0900 688.0000 1.0000
54.1000 659.0000 1.0000
54.1100 625.0000 1.0000
54.1200 626.0000 1.0000
54.1300 676.0000 1.0000
54.1400 665.0000 1.0000
54.1500 657.0000 1.0000
54.1600 663.0000 1.0000
54.1700 625.0000 1.0000
54.1800 625.0000 1.0000
54.1900 655.0000 1.0000
54.2000 641.0000 1.0000
54.2100 688.0000 1.0000
54.2200 672.0000 1.0000
54.2300 656.0000 1.0000
54.2400 662.0000 1.0000
54.2500 645.0000 1.0000
54.2600 680.0000 1.0000
54.2700 638.0000 1.0000
54.2800 609.0000 1.0000
54.2900 643.0000 1.0000
54.3000 662.0000 1.0000
54.3100 635.0000 1.0000
54.3200 687.0000 1.0000
54.3300 610.0000 1.0000
54.3400 633.0000 1.0000
54.3500 655.0000 1.0000
54.3600 687.0000 1.0000
54.3700 638.0000 1.0000
54.3800 675.0000 1.0000
54.3900 658.0000 1.0000
54.4000 656.0000 1.0000
54.4100 623.0000 1.0000
54.4200 659.0000 1.0000
54.4300 653.0000 1.0000
54.4400 688.0000 1.0000
54.4500 667.0000 1.0000
54.4600 656.0000 1.0000
54.4700 645.0000 1.0000
54.4800 662.0000 1.0000
54.4900 688.0000 1.0000
54.5000 668.0000 1.0000
54.5100 631.0000 1.0000
54.5200 673.0000 1.0000
54.5300 633.0000 1.0000
54.5400 678.0000 1.0000
54.5500 668.0000 1.0000
54.5600 648.0000 1.0000
54.5700 661.0000 1.0000
54.5800 645.0000 1.0000
54.5900 650.0000 1.0000
54.6000 649.0000 1.0000
54.6100 667.0000 1.0000
54.6200 653.0000 1.0000
54.6300 623.0000 1.0000
54.6400 679.0000 1.0000
54.6500 660.0000 1.0000
54.6600 650.0000 1.0000
54.6700 661.0000 1.0000
54.6800 626.0000 1.0000
54.6900 667.0000 1.0000
54.7000 637.0000 1.0000
54.7100 683.0000 1.0000
54.7200 708.0000 1.0000
54.7300 722.0000 1.0000
54.7400 726.0000 1.0000
54.7500 717.0000 1.0000
54.7600 697.0000 1.0000
54.7700 640.0000 1.0000
54.7800 670.0000 1.0000
54.7900 658.0000 1.0000
54.8000 696.0000 1.0000
54.8100 706.0000 1.0000
54.8200 728.0000 1.0000
54.8300 721.0000 1.0000
54.8400 745.0000 1.0000
54.8500 683.0000 1.0000
54.8600 722.0000 1.0000
54.8700 737.0000 1.0000
54.8800 690.0000 1.0000
54.8900 755.0000 1.0000
54.9000 733.0000 1.0000
54.9100 742.0000 1.0000
54.9200 736.0000 1.0000
54.9300 718.0000 1.0000
54.9400 738.0000 1.0000
54.9500 711.0000 1.0000
54.9600 719.0000 1.0000
54.9700 715.0000 1.0000
54.9800 696.0000 1.0000
54.9900 745.0000 1.0000
55.0000 758.0000 1.0000
55.0100 776.0000 1.0000
55.0200 800.0000 1.0000
55.0300 776.0000 1.0000
55.0400 791.0000 1.0000
55.0500 760.0000 1.0000
55.0600 764.0000 1.0000
55.0700 816.0000 1.0000
55.0800 814.0000 1.0000
55.0900 808.0000 1.0000
55.1000 818.0000 1.0000
55.1100 852.0000 1.0000
55.1200 796.0000 1.0000
55.1300 845.0000 1.0000
55.1400 882.0000 1.0000
55.1500 920.0000 1.0000
55.1600 935.0000 1.0000
55.1700 947.0000 1.0000
55.1800 970.0000 1.0000
55.1900 965.0000 1.0000
55.2000 951.0000 1.0000
55.2100 1048.0000 1.0000
55.2200 1021.0000 1.0000
55.2300 1078.0000 1.0000
55.2400 1054.0000 1.0000
55.2500 1082.0000 1.0000
55.2600 1046.0000 1.0000
55.2700 1017.0000 1.0000
55.2800 1043.0000 1.0000
55.2900 1060.0000 1.0000
55.3000 1026.0000 1.0000
55.3100 960.0000 1.0000
55.3200 1039.0000 1.0000
55.3300 1037.0000 1.0000
55.3400 995.0000 1.0000
55.3500 1006.0000 1.0000
55.3600 933.0000 1.0000
55.3700 949.0000 1.0000
55.3800 981.0000 1.0000
55.3900 969.0000 1.0000
55.4000 955.0000 1.0000
55.4100 883.0000 1.0000
55.4200 885.0000 1.0000
55.4300 899.0000 1.0000
55.4400 899.0000 1.0000
55.4500 894.0000 1.0000
55.4600 850.0000 1.0000
55.4700 842.0000 1.0000
55.4800 876.0000 1.0000
55.4900 823.0000 1.0000
55.5000 795.0000 1.0000
55.5100 787.0000 1.0000
55.5200 750.0000 1.0000
55.5300 774.0000 1.0000
55.5400 755.0000 1.0000
55.5500 797.0000 1.0000
55.5600 773.0000 1.0000
55.5700 735.0000 1.0000
55.5800 743.0000 1.0000
55.5900 735.0000 1.0000
55.6000 718.0000 1.0000
55.6100 726.0000 1.0000
55.6200 711.0000 1.0000
55.6300 719.0000 1.0000
55.6400 673.0000 1.0000
55.6500 680.0000 1.0000
55.6600 705.0000 1.0000
55.6700 693.0000 1.0000
55.6800 690.0000 1.0000
55.6900 697.0000 1.0000
55.7000 697.0000 1.0000
55.7100 670.0000 1.0000
55.7200 672.0000 1.0000
55.7300 689.0000 1.0000
55.7400 665.0000 1.0000
55.7500 653.0000 1.0000
55.7600 665.0000 1.0000
55.7700 669.0000 1.0000
55.7800 639.0000 1.0000
55.7900 639.0000 1.0000
55.8000 632.0000 1.0000
55.8100 673.0000 1.0000
55.8200 718.0000 1.0000
55.8300 663.0000 1.0000
55.8400 660.0000 1.0000
55.8500 651.0000 1.0000
55.8600 649.0000 1.0000
55.8700 641.0000 1.0000
55.8800 631.0000 1.0000
55.8900 646.0000 1.0000
55.9000 645.0000 1.0000
55.9100 675.0000 1.0000
55.9200 643.0000 1.0000
55.9300 646.0000 1.0000
55.9400 660.0000 1.0000
55.9500 665.0000 1.0000
55.9600 609.0000 1.0000
55.9700 676.0000 1.0000
55.9800 633.0000 1.0000
55.9900 671.0000 1.0000
56.0000 620.0000 1.0000
56.0100 639.0000 1.0000
56.0200 672.0000 1.0000
56.0300 619.0000 1.0000
56.0400 645.0000 1.0000
56.0500 705.0000 1.0000
56.0600 633.0000 1.0000
56.0700 626.0000 1.0000
56.0800 649.0000 1.0000
56.0900 635.0000 1.0000
56.1000 651.0000 1.0000
56.1100 582.0000 1.0000
56.1200 638.0000 1.0000
56.1300 624.0000 1.0000
56.1400 577.0000 1.0000
56.1500 642.0000 1.0000
56.1600 646.0000 1.0000
56.1700 691.0000 1.0000
56.1800 685.0000 1.0000
56.1900 656.0000 1.0000
56.2000 646.0000 1.0000
56.2100 641.0000 1.0000
56.2200 614.0000 1.0000
56.2300 635.0000 1.0000
56.2400 633.0000 1.0000
56.2500 625.0000 1.0000
56.2600 655.0000 1.0000
56.2700 590.0000 1.0000
56.2800 608.0000 1.0000
56.2900 617.0000 1.0000
56.3000 629.0000 1.0000
56.3100 628.0000 1.0000
56.3200 621.0000 1.0000
56.3300 618.0000 1.0000
56.3400 641.0000 1.0000
56.3500 665.0000 1.0000
56.3600 634.0000 1.0000
56.3700 619.0000 1.0000
56.3800 626.0000 1.0000
56.3900 650.0000 1.0000
56.4000 617.0000 1.0000
56.4100 610.0000 1.0000
56.4200 601.0000 1.0000
56.4300 619.0000 1.0000
56.4400 625.0000 1.0000
56.4500 626.0000 1.0000
56.4600 601.0000 1.0000
56.4700 646.0000 1.0000
56.4800 640.0000 1.0000
56.4900 638.0000 1.0000
56.5000 628.0000 1.0000
56.5100 614.0000 1.0000
56.5200 661.0000 1.0000
56.5300 631.0000 1.0000
56.5400 635.0000 1.0000
56.5500 621.0000 1.0000
56.5600 625.0000 1.0000
56.5700 626.0000 1.0000
56.5800 620.0000 1.0000
56.5900 634.0000 1.0000
56.6000 605.0000 1.0000
56.6100 648.0000 1.0000
56.6200 638.0000 1.0000
56.6300 622.0000 1.0000
56.6400 603.0000 1.0000
56.6500 643.0000 1.0000
56.6600 625.0000 1.0000
56.6700 648.0000 1.0000
56.6800 610.0000 1.0000
56.6900 640.0000 1.0000
56.7000 638.0000 1.0000
56.7100 627.0000 1.0000
56.7200 646.0000 1.0000
56.7300 641.0000 1.0000
56.7400 612.0000 1.0000
56.7500 631.0000 1.0000
56.7600 629.0000 1.0000
56.7700 641.0000 1.0000
56.7800 643.0000 1.0000
56.7900 656.0000 1.0000
56.8000 634.0000 1.0000
56.8100 626.0000 1.0000
56.8200 608.0000 1.0000
56.8300 617.0000 1.0000
56.8400 641.0000 1.0000
56.8500 636.0000 1.0000
56.8600 586.0000 1.0000
56.8700 616.0000 1.0000
56.8800 635.0000 1.0000
56.8900 631.0000 1.0000
56.9000 623.0000 1.0000
56.9100 627.0000 1.0000
56.9200 630.0000 1.0000
56.9300 625.0000 1.0000
56.9400 651.0000 1.0000
56.9500 614.0000 1.0000
56.9600 631.0000 1.0000
56.9700 644.0000 1.0000
56.9800 599.0000 1.0000
56.9900 607.0000 1.0000
57.0000 619.0000 1.0000
57.0100 624.0000 1.0000
57.0200 631.0000 1.0000
57.0300 633.0000 1.0000
57.0400 647.0000 1.0000
57.0500 607.0000 1.0000
57.0600 614.0000 1.0000
57.0700 654.0000 1.0000
57.0800 671.0000 1.0000
57.0900 641.0000 1.0000
57.1000 625.0000 1.0000
57.1100 637.0000 1.0000
57.1200 599.0000 1.0000
57.1300 697.0000 1.0000
57.1400 679.0000 1.0000
57.1500 632.0000 1.0000
57.1600 597.0000 1.0000
57.1700 629.0000 1.0000
57.1800 589.0000 1.0000
57.1900 606.0000 1.0000
57.2000 612.0000 1.0000
57.2100 620.0000 1.0000
57.2200 614.0000 1.0000
57.2300 634.0000 1.0000
57.2400 642.0000 1.0000
57.2500 624.0000 1.0000
57.2600 648.0000 1.0000
57.2700 619.0000 1.0000
57.2800 598.0000 1.0000
57.2900 633.0000 1.0000
57.3000 594.0000 1.0000
57.3100 599.0000 1.0000
57.3200 601.0000 1.0000
57.3300 601.0000 1.0000
57.3400 613.0000 1.0000
57.3500 634.0000 1.0000
57.3600 614.0000 1.0000
57.3700 632.0000 1.0000
57.3800 624.0000 1.0000
57.3900 646.0000 1.0000
57.4000 625.0000 1.0000
57.4100 608.0000 1.0000
57.4200 634.0000 1.0000
57.4300 633.0000 1.0000
57.4400 618.0000 1.0000
57.4500 596.0000 1.0000
57.4600 662.0000 1.0000
57.4700 653.0000 1.0000
57.4800 615.0000 1.0000
57.4900 611.0000 1.0000
57.5000 577.0000 1.0000
57.5100 616.0000 1.0000
57.5200 629.0000 1.0000
57.5300 641.0000 1.0000
57.5400 613.0000 1.0000
57.5500 603.0000 1.0000
57.5600 632.0000 1.0000
57.5700 635.0000 1.0000
57.5800 668.0000 1.0000
57.5900 639.0000 1.0000
57.6000 636.0000 1.0000
57.6100 605.0000 1.0000
57.6200 648.0000 1.0000
57.6300 641.0000 1.0000
57.6400 606.0000 1.0000
57.6500 624.0000 1.0000
57.6600 634.0000 1.0000
57.6700 691.0000 1.0000
57.6800 653.0000 1.0000
57.6900 635.0000 1.0000
57.7000 609.0000 1.0000
57.7100 625.0000 1.0000
57.7200 631.0000 1.0000
57.7300 623.0000 1.0000
57.7400 667.0000 1.0000
57.7500 673.0000 1.0000
57.7600 609.0000 1.0000
57.7700 566.0000 1.0000
57.7800 623.0000 1.0000
57.7900 606.0000 1.0000
57.8000 621.0000 1.0000
57.8100 623.0000 1.0000
57.8200 623.0000 1.0000
57.8300 641.0000 1.0000
57.8400 629.0000 1.0000
57.8500 677.0000 1.0000
57.8600 652.0000 1.0000
57.8700 597.0000 1.0000
57.8800 601.0000 1.0000
57.8900 591.0000 1.0000
57.9000 628.0000 1.0000
57.9100 617.0000 1.0000
57.9200 593.0000 1.0000
57.9300 620.0000 1.0000
57.9400 613.0000 1.0000
57.9500 630.0000 1.0000
57.9600 606.0000 1.0000
57.9700 597.0000 1.0000
57.9800 610.0000 1.0000
57.9900 624.0000 1.0000
58.0000 669.0000 1.0000
58.0100 608.0000 1.0000
58.0200 612.0000 1.0000
58.0300 612.0000 1.0000
58.0400 626.0000 1.0000
58.0500 598.0000 1.0000
58.0600 581.0000 1.0000
58.0700 613.0000 1.0000
58.0800 666.0000 1.0000
58.0900 617.0000 1.0000
58.1000 638.0000 1.0000
58.1100 635.0000 1.0000
58.1200 581.0000 1.0000
58.1300 614.0000 1.0000
58.1400 618.0000 1.0000
58.1500 654.0000 1.0000
58.1600 617.0000 1.0000
58.1700 606.0000 1.0000
58.1800 623.0000 1.0000
58.1900 632.0000 1.0000
58.2000 633.0000 1.0000
58.2100 637.0000 1.0000
58.2200 632.0000 1.0000
58.2300 597.0000 1.0000
58.2400 653.0000 1.0000
58.2500 645.0000 1.0000
58.2600 664.0000 1.0000
58.2700 553.0000 1.0000
58.2800 654.0000 1.0000
58.2900 628.0000 1.0000
58.3000 666.0000 1.0000
58.3100 638.0000 1.0000
58.3200 612.0000 1.0000
58.3300 672.0000 1.0000
58.3400 602.0000 1.0000
58.3500 646.0000 1.0000
58.3600 638.0000 1.0000
58.3700 664.0000 1.0000
58.3800 602.0000 1.0000
58.3900 611.0000 1.0000
58.4000 664.0000 1.0000
58.4100 621.0000 1.0000
58.4200 601.0000 1.0000
58.4300 646.0000 1.0000
58.4400 630.0000 1.0000
58.4500 659.0000 1.0000
58.4600 628.0000 1.0000
58.4700 653.0000 1.0000
58.4800 603.0000 1.0000
58.4900 676.0000 1.0000
58.5000 663.0000 1.0000
58.5100 606.0000 1.0000
58.5200 624.0000 1.0000
58.5300 638.0000 1.0000
58.5400 650.0000 1.0000
58.5500 643.0000 1.0000
58.5600 630.0000 1.0000
58.5700 615.0000 1.0000
58.5800 609.0000 1.0000
58.5900 618.0000 1.0000
58.6000 640.0000 1.0000
58.6100 636.0000 1.0000
58.6200 599.0000 1.0000
58.6300 610.0000 1.0000
58.6400 574.0000 1.0000
58.6500 628.0000 1.0000
58.6600 620.0000 1.0000
58.6700 636.0000 1.0000
58.6800 591.0000 1.0000
58.6900 635.0000 1.0000
58.7000 679.0000 1.0000
58.7100 659.0000 1.0000
58.7200 623.0000 1.0000
58.7300 619.0000 1.0000
58.7400 591.0000 1.0000
58.7500 614.0000 1.0000
58.7600 642.0000 1.0000
58.7700 637.0000 1.0000
58.7800 613.0000 1.0000
58.7900 629.0000 1.0000
58.8000 600.0000 1.0000
58.8100 636.0000 1.0000
58.8200 616.0000 1.0000
58.8300 620.0000 1.0000
58.8400 673.0000 1.0000
58.8500 632.0000 1.0000
58.8600 624.0000 1.0000
58.8700 607.0000 1.0000
58.8800 578.0000 1.0000
58.8900 619.0000 1.0000
58.9000 623.0000 1.0000
58.9100 599.0000 1.0000
58.9200 643.0000 1.0000
58.9300 619.0000 1.0000
58.9400 633.0000 1.0000
58.9500 574.0000 1.0000
58.9600 606.0000 1.0000
58.9700 591.0000 1.0000
58.9800 633.0000 1.0000
58.9900 622.0000 1.0000
59.0000 635.0000 1.0000
59.0100 584.0000 1.0000
59.0200 622.0000 1.0000
59.0300 608.0000 1.0000
59.0400 598.0000 1.0000
59.0500 609.0000 1.0000
59.0600 626.0000 1.0000
59.0700 652.0000 1.0000
59.0800 663.0000 1.0000
59.0900 627.0000 1.0000
59.1000 622.0000 1.0000
59.1100 609.0000 1.0000
59.1200 605.0000 1.0000
59.1300 631.0000 1.0000
59.1400 606.0000 1.0000
59.1500 617.0000 1.0000
59.1600 614.0000 1.0000
59.1700 616.0000 1.0000
59.1800 612.0000 1.0000
59.1900 638.0000 1.0000
59.2000 617.0000 1.0000
59.2100 647.0000 1.0000
59.2200 633.0000 1.0000
59.2300 598.0000 1.0000
59.2400 627.0000 1.0000
59.2500 622.0000 1.0000
59.2600 618.0000 1.0000
59.2700 627.0000 1.0000
59.2800 639.0000 1.0000
59.2900 603.0000 1.0000
59.3000 610.0000 1.0000
59.3100 644.0000 1.0000
59.3200 601.0000 1.0000
59.3300 623.0000 1.0000
59.3400 660.0000 1.0000
59.3500 650.0000 1.0000
59.3600 680.0000 1.0000
59.3700 646.0000 1.0000
59.3800 628.0000 1.0000
59.3900 598.0000 1.0000
59.4000 628.0000 1.0000
59.4100 678.0000 1.0000
59.4200 624.0000 1.0000
59.4300 654.0000 1.0000
59.4400 592.0000 1.0000
59.4500 605.0000 1.0000
59.4600 625.0000 1.0000
59.4700 674.0000 1.0000
59.4800 612.0000 1.0000
59.4900 626.0000 1.0000
59.5000 592.0000 1.0000
59.5100 582.0000 1.0000
59.5200 657.0000 1.0000
59.5300 612.0000 1.0000
59.5400 638.0000 1.0000
59.5500 614.0000 1.0000
59.5600 645.0000 1.0000
59.5700 619.0000 1.0000
59.5800 639.0000 1.0000
59.5900 642.0000 1.0000
59.6000 634.0000 1.0000
59.6100 624.0000 1.0000
59.6200 651.0000 1.0000
59.6300 601.0000 1.0000
59.6400 605.0000 1.0000
59.6500 600.0000 1.0000
59.6600 608.0000 1.0000
59.6700 632.0000 1.0000
59.6800 646.0000 1.0000
59.6900 606.0000 1.0000
59.7000 555.0000 1.0000
59.7100 600.0000 1.0000
59.7200 625.0000 1.0000
59.7300 593.0000 1.0000
59.7400 580.0000 1.0000
59.7500 588.0000 1.0000
59.7600 635.0000 1.0000
59.7700 610.0000 1.0000
59.7800 570.0000 1.0000
59.7900 624.0000 1.0000
59.8000 621.0000 1.0000
59.8100 607.0000 1.0000
59.8200 641.0000 1.0000
59.8300 625.0000 1.0000
59.8400 616.0000 1.0000
59.8500 611.0000 1.0000
59.8600 624.0000 1.0000
59.8700 607.0000 1.0000
59.8800 625.0000 1.0000
59.8900 630.0000 1.0000
59.9000 632.0000 1.0000
59.9100 620.0000 1.0000
59.9200 604.0000 1.0000
59.9300 643.0000 1.0000
59.9400 639.0000 1.0000
59.9500 600.0000 1.0000
59.9600 626.0000 1.0000
59.9700 658.0000 1.0000
59.9800 588.0000 1.0000
59.9900 611.0000 1.0000
60.0000 622.0000 1.0000
60.0100 658.0000 1.0000
60.0200 645.0000 1.0000
60.0300 629.0000 1.0000
60.0400 618.0000 1.0000
60.0500 598.0000 1.0000
60.0600 634.0000 1.0000
60.0700 621.0000 1.0000
60.0800 623.0000 1.0000
60.0900 661.0000 1.0000
60.1000 614.0000 1.0000
60.1100 616.0000 1.0000
60.1200 626.0000 1.0000
60.1300 602.0000 1.0000
60.1400 592.0000 1.0000
60.1500 596.0000 1.0000
60.1600 601.0000 1.0000
60.1700 631.0000 1.0000
60.1800 627.0000 1.0000
60.1900 657.0000 1.0000
60.2000 595.0000 1.0000
60.2100 612.0000 1.0000
60.2200 634.0000 1.0000
60.2300 634.0000 1.0000
60.2400 651.0000 1.0000
60.2500 633.0000 1.0000
60.2600 646.0000 1.0000
60.2700 638.0000 1.0000
60.2800 634.0000 1.0000
60.2900 624.0000 1.0000
60.3000 564.0000 1.0000
60.3100 656.0000 1.0000
60.3200 677.0000 1.0000
60.3300 617.0000 1.0000
60.3400 629.0000 1.0000
60.3500 630.0000 1.0000
60.3600 616.0000 1.0000
60.3700 650.0000 1.0000
60.3800 620.0000 1.0000
60.3900 628.0000 1.0000
60.4000 598.0000 1.0000
60.4100 619.0000 1.0000
60.4200 600.0000 1.0000
60.4300 604.0000 1.0000
60.4400 619.0000 1.0000
60.4500 614.0000 1.0000
60.4600 640.0000 1.0000
60.4700 653.0000 1.0000
60.4800 636.0000 1.0000
60.4900 666.0000 1.0000
60.5000 593.0000 1.0000
60.5100 638.0000 1.0000
60.5200 625.0000 1.0000
60.5300 615.0000 1.0000
60.5400 604.0000 1.0000
60.5500 590.0000 1.0000
60.5600 573.0000 1.0000
60.5700 605.0000 1.0000
60.5800 634.0000 1.0000
60.5900 648.0000 1.0000
60.6000 618.0000 1.0000
60.6100 596.0000 1.0000
60.6200 631.0000 1.0000
60.6300 615.0000 1.0000
60.6400 638.0000 1.0000
60.6500 655.0000 1.0000
60.6600 615.0000 1.0000
60.6700 609.0000 1.0000
60.6800 629.0000 1.0000
60.6900 622.0000 1.0000
60.7000 659.0000 1.0000
60.7100 628.0000 1.0000
60.7200 644.0000 1.0000
60.7300 651.0000 1.0000
60.7400 643.0000 1.0000
60.7500 643.0000 1.0000
60.7600 617.0000 1.0000
60.7700 599.0000 1.0000
60.7800 623.0000 1.0000
60.7900 675.0000 1.0000
60.8000 613.0000 1.0000
60.8100 625.0000 1.0000
60.8200 629.0000 1.0000
60.8300 593.0000 1.0000
60.8400 630.0000 1.0000
60.8500 612.0000 1.0000
60.8600 593.0000 1.0000
60.8700 619.0000 1.0000
60.8800 632.0000 1.0000
60.8900 646.0000 1.0000
60.9000 663.0000 1.0000
60.9100 686.0000 1.0000
60.9200 654.0000 1.0000
60.9300 616.0000 1.0000
60.9400 621.0000 1.0000
60.9500 664.0000 1.0000
60.9600 644.0000 1.0000
60.9700 650.0000 1.0000
60.9800 637.0000 1.0000
60.9900 604.0000 1.0000
61.0000 630.0000 1.0000
61.0100 583.0000 1.0000
61.0200 607.0000 1.0000
61.0300 615.0000 1.0000
61.0400 646.0000 1.0000
61.0500 655.0000 1.0000
61.0600 615.0000 1.0000
61.0700 602.0000 1.0000
61.0800 626.0000 1.0000
61.0900 585.0000 1.0000
61.1000 618.0000 1.0000
61.1100 653.0000 1.0000
61.1200 621.0000 1.0000
61.1300 626.0000 1.0000
61.1400 649.0000 1.0000
61.1500 652.0000 1.0000
61.1600 644.0000 1.0000
61.1700 650.0000 1.0000
61.1800 650.0000 1.0000
61.1900 658.0000 1.0000
61.2000 611.0000 1.0000
61.2100 628.0000 1.0000
61.2200 654.0000 1.0000
61.2300 637.0000 1.0000
61.2400 611.0000 1.0000
61.2500 656.0000 1.0000
61.2600 636.0000 1.0000
61.2700 642.0000 1.0000
61.2800 660.0000 1.0000
61.2900 638.0000 1.0000
61.3000 663.0000 1.0000
61.3100 622.0000 1.0000
61.3200 621.0000 1.0000
61.3300 610.0000 1.0000
61.3400 683.0000 1.0000
61.3500 623.0000 1.0000
61.3600 625.0000 1.0000
61.3700 653.0000 1.0000
61.3800 654.0000 1.0000
61.3900 638.0000 1.0000
61.4000 603.0000 1.0000
61.4100 608.0000 1.0000
61.4200 644.0000 1.0000
61.4300 647.0000 1.0000
61.4400 669.0000 1.0000
61.4500 640.0000 1.0000
61.4600 680.0000 1.0000
61.4700 669.0000 1.0000
61.4800 600.0000 1.0000
61.4900 648.0000 1.0000
61.5000 622.0000 1.0000
61.5100 642.0000 1.0000
61.5200 652.0000 1.0000
61.5300 645.0000 1.0000
61.5400 689.0000 1.0000
61.5500 666.0000 1.0000
61.5600 633.0000 1.0000
61.5700 649.0000 1.0000
61.5800 606.0000 1.0000
61.5900 665.0000 1.0000
61.6000 661.0000 1.0000
61.6100 667.0000 1.0000
61.6200 712.0000 1.0000
61.6300 635.0000 1.0000
61.6400 648.0000 1.0000
61.6500 689.0000 1.0000
61.6600 672.0000 1.0000
61.6700 706.0000 1.0000
61.6800 701.0000 1.0000
61.6900 686.0000 1.0000
61.7000 687.0000 1.0000
61.7100 652.0000 1.0000
61.7200 652.0000 1.0000
61.7300 659.0000 1.0000
61.7400 650.0000 1.0000
61.7500 682.0000 1.0000
61.7600 675.0000 1.0000
61.7700 694.0000 1.0000
61.7800 686.0000 1.0000
61.7900 665.0000 1.0000
61.8000 719.0000 1.0000
61.8100 736.0000 1.0000
61.8200 759.0000 1.0000
61.8300 710.0000 1.0000
61.8400 728.0000 1.0000
61.8500 735.0000 1.0000
61.8600 736.0000 1.0000
61.8700 713.0000 1.0000
61.8800 753.0000 1.0000
61.8900 766.0000 1.0000
61.9000 792.0000 1.0000
61.9100 800.0000 1.0000
61.9200 796.0000 1.0000
61.9300 864.0000 1.0000
61.9400 784.0000 1.0000
61.9500 831.0000 1.0000
61.9600 799.0000 1.0000
61.9700 844.0000 1.0000
61.9800 858.0000 1.0000
61.9900 864.0000 1.0000
62.0000 915.0000 1.0000
62.0100 912.0000 1.0000
62.0200 954.0000 1.0000
62.0300 966.0000 1.0000
62.0400 932.0000 1.0000
62.0500 968.0000 1.0000
62.0600 1030.0000 1.0000
62.0700 1084.0000 1.0000
62.0800 1096.0000 1.0000
62.0900 1072.0000 1.0000
62.1000 1185.0000 1.0000
62.1100 1174.0000 1.0000
62.1200 1200.0000 1.0000
62.1300 1219.0000 1.0000
62.1400 1312.0000 1.0000
62.1500 1378.0000 1.0000
62.1600 1444.0000 1.0000
62.1700 1426.0000 1.0000
62.1800 1474.0000 1.0000
62.1900 1489.0000 1.0000
62.2000 1486.0000 1.0000
62.2100 1593.0000 1.0000
62.2200 1597.0000 1.0000
62.2300 1533.0000 1.0000
62.2400 1571.0000 1.0000
62.2500 1610.0000 1.0000
62.2600 1582.0000 1.0000
62.2700 1636.0000 1.0000
62.2800 1585.0000 1.0000
62.2900 1669.0000 1.0000
62.3000 1624.0000 1.0000
62.3100 1601.0000 1.0000
62.3200 1566.0000 1.0000
62.3300 1608.0000 1.0000
62.3400 1598.0000 1.0000
62.3500 1559.0000 1.0000
62.3600 1515.0000 1.0000
62.3700 1489.0000 1.0000
62.3800 1493.0000 1.0000
62.3900 1491.0000 1.0000
62.4000 1448.0000 1.0000
62.4100 1365.0000 1.0000
62.4200 1431.0000 1.0000
62.4300 1403.0000 1.0000
62.4400 1329.0000 1.0000
62.4500 1310.0000 1.0000
62.4600 1272.0000 1.0000
62.4700 1298.0000 1.0000
62.4800 1242.0000 1.0000
62.4900 1201.0000 1.0000
62.5000 1163.0000 1.0000
62.5100 1211.0000 1.0000
62.5200 1130.0000 1.0000
62.5300 1076.0000 1.0000
62.5400 1135.0000 1.0000
62.5500 1090.0000 1.0000
62.5600 1076.0000 1.0000
62.5700 1020.0000 1.0000
62.5800 1011.0000 1.0000
62.5900 940.0000 1.0000
62.6000 923.0000 1.0000
62.6100 907.0000 1.0000
62.6200 899.0000 1.0000
62.6300 952.0000 1.0000
62.6400 893.0000 1.0000
62.6500 871.0000 1.0000
62.6600 839.0000 1.0000
62.6700 844.0000 1.0000
62.6800 838.0000 1.0000
62.6900 838.0000 1.0000
62.7000 837.0000 1.0000
62.7100 819.0000 1.0000
62.7200 787.0000 1.0000
62.7300 825.0000 1.0000
62.7400 827.0000 1.0000
62.7500 795.0000 1.0000
62.7600 789.0000 1.0000
62.7700 756.0000 1.0000
62.7800 745.0000 1.0000
62.7900 745.0000 1.0000
62.8000 719.0000 1.0000
62.8100 750.0000 1.0000
62.8200 737.0000 1.0000
62.8300 756.0000 1.0000
62.8400 698.0000 1.0000
62.8500 770.0000 1.0000
62.8600 718.0000 1.0000
62.8700 711.0000 1.0000
62.8800 672.0000 1.0000
62.8900 638.0000 1.0000
62.9000 718.0000 1.0000
62.9100 729.0000 1.0000
62.9200 675.0000 1.0000
62.9300 699.0000 1.0000
62.9400 685.0000 1.0000
62.9500 706.0000 1.0000
62.9600 711.0000 1.0000
62.9700 740.0000 1.0000
62.9800 702.0000 1.0000
62.9900 673.0000 1.0000
63.0000 736.0000 1.0000
63.0100 695.0000 1.0000
63.0200 649.0000 1.0000
63.0300 682.0000 1.0000
63.0400 715.0000 1.0000
63.0500 704.0000 1.0000
63.0600 660.0000 1.0000
63.0700 654.0000 1.0000
63.0800 677.0000 1.0000
63.0900 657.0000 1.0000
63.1000 677.0000 1.0000
63.1100 689.0000 1.0000
63.1200 660.0000 1.0000
63.1300 650.0000 1.0000
63.1400 713.0000 1.0000
63.1500 715.0000 1.0000
63.1600 696.0000 1.0000
63.1700 657.0000 1.0000
63.1800 655.0000 1.0000
63.1900 621.0000 1.0000
63.2000 644.0000 1.0000
63.2100 608.0000 1.0000
63.2200 643.0000 1.0000
63.2300 632.0000 1.0000
63.2400 704.0000 1.0000
63.2500 638.0000 1.0000
63.2600 663.0000 1.0000
63.2700 620.0000 1.0000
63.2800 660.0000 1.0000
63.2900 701.0000 1.0000
63.3000 703.0000 1.0000
63.3100 663.0000 1.0000
63.3200 615.0000 1.0000
63.3300 634.0000 1.0000
63.3400 640.0000 1.0000
63.3500 644.0000 1.0000
63.3600 631.0000 1.0000
63.3700 660.0000 1.0000
63.3800 662.0000 1.0000
63.3900 649.0000 1.0000
63.4000 665.0000 1.0000
63.4100 674.0000 1.0000
63.4200 659.0000 1.0000
63.4300 668.0000 1.0000
63.4400 624.0000 1.0000
63.4500 643.0000 1.0000
63.4600 654.0000 1.0000
63.4700 595.0000 1.0000
63.4800 599.0000 1.0000
63.4900 673.0000 1.0000
63.5000 647.0000 1.0000
63.5100 649.0000 1.0000
63.5200 652.0000 1.0000
63.5300 650.0000 1.0000
63.5400 643.0000 1.0000
63.5500 617.0000 1.0000
63.5600 621.0000 1.0000
63.5700 627.0000 1.0000
63.5800 664.0000 1.0000
63.5900 656.0000 1.0000
63.6000 631.0000 1.0000
63.6100 636.0000 1.0000
63.6200 648.0000 1.0000
63.6300 621.0000 1.0000
63.6400 640.0000 1.0000
63.6500 636.0000 1.0000
63.6600 635.0000 1.0000
63.6700 602.0000 1.0000
63.6800 629.0000 1.0000
63.6900 650.0000 1.0000
63.7000 629.0000 1.0000
63.7100 630.0000 1.0000
63.7200 638.0000 1.0000
63.7300 666.0000 1.0000
63.7400 678.0000 1.0000
63.7500 631.0000 1.0000
63.7600 664.0000 1.0000
63.7700 649.0000 1.0000
63.7800 628.0000 1.0000
63.7900 626.0000 1.0000
63.8000 641.0000 1.0000
63.8100 636.0000 1.0000
63.8200 674.0000 1.0000
63.8300 656.0000 1.0000
63.8400 660.0000 1.0000
63.8500 653.0000 1.0000
63.8600 616.0000 1.0000
63.8700 608.0000 1.0000
63.8800 600.0000 1.0000
63.8900 642.0000 1.0000
63.9000 636.0000 1.0000
63.9100 617.0000 1.0000
63.9200 620.0000 1.0000
63.9300 633.0000 1.0000
63.9400 656.0000 1.0000
63.9500 634.0000 1.0000
63.9600 612.0000 1.0000
63.9700 632.0000 1.0000
63.9800 643.0000 1.0000
63.9900 654.0000 1.0000
64.0000 646.0000 1.0000
64.0100 639.0000 1.0000
64.0200 679.0000 1.0000
64.0300 639.0000 1.0000
64.0400 645.0000 1.0000
64.0500 621.0000 1.0000
64.0600 602.0000 1.0000
64.0700 619.0000 1.0000
64.0800 662.0000 1.0000
64.0900 630.0000 1.0000
64.1000 621.0000 1.0000
64.1100 636.0000 1.0000
64.1200 607.0000 1.0000
64.1300 659.0000 1.0000
64.1400 650.0000 1.0000
64.1500 644.0000 1.0000
64.1600 639.0000 1.0000
64.1700 663.0000 1.0000
64.1800 631.0000 1.0000
64.1900 635.0000 1.0000
64.2000 659.0000 1.0000
64.2100 637.0000 1.0000
64.2200 669.0000 1.0000
64.2300 638.0000 1.0000
64.2400 611.0000 1.0000
64.2500 623.0000 1.0000
64.2600 624.0000 1.0000
64.2700 646.0000 1.0000
64.2800 672.0000 1.0000
64.2900 606.0000 1.0000
64.3000 667.0000 1.0000
64.3100 650.0000 1.0000
64.3200 591.0000 1.0000
64.3300 602.0000 1.0000
64.3400 625.0000 1.0000
64.3500 661.0000 1.0000
64.3600 649.0000 1.0000
64.3700 625.0000 1.0000
64.3800 647.0000 1.0000
64.3900 637.0000 1.0000
64.4000 623.0000 1.0000
64.4100 678.0000 1.0000
64.4200 654.0000 1.0000
64.4300 692.0000 1.0000
64.4400 696.0000 1.0000
64.4500 674.0000 1.0000
64.4600 698.0000 1.0000
64.4700 691.0000 1.0000
64.4800 639.0000 1.0000
64.4900 657.0000 1.0000
64.5000 639.0000 1.0000
64.5100 683.0000 1.0000
64.5200 668.0000 1.0000
64.5300 651.0000 1.0000
64.5400 669.0000 1.0000
64.5500 682.0000 1.0000
64.5600 705.0000 1.0000
64.5700 703.0000 1.0000
64.5800 675.0000 1.0000
64.5900 717.0000 1.0000
64.6000 674.0000 1.0000
64.6100 708.0000 1.0000
64.6200 669.0000 1.0000
64.6300 696.0000 1.0000
64.6400 665.0000 1.0000
64.6500 736.0000 1.0000
64.6600 707.0000 1.0000
64.6700 711.0000 1.0000
64.6800 741.0000 1.0000
64.6900 738.0000 1.0000
64.7000 710.0000 1.0000
64.7100 715.0000 1.0000
64.7200 706.0000 1.0000
64.7300 702.0000 1.0000
64.7400 725.0000 1.0000
64.7500 722.0000 1.0000
64.7600 725.0000 1.0000
64.7700 702.0000 1.0000
64.7800 709.0000 1.0000
64.7900 687.0000 1.0000
64.8000 677.0000 1.0000
64.8100 696.0000 1.0000
64.8200 691.0000 1.0000
64.8300 711.0000 1.0000
64.8400 688.0000 1.0000
64.8500 711.0000 1.0000
64.8600 713.0000 1.0000
64.8700 749.0000 1.0000
64.8800 694.0000 1.0000
64.8900 662.0000 1.0000
64.9000 707.0000 1.0000
64.9100 671.0000 1.0000
64.9200 669.0000 1.0000
64.9300 712.0000 1.0000
64.9400 709.0000 1.0000
64.9500 680.0000 1.0000
64.9600 653.0000 1.0000
64.9700 671.0000 1.0000
64.9800 724.0000 1.0000
64.9900 703.0000 1.0000
65.0000 699.0000 1.0000
65.0100 692.0000 1.0000
65.0200 675.0000 1.0000
65.0300 670.0000 1.0000
65.0400 691.0000 1.0000
65.0500 666.0000 1.0000
65.0600 676.0000 1.0000
65.0700 644.0000 1.0000
65.0800 711.0000 1.0000
65.0900 712.0000 1.0000
65.1000 651.0000 1.0000
65.1100 707.0000 1.0000
65.1200 678.0000 1.0000
65.1300 683.0000 1.0000
65.1400 667.0000 1.0000
65.1500 666.0000 1.0000
65.1600 635.0000 1.0000
65.1700 701.0000 1.0000
65.1800 691.0000 1.0000
65.1900 686.0000 1.0000
65.2000 670.0000 1.0000
65.2100 662.0000 1.0000
65.2200 653.0000 1.0000
65.2300 650.0000 1.0000
65.2400 633.0000 1.0000
65.2500 643.0000 1.0000
65.2600 623.0000 1.0000
65.2700 666.0000 1.0000
65.2800 664.0000 1.0000
65.2900 653.0000 1.0000
65.3000 662.0000 1.0000
65.3100 667.0000 1.0000
65.3200 679.0000 1.0000
65.3300 644.0000 1.0000
65.3400 648.0000 1.0000
65.3500 667.0000 1.0000
65.3600 679.0000 1.0000
65.3700 677.0000 1.0000
65.3800 721.0000 1.0000
65.3900 650.0000 1.0000
65.4000 674.0000 1.0000
65.4100 655.0000 1.0000
65.4200 679.0000 1.0000
65.4300 637.0000 1.0000
65.4400 657.0000 1.0000
65.4500 644.0000 1.0000
65.4600 638.0000 1.0000
65.4700 694.0000 1.0000
65.4800 691.0000 1.0000
65.4900 697.0000 1.0000
65.5000 653.0000 1.0000
65.5100 706.0000 1.0000
65.5200 696.0000 1.0000
65.5300 688.0000 1.0000
65.5400 722.0000 1.0000
65.5500 652.0000 1.0000
65.5600 644.0000 1.0000
65.5700 689.0000 1.0000
65.5800 647.0000 1.0000
65.5900 706.0000 1.0000
65.6000 690.0000 1.0000
65.6100 669.0000 1.0000
65.6200 669.0000 1.0000
65.6300 677.0000 1.0000
65.6400 643.0000 1.0000
65.6500 696.0000 1.0000
65.6600 732.0000 1.0000
65.6700 676.0000 1.0000
65.6800 678.0000 1.0000
65.6900 707.0000 1.0000
65.7000 752.0000 1.0000
65.7100 726.0000 1.0000
65.7200 741.0000 1.0000
65.7300 752.0000 1.0000
65.7400 741.0000 1.0000
65.7500 708.0000 1.0000
65.7600 764.0000 1.0000
65.7700 793.0000 1.0000
65.7800 753.0000 1.0000
65.7900 745.0000 1.0000
65.8000 772.0000 1.0000
65.8100 782.0000 1.0000
65.8200 749.0000 1.0000
65.8300 758.0000 1.0000
65.8400 775.0000 1.0000
65.8500 802.0000 1.0000
65.8600 811.0000 1.0000
65.8700 803.0000 1.0000
65.8800 826.0000 1.0000
65.8900 818.0000 1.0000
65.9000 864.0000 1.0000
65.9100 850.0000 1.0000
65.9200 892.0000 1.0000
65.9300 905.0000 1.0000
65.9400 941.0000 1.0000
65.9500 981.0000 1.0000
65.9600 999.0000 1.0000
65.9700 1050.0000 1.0000
65.9800 1003.0000 1.0000
65.9900 1078.0000 1.0000
66.0000 1134.0000 1.0000
66.0100 1182.0000 1.0000
66.0200 1178.0000 1.0000
66.0300 1259.0000 1.0000
66.0400 1329.0000 1.0000
66.0500 1372.0000 1.0000
66.0600 1406.0000 1.0000
66.0700 1419.0000 1.0000
66.0800 1562.0000 1.0000
66.0900 1651.0000 1.0000
66.1000 1791.0000 1.0000
66.1100 1855.0000 1.0000
66.1200 2012.0000 1.0000
66.1300 2110.0000 1.0000
66.1400 2134.0000 1.0000
66.1500 2289.0000 1.0000
66.1600 2380.0000 1.0000
66.1700 2454.0000 1.0000
66.1800 2551.0000 1.0000
66.1900 2639.0000 1.0000
66.2000 2626.0000 1.0000
66.2100 2656.0000 1.0000
66.2200 2612.0000 1.0000
66.2300 2649.0000 1.0000
66.2400 2581.0000 1.0000
66.2500 2635.0000 1.0000
66.2600 2416.0000 1.0000
66.2700 2500.0000 1.0000
66.2800 2470.0000 1.0000
66.2900 2373.0000 1.0000
66.3000 2363.0000 1.0000
66.3100 2269.0000 1.0000
66.3200 2300.0000 1.0000
66.3300 2253.0000 1.0000
66.3400 2211.0000 1.0000
66.3500 2244.0000 1.0000
66.3600 2233.0000 1.0000
66.3700 2158.0000 1.0000
66.3800 2152.0000 1.0000
66.3900 2098.0000 1.0000
66.4000 2035.0000 1.0000
66.4100 1985.0000 1.0000
66.4200 1947.0000 1.0000
66.4300 1908.0000 1.0000
66.4400 1782.0000 1.0000
66.4500 1763.0000 1.0000
66.4600 1634.0000 1.0000
66.4700 1577.0000 1.0000
66.4800 1519.0000 1.0000
66.4900 1530.0000 1.0000
66.5000 1497.0000 1.0000
66.5100 1367.0000 1.0000
66.5200 1309.0000 1.0000
66.5300 1249.0000 1.0000
66.5400 1215.0000 1.0000
66.5500 1202.0000 1.0000
66.5600 1156.0000 1.0000
66.5700 1081.0000 1.0000
66.5800 1126.0000 1.0000
66.5900 981.0000 1.0000
66.6000 1044.0000 1.0000
66.6100 981.0000 1.0000
66.6200 955.0000 1.0000
66.6300 931.0000 1.0000
66.6400 907.0000 1.0000
66.6500 904.0000 1.0000
66.6600 886.0000 1.0000
66.6700 876.0000 1.0000
66.6800 845.0000 1.0000
66.6900 872.0000 1.0000
66.7000 825.0000 1.0000
66.7100 806.0000 1.0000
66.7200 822.0000 1.0000
66.7300 737.0000 1.0000
66.7400 793.0000 1.0000
66.7500 787.0000 1.0000
66.7600 761.0000 1.0000
66.7700 781.0000 1.0000
66.7800 764.0000 1.0000
66.7900 715.0000 1.0000
66.8000 725.0000 1.0000
66.8100 753.0000 1.0000
66.8200 707.0000 1.0000
66.8300 717.0000 1.0000
66.8400 710.0000 1.0000
66.8500 671.0000 1.0000
66.8600 715.0000 1.0000
66.8700 712.0000 1.0000
66.8800 704.0000 1.0000
66.8900 703.0000 1.0000
66.9000 669.0000 1.0000
66.9100 630.0000 1.0000
66.9200 650.0000 1.0000
66.9300 654.0000 1.0000
66.9400 641.0000 1.0000
66.9500 612.0000 1.0000
66.9600 635.0000 1.0000
66.9700 667.0000 1.0000
66.9800 683.0000 1.0000
66.9900 689.0000 1.0000
67.0000 673.0000 1.0000
67.0100 637.0000 1.0000
67.0200 675.0000 1.0000
67.0300 699.0000 1.0000
67.0400 642.0000 1.0000
67.0500 649.0000 1.0000
67.0600 642.0000 1.0000
67.0700 621.0000 1.0000
67.0800 633.0000 1.0000
67.0900 614.0000 1.0000
67.1000 586.0000 1.0000
67.1100 648.0000 1.0000
67.1200 654.0000 1.0000
67.1300 585.0000 1.0000
67.1400 638.0000 1.0000
67.1500 637.0000 1.0000
67.1600 648.0000 1.0000
67.1700 582.0000 1.0000
67.1800 602.0000 1.0000
67.1900 608.0000 1.0000
67.2000 626.0000 1.0000
67.2100 634.0000 1.0000
67.2200 597.0000 1.0000
67.2300 629.0000 1.0000
67.2400 624.0000 1.0000
67.2500 590.0000 1.0000
67.2600 578.0000 1.0000
67.2700 605.0000 1.0000
67.2800 595.0000 1.0000
67.2900 601.0000 1.0000
67.3000 601.0000 1.0000
67.3100 626.0000 1.0000
67.3200 572.0000 1.0000
67.3300 622.0000 1.0000
67.3400 593.0000 1.0000
67.3500 536.0000 1.0000
67.3600 604.0000 1.0000
67.3700 606.0000 1.0000
67.3800 621.0000 1.0000
67.3900 627.0000 1.0000
67.4000 588.0000 1.0000
67.4100 610.0000 1.0000
67.4200 599.0000 1.0000
67.4300 575.0000 1.0000
67.4400 597.0000 1.0000
67.4500 633.0000 1.0000
67.4600 615.0000 1.0000
67.4700 610.0000 1.0000
67.4800 618.0000 1.0000
67.4900 597.0000 1.0000
67.5000 577.0000 1.0000
67.5100 574.0000 1.0000
67.5200 592.0000 1.0000
67.5300 600.0000 1.0000
67.5400 608.0000 1.0000
67.5500 575.0000 1.0000
67.5600 599.0000 1.0000
67.5700 598.0000 1.0000
67.5800 585.0000 1.0000
67.5900 579.0000 1.0000
67.6000 578.0000 1.0000
67.6100 619.0000 1.0000
67.6200 612.0000 1.0000
67.6300 614.0000 1.0000
67.6400 606.0000 1.0000
67.6500 610.0000 1.0000
67.6600 581.0000 1.0000
67.6700 588.0000 1.0000
67.6800 655.0000 1.0000
67.6900 622.0000 1.0000
67.7000 616.0000 1.0000
67.7100 610.0000 1.0000
67.7200 604.0000 1.0000
67.7300 557.0000 1.0000
67.7400 593.0000 1.0000
67.7500 604.0000 1.0000
67.7600 546.0000 1.0000
67.7700 584.0000 1.0000
67.7800 604.0000 1.0000
67.7900 618.0000 1.0000
67.8000 609.0000 1.0000
67.8100 570.0000 1.0000
67.8200 599.0000 1.0000
67.8300 574.0000 1.0000
67.8400 595.0000 1.0000
67.8500 553.0000 1.0000
67.8600 528.0000 1.0000
67.8700 581.0000 1.0000
67.8800 555.0000 1.0000
67.8900 622.0000 1.0000
67.9000 618.0000 1.0000
67.9100 588.0000 1.0000
67.9200 549.0000 1.0000
67.9300 595.0000 1.0000
67.9400 580.0000 1.0000
67.9500 541.0000 1.0000
67.9600 551.0000 1.0000
67.9700 556.0000 1.0000
67.9800 546.0000 1.0000
67.9900 571.0000 1.0000
68.0000 568.0000 1.0000
68.0100 560.0000 1.0000
68.0200 574.0000 1.0000
68.0300 590.0000 1.0000
68.0400 583.0000 1.0000
68.0500 599.0000 1.0000
68.0600 595.0000 1.0000
68.0700 588.0000 1.0000
68.0800 564.0000 1.0000
68.0900 565.0000 1.0000
68.1000 547.0000 1.0000
68.1100 560.0000 1.0000
68.1200 585.0000 1.0000
68.1300 570.0000 1.0000
68.1400 554.0000 1.0000
68.1500 547.0000 1.0000
68.1600 553.0000 1.0000
68.1700 577.0000 1.0000
68.1800 552.0000 1.0000
68.1900 559.0000 1.0000
68.2000 577.0000 1.0000
68.2100 573.0000 1.0000
68.2200 570.0000 1.0000
68.2300 576.0000 1.0000
68.2400 566.0000 1.0000
68.2500 570.0000 1.0000
68.2600 567.0000 1.0000
68.2700 552.0000 1.0000
68.2800 598.0000 1.0000
68.2900 586.0000 1.0000
68.3000 585.0000 1.0000
68.3100 608.0000 1.0000
68.3200 550.0000 1.0000
68.3300 564.0000 1.0000
68.3400 587.0000 1.0000
68.3500 573.0000 1.0000
68.3600 574.0000 1.0000
68.3700 567.0000 1.0000
68.3800 538.0000 1.0000
68.3900 543.0000 1.0000
68.4000 564.0000 1.0000
68.4100 550.0000 1.0000
68.4200 565.0000 1.0000
68.4300 554.0000 1.0000
68.4400 539.0000 1.0000
68.4500 543.0000 1.0000
68.4600 584.0000 1.0000
68.4700 569.0000 1.0000
68.4800 597.0000 1.0000
68.4900 595.0000 1.0000
68.5000 577.0000 1.0000
68.5100 552.0000 1.0000
68.5200 569.0000 1.0000
68.5300 574.0000 1.0000
68.5400 566.0000 1.0000
68.5500 548.0000 1.0000
68.5600 566.0000 1.0000
68.5700 560.0000 1.0000
68.5800 576.0000 1.0000
68.5900 562.0000 1.0000
68.6000 556.0000 1.0000
68.6100 557.0000 1.0000
68.6200 563.0000 1.0000
68.6300 555.0000 1.0000
68.6400 580.0000 1.0000
68.6500 537.0000 1.0000
68.6600 568.0000 1.0000
68.6700 573.0000 1.0000
68.6800 588.0000 1.0000
68.6900 565.0000 1.0000
68.7000 546.0000 1.0000
68.7100 518.0000 1.0000
68.7200 559.0000 1.0000
68.7300 542.0000 1.0000
68.7400 573.0000 1.0000
68.7500 606.0000 1.0000
68.7600 542.0000 1.0000
68.7700 560.0000 1.0000
68.7800 518.0000 1.0000
68.7900 539.0000 1.0000
68.8000 595.0000 1.0000
68.8100 550.0000 1.0000
68.8200 559.0000 1.0000
68.8300 547.0000 1.0000
68.8400 535.0000 1.0000
68.8500 537.0000 1.0000
68.8600 528.0000 1.0000
68.8700 586.0000 1.0000
68.8800 536.0000 1.0000
68.8900 567.0000 1.0000
68.9000 584.0000 1.0000
68.9100 570.0000 1.0000
68.9200 550.0000 1.0000
68.9300 538.0000 1.0000
68.9400 573.0000 1.0000
68.9500 540.0000 1.0000
68.9600 554.0000 1.0000
68.9700 565.0000 1.0000
68.9800 557.0000 1.0000
68.9900 574.0000 1.0000
69.0000 586.0000 1.0000
69.0100 563.0000 1.0000
69.0200 555.0000 1.0000
69.0300 550.0000 1.0000
69.0400 523.0000 1.0000
69.0500 557.0000 1.0000
69.0600 567.0000 1.0000
69.0700 587.0000 1.0000
69.0800 580.0000 1.0000
69.0900 544.0000 1.0000
69.1000 524.0000 1.0000
69.1100 539.0000 1.0000
69.1200 562.0000 1.0000
69.1300 575.0000 1.0000
69.1400 571.0000 1.0000
69.1500 578.0000 1.0000
69.1600 534.0000 1.0000
69.1700 560.0000 1.0000
69.1800 538.0000 1.0000
69.1900 540.0000 1.0000
69.2000 541.0000 1.0000
69.2100 556.0000 1.0000
69.2200 574.0000 1.0000
69.2300 531.0000 1.0000
69.2400 541.0000 1.0000
69.2500 554.0000 1.0000
69.2600 530.0000 1.0000
69.2700 580.0000 1.0000
69.2800 549.0000 1.0000
69.2900 551.0000 1.0000
69.3000 514.0000 1.0000
69.3100 539.0000 1.0000
69.3200 526.0000 1.0000
69.3300 531.0000 1.0000
69.3400 538.0000 1.0000
69.3500 563.0000 1.0000
69.3600 585.0000 1.0000
69.3700 585.0000 1.0000
69.3800 579.0000 1.0000
69.3900 568.0000 1.0000
69.4000 521.0000 1.0000
69.4100 550.0000 1.0000
69.4200 529.0000 1.0000
69.4300 562.0000 1.0000
69.4400 578.0000 1.0000
69.4500 543.0000 1.0000
69.4600 583.0000 1.0000
69.4700 538.0000 1.0000
69.4800 553.0000 1.0000
69.4900 579.0000 1.0000
69.5000 538.0000 1.0000
69.5100 572.0000 1.0000
69.5200 580.0000 1.0000
69.5300 558.0000 1.0000
69.5400 539.0000 1.0000
69.5500 558.0000 1.0000
69.5600 559.0000 1.0000
69.5700 596.0000 1.0000
69.5800 561.0000 1.0000
69.5900 560.0000 1.0000
69.6000 551.0000 1.0000
69.6100 563.0000 1.0000
69.6200 555.0000 1.0000
69.6300 563.0000 1.0000
69.6400 538.0000 1.0000
69.6500 584.0000 1.0000
69.6600 568.0000 1.0000
69.6700 568.0000 1.0000
69.6800 556.0000 1.0000
69.6900 582.0000 1.0000
69.7000 541.0000 1.0000
69.7100 567.0000 1.0000
69.7200 555.0000 1.0000
69.7300 517.0000 1.0000
69.7400 538.0000 1.0000
69.7500 555.0000 1.0000
69.7600 559.0000 1.0000
69.7700 536.0000 1.0000
69.7800 579.0000 1.0000
69.7900 590.0000 1.0000
69.8000 570.0000 1.0000
69.8100 569.0000 1.0000
69.8200 556.0000 1.0000
69.8300 552.0000 1.0000
69.8400 591.0000 1.0000
69.8500 593.0000 1.0000
69.8600 553.0000 1.0000
69.8700 498.0000 1.0000
69.8800 511.0000 1.0000
69.8900 547.0000 1.0000
69.9000 555.0000 1.0000
69.9100 528.0000 1.0000
69.9200 543.0000 1.0000
69.9300 532.0000 1.0000
69.9400 546.0000 1.0000
69.9500 552.0000 1.0000
69.9600 544.0000 1.0000
69.9700 514.0000 1.0000
69.9800 559.0000 1.0000
69.9900 533.0000 1.0000
70.0000 566.0000 1.0000
*RAS_INT_END
*RAS_TEMPERATURE_START
*RAS_TEMPERATURE_END
*RAS_DATA_END
