*RAS_DATA_START
*RAS_HEADER_START
*DISP_FMT_X "%.2f"
*DISP_FMT_Y "%.0f"
*DISP_FULLSCALE "13720.0000000000"
*DISP_LINE_COLOR "255.0000000000"
*DISP_LINE_STYLE "0.0000000000"
*DISP_LINE_WIDTH "0.2500000000"
*DISP_NOTE "測定データ-4"
*DISP_OFFSET_Y "0.0000000000"
*DISP_PEAKSEARCH_UNIT_Y "cps"
*DISP_RANGE_BOTTOM "0.0000000000"
*DISP_RANGE_LEFT "20.0000000000"
*DISP_RANGE_LOGCUTOFF "0.0100000000"
*DISP_RANGE_RIGHT "70.0000000000"
*DISP_RANGE_TOP "13720.0000000000"
*DISP_SCALE_MODE_Y "0.0000000000"
*DISP_TAB_NAME "2θ/θ"
*DISP_TITLE_Y "強度"
*DISP_UNIT_Y "cps"
*DISP_WINDOW_NAME "MSG_MACROENGINE"
*FILE_COMMENT " "
*FILE_MD5 ""
*FILE_MEMO " "
*FILE_OPERATOR "Administrator"
*FILE_SAMPLE " "
*FILE_TYPE "RAS_RAW"
*FILE_USERGROUP "システムマネージャ"
*FILE_VERSION "1.0000000000"
*HW_ATTACHMENT_ID "ATT0025"
*HW_ATTACHMENT_NAME "標準|Standard"
*HW_COUNTER_ID-0 "CUT0025"
*HW_COUNTER_ID-1 "CUT0020"
*HW_COUNTER_ID-2 "CUT0020"
*HW_COUNTER_ID-3 "CSL0021"
*HW_COUNTER_ID-4 "CMC0021"
*HW_COUNTER_NAME-0 "D/teX Ultra|D/teX Ultra"
*HW_COUNTER_NAME-1 "None|None"
*HW_COUNTER_NAME-2 "None|None"
*HW_COUNTER_NAME-3 "BBM|BBM"
*HW_COUNTER_NAME-4 "検出器モノクロメータ|Detector monochromator"
*HW_COUNTER_SELECT_NAME "D/teX Ultra|D/teX Ultra"
*HW_GONIOMETER_ID "GON0023"
*HW_GONIOMETER_NAME "SmartLab|SmartLab"
*HW_GONIOMETER_RADIUS-0 "90.0"
*HW_GONIOMETER_RADIUS-1 "114.0"
*HW_GONIOMETER_RADIUS-2 "190.0"
*HW_GONIOMETER_RADIUS-3 "300.0"
*HW_GONIOMETER_RADIUS-4 "187.0"
*HW_GONIOMETER_RADIUS-5 "300.0"
*HW_GONIOMETER_RADIUS-6 "113.0"
*HW_GONIOMETER_RADIUS-7 "331.0"
*HW_I_OPT_ID-0 "CBO0021"
*HW_I_OPT_ID-1 "ICR0023"
*HW_I_OPT_ID-2 "ISL0021"
*HW_I_OPT_ID-3 "ISO0021"
*HW_I_OPT_ID-4 "IAD0021"
*HW_I_OPT_ID-5 "IPR0001"
*HW_I_OPT_NAME-0 "CBOユニット|CBO unit"
*HW_I_OPT_NAME-1 "標準入射光学ユニット|Standard incident optical unit"
*HW_I_OPT_NAME-2 "標準入射スリットボックス|Standard incident slit box"
*HW_I_OPT_NAME-3 "入射平行スリット|Incident parallel slit"
*HW_I_OPT_NAME-4 "長手制限スリット|Length limiting slit"
*HW_I_OPT_NAME-5 "None|None"
*HW_R_ATTENUATER_AUTOMODE "0"
*HW_R_OPT_ID-0 "RSS0021"
*HW_R_OPT_ID-1 "RCR0023"
*HW_R_OPT_ID-2 "RSO0021"
*HW_R_OPT_ID-3 "RRS0021"
*HW_R_OPT_ID-4 "ATN0021"
*HW_R_OPT_ID-5 "RFL0021"
*HW_R_OPT_ID-6 "RAD0021"
*HW_R_OPT_NAME-0 "標準受光スリットボックス1|Standard receiving slit box # 1"
*HW_R_OPT_NAME-1 "標準受光光学ユニット1|Standard receiving unit # 1"
*HW_R_OPT_NAME-2 "標準受光光学ユニット2|Standard receiving optical unit # 2"
*HW_R_OPT_NAME-3 "標準受光スリットボックス2|Standard receiving slit box # 2"
*HW_R_OPT_NAME-4 "標準アッテネータ|Standard Attenuator"
*HW_R_OPT_NAME-5 "Cu Kβ|Cu K-beta"
*HW_R_OPT_NAME-6 "調整用受光スリット|Alignment receiving slit"
*HW_SAMPLE_HOLDER_ID "SMP0023"
*HW_SAMPLE_HOLDER_NAME "標準Zステージ|Standard Z stage"
*HW_XG_CURRENT_MAX "50"
*HW_XG_CURRENT_MIN "2"
*HW_XG_CURRENT_RESOLUTION "1"
*HW_XG_CURRENT_UNIT "mA"
*HW_XG_FOCUS "1mm x 10mm"
*HW_XG_FOCUS_TYPE "Normal"
*HW_XG_ID ""
*HW_XG_NAME "3kW 封入管(ID:1200)|3kW Sealed tube(ID:1200)"
*HW_XG_TARGET_ATOMIC_NUMBER "29.0000000000"
*HW_XG_TARGET_NAME "Cu"
*HW_XG_TYPE "Hermetic"
*HW_XG_VOLTAGE_MAX "60"
*HW_XG_VOLTAGE_MIN "20"
*HW_XG_VOLTAGE_RESOLUTION "1"
*HW_XG_VOLTAGE_UNIT "kV"
*HW_XG_WATT_MAX "1.500"
*HW_XG_WATT_UNIT "kW"
*HW_XG_WAVE_LENGTH_ALPHA1 "1.540593"
*HW_XG_WAVE_LENGTH_ALPHA2 "1.544414"
*HW_XG_WAVE_LENGTH_BETA "1.392250"
*MEAS_COND_AXIS_NAME-0 "2θ/θ"
*MEAS_COND_AXIS_NAME-1 "2θ"
*MEAS_COND_AXIS_NAME-2 "ω"
*MEAS_COND_AXIS_NAME-3 "Z"
*MEAS_COND_AXIS_NAME-4 "2θ/ω"
*MEAS_COND_AXIS_NAME-5 "θs"
*MEAS_COND_AXIS_NAME-6 "θd"
*MEAS_COND_AXIS_NAME-7 "Ts"
*MEAS_COND_AXIS_NAME-8 "CBO選択スリット"
*MEAS_COND_AXIS_NAME-9 "M"
*MEAS_COND_AXIS_NAME-10 "入射平行スリット"
*MEAS_COND_AXIS_NAME-11 "入射スリット"
*MEAS_COND_AXIS_NAME-12 ""
*MEAS_COND_AXIS_NAME-13 "Zs"
*MEAS_COND_AXIS_NAME-14 "入射光学素子"
*MEAS_COND_AXIS_NAME-15 "長手制限スリット"
*MEAS_COND_AXIS_NAME-16 "センタースリット"
*MEAS_COND_AXIS_NAME-17 "フィルター"
*MEAS_COND_AXIS_NAME-18 "受光スリット1"
*MEAS_COND_AXIS_NAME-19 "受光スリット2"
*MEAS_COND_AXIS_NAME-20 "受光光学素子"
*MEAS_COND_AXIS_NAME-21 "受光平行スリット"
*MEAS_COND_AXIS_NAME-22 "調整用受光スリット"
*MEAS_COND_AXIS_NAME-23 ""
*MEAS_COND_AXIS_NAME-24 ""
*MEAS_COND_AXIS_NAME-25 "Zd"
*MEAS_COND_AXIS_NAME-26 "アッテネータ"
*MEAS_COND_AXIS_NAME-27 "検出器モノクロメータ"
*MEAS_COND_AXIS_NAME-28 "モノクロメータスリット"
*MEAS_COND_AXIS_NAME-29 "プライマリビーム"
*MEAS_COND_AXIS_NAME-30 "PHA"
*MEAS_COND_AXIS_NAME_INTERNAL-0 "TwoThetaTheta"
*MEAS_COND_AXIS_NAME_INTERNAL-1 "TwoTheta"
*MEAS_COND_AXIS_NAME_INTERNAL-2 "Omega"
*MEAS_COND_AXIS_NAME_INTERNAL-3 "Z"
*MEAS_COND_AXIS_NAME_INTERNAL-4 "TwoThetaOmega"
*MEAS_COND_AXIS_NAME_INTERNAL-5 "ThetaS"
*MEAS_COND_AXIS_NAME_INTERNAL-6 "ThetaD"
*MEAS_COND_AXIS_NAME_INTERNAL-7 "Ts"
*MEAS_COND_AXIS_NAME_INTERNAL-8 "CBO"
*MEAS_COND_AXIS_NAME_INTERNAL-9 "CBO-M"
*MEAS_COND_AXIS_NAME_INTERNAL-10 "IncidentSollerSlit"
*MEAS_COND_AXIS_NAME_INTERNAL-11 "IncidentSlitBox"
*MEAS_COND_AXIS_NAME_INTERNAL-12 "IncidentSlitBox-_Axis"
*MEAS_COND_AXIS_NAME_INTERNAL-13 "Zs"
*MEAS_COND_AXIS_NAME_INTERNAL-14 "IncidentMonochromator"
*MEAS_COND_AXIS_NAME_INTERNAL-15 "IncidentAxdSlit"
*MEAS_COND_AXIS_NAME_INTERNAL-16 "CenterSlit"
*MEAS_COND_AXIS_NAME_INTERNAL-17 "Filter"
*MEAS_COND_AXIS_NAME_INTERNAL-18 "ReceivingSlitBox1"
*MEAS_COND_AXIS_NAME_INTERNAL-19 "ReceivingSlitBox2"
*MEAS_COND_AXIS_NAME_INTERNAL-20 "ReceivingOptics"
*MEAS_COND_AXIS_NAME_INTERNAL-21 "ReceivingSollerSlit"
*MEAS_COND_AXIS_NAME_INTERNAL-22 "ReceivingAxdSlit"
*MEAS_COND_AXIS_NAME_INTERNAL-23 "ReceivingSlitBox1-_Axis"
*MEAS_COND_AXIS_NAME_INTERNAL-24 "ReceivingSlitBox2-_Axis"
*MEAS_COND_AXIS_NAME_INTERNAL-25 "ReceivingSlitBox2-Zd"
*MEAS_COND_AXIS_NAME_INTERNAL-26 "Attenuator"
*MEAS_COND_AXIS_NAME_INTERNAL-27 "CounterMonochromator"
*MEAS_COND_AXIS_NAME_INTERNAL-28 "CounterSlit"
*MEAS_COND_AXIS_NAME_INTERNAL-29 "IncidentPrimary"
*MEAS_COND_AXIS_NAME_INTERNAL-30 "PHA"
*MEAS_COND_AXIS_NAME_MAGICNO-0 "83951616.0000000000"
*MEAS_COND_AXIS_NAME_MAGICNO-1 "268632064.0000000000"
*MEAS_COND_AXIS_NAME_MAGICNO-2 "268500992.0000000000"
*MEAS_COND_AXIS_NAME_MAGICNO-3 "285278208.0000000000"
*MEAS_COND_AXIS_NAME_MAGICNO-4 "83951616.0000000000"
*MEAS_COND_AXIS_NAME_MAGICNO-5 "131072.0000000000"
*MEAS_COND_AXIS_NAME_MAGICNO-6 "131072.0000000000"
*MEAS_COND_AXIS_NAME_MAGICNO-7 "318898176.0000000000"
*MEAS_COND_AXIS_NAME_MAGICNO-8 "20971521.0000000000"
*MEAS_COND_AXIS_NAME_MAGICNO-9 "285343744.0000000000"
*MEAS_COND_AXIS_NAME_MAGICNO-10 "20971521.0000000000"
*MEAS_COND_AXIS_NAME_MAGICNO-11 "22020097.0000000000"
*MEAS_COND_AXIS_NAME_MAGICNO-12 "25165824.0000000000"
*MEAS_COND_AXIS_NAME_MAGICNO-13 "318898176.0000000000"
*MEAS_COND_AXIS_NAME_MAGICNO-14 "1.0000000000"
*MEAS_COND_AXIS_NAME_MAGICNO-15 "20971521.0000000000"
*MEAS_COND_AXIS_NAME_MAGICNO-16 "20971521.0000000000"
*MEAS_COND_AXIS_NAME_MAGICNO-17 "20971521.0000000000"
*MEAS_COND_AXIS_NAME_MAGICNO-18 "23068673.0000000000"
*MEAS_COND_AXIS_NAME_MAGICNO-19 "23068673.0000000000"
*MEAS_COND_AXIS_NAME_MAGICNO-20 "20971521.0000000000"
*MEAS_COND_AXIS_NAME_MAGICNO-21 "20971521.0000000000"
*MEAS_COND_AXIS_NAME_MAGICNO-22 "20971521.0000000000"
*MEAS_COND_AXIS_NAME_MAGICNO-23 "25165824.0000000000"
*MEAS_COND_AXIS_NAME_MAGICNO-24 "25165824.0000000000"
*MEAS_COND_AXIS_NAME_MAGICNO-25 "285343744.0000000000"
*MEAS_COND_AXIS_NAME_MAGICNO-26 "17301505.0000000000"
*MEAS_COND_AXIS_NAME_MAGICNO-27 "20971521.0000000000"
*MEAS_COND_AXIS_NAME_MAGICNO-28 "20971521.0000000000"
*MEAS_COND_AXIS_NAME_MAGICNO-29 "20971521.0000000000"
*MEAS_COND_AXIS_NAME_MAGICNO-30 "0.0000000000"
*MEAS_COND_AXIS_OFFSET-0 "-"
*MEAS_COND_AXIS_OFFSET-1 "-0.1081000000"
*MEAS_COND_AXIS_OFFSET-2 "0.3758000000"
*MEAS_COND_AXIS_OFFSET-3 "-"
*MEAS_COND_AXIS_OFFSET-4 "-"
*MEAS_COND_AXIS_OFFSET-5 "0.3758000000"
*MEAS_COND_AXIS_OFFSET-6 "-0.4839000000"
*MEAS_COND_AXIS_OFFSET-7 "-"
*MEAS_COND_AXIS_OFFSET-8 "-"
*MEAS_COND_AXIS_OFFSET-9 "-"
*MEAS_COND_AXIS_OFFSET-10 "-"
*MEAS_COND_AXIS_OFFSET-11 "-"
*MEAS_COND_AXIS_OFFSET-12 "-"
*MEAS_COND_AXIS_OFFSET-13 "-"
*MEAS_COND_AXIS_OFFSET-14 "-"
*MEAS_COND_AXIS_OFFSET-15 "-"
*MEAS_COND_AXIS_OFFSET-16 "-"
*MEAS_COND_AXIS_OFFSET-17 "-"
*MEAS_COND_AXIS_OFFSET-18 "-"
*MEAS_COND_AXIS_OFFSET-19 "-"
*MEAS_COND_AXIS_OFFSET-20 "-"
*MEAS_COND_AXIS_OFFSET-21 "-"
*MEAS_COND_AXIS_OFFSET-22 "-"
*MEAS_COND_AXIS_OFFSET-23 "-"
*MEAS_COND_AXIS_OFFSET-24 "-"
*MEAS_COND_AXIS_OFFSET-25 "-"
*MEAS_COND_AXIS_OFFSET-26 "-"
*MEAS_COND_AXIS_OFFSET-27 "-"
*MEAS_COND_AXIS_OFFSET-28 "-"
*MEAS_COND_AXIS_OFFSET-29 "-"
*MEAS_COND_AXIS_OFFSET-30 "-"
*MEAS_COND_AXIS_POSITION-0 "0.0000000000"
*MEAS_COND_AXIS_POSITION-1 "0.0000000000"
*MEAS_COND_AXIS_POSITION-2 "0.0000000000"
*MEAS_COND_AXIS_POSITION-3 "-0.5500000000"
*MEAS_COND_AXIS_POSITION-4 "0.0000000000"
*MEAS_COND_AXIS_POSITION-5 "0.0000000000"
*MEAS_COND_AXIS_POSITION-6 "0.0000000000"
*MEAS_COND_AXIS_POSITION-7 "-0.4278800000"
*MEAS_COND_AXIS_POSITION-8 "BB"
*MEAS_COND_AXIS_POSITION-9 "0.0000000000"
*MEAS_COND_AXIS_POSITION-10 "Soller_slit_5.0deg"
*MEAS_COND_AXIS_POSITION-11 "2/3deg"
*MEAS_COND_AXIS_POSITION-12 "2.2088000000"
*MEAS_COND_AXIS_POSITION-13 "-0.4140600000"
*MEAS_COND_AXIS_POSITION-14 "0.0000000000"
*MEAS_COND_AXIS_POSITION-15 "10.0mm"
*MEAS_COND_AXIS_POSITION-16 "None"
*MEAS_COND_AXIS_POSITION-17 "Cu_K-beta"
*MEAS_COND_AXIS_POSITION-18 "13.000mm"
*MEAS_COND_AXIS_POSITION-19 "13.000mm"
*MEAS_COND_AXIS_POSITION-20 "No_unit"
*MEAS_COND_AXIS_POSITION-21 "Soller_slit_5.0deg"
*MEAS_COND_AXIS_POSITION-22 "None"
*MEAS_COND_AXIS_POSITION-23 "13.0000000000"
*MEAS_COND_AXIS_POSITION-24 "13.0000000000"
*MEAS_COND_AXIS_POSITION-25 "0.0109400000"
*MEAS_COND_AXIS_POSITION-26 "Open"
*MEAS_COND_AXIS_POSITION-27 "None"
*MEAS_COND_AXIS_POSITION-28 "None"
*MEAS_COND_AXIS_POSITION-29 "None"
*MEAS_COND_AXIS_POSITION-30 "38.0000000000"
*MEAS_COND_AXIS_UNIT-0 "deg"
*MEAS_COND_AXIS_UNIT-1 "deg"
*MEAS_COND_AXIS_UNIT-2 "deg"
*MEAS_COND_AXIS_UNIT-3 "mm"
*MEAS_COND_AXIS_UNIT-4 "deg"
*MEAS_COND_AXIS_UNIT-5 "deg"
*MEAS_COND_AXIS_UNIT-6 "deg"
*MEAS_COND_AXIS_UNIT-7 "mm"
*MEAS_COND_AXIS_UNIT-8 ""
*MEAS_COND_AXIS_UNIT-9 "pulse"
*MEAS_COND_AXIS_UNIT-10 ""
*MEAS_COND_AXIS_UNIT-11 ""
*MEAS_COND_AXIS_UNIT-12 "mm"
*MEAS_COND_AXIS_UNIT-13 "mm"
*MEAS_COND_AXIS_UNIT-14 ""
*MEAS_COND_AXIS_UNIT-15 ""
*MEAS_COND_AXIS_UNIT-16 ""
*MEAS_COND_AXIS_UNIT-17 ""
*MEAS_COND_AXIS_UNIT-18 ""
*MEAS_COND_AXIS_UNIT-19 ""
*MEAS_COND_AXIS_UNIT-20 ""
*MEAS_COND_AXIS_UNIT-21 ""
*MEAS_COND_AXIS_UNIT-22 ""
*MEAS_COND_AXIS_UNIT-23 "mm"
*MEAS_COND_AXIS_UNIT-24 "mm"
*MEAS_COND_AXIS_UNIT-25 "mm"
*MEAS_COND_AXIS_UNIT-26 ""
*MEAS_COND_AXIS_UNIT-27 ""
*MEAS_COND_AXIS_UNIT-28 ""
*MEAS_COND_AXIS_UNIT-29 ""
*MEAS_COND_AXIS_UNIT-30 "div"
*MEAS_COND_COUNTER_CNTLOSS_CORR "0.0000000000"
*MEAS_COND_COUNTER_PHABASE "38.0000000000"
*MEAS_COND_COUNTER_PHAWINDOW "16.0000000000"
*MEAS_COND_COUNTER_PHA_UNIT "div"
*MEAS_COND_COUNTER_TAUDIFF "30.0000000000"
*MEAS_COND_COUNTER_TAUINT "0.0000000000"
*MEAS_COND_IRRADIATION_MODE "OFF"
*MEAS_COND_IRRADIATION_WIDTH ""
*MEAS_COND_OPT_ATTR "集中法"
*MEAS_COND_OPT_NAME "@集中法"
*MEAS_COND_UNSYMMETRIC_MODE "OFF"
*MEAS_COND_XG_CURRENT "30.0000000000"
*MEAS_COND_XG_VOLTAGE "40.0000000000"
*MEAS_COND_XG_WAVE_TYPE "Ka"
*MEAS_DATA_COUNT "5001.0000000000"
*MEAS_SCAN_AXIS_X "2θ/θ"
*MEAS_SCAN_AXIS_X_INTERNAL "TwoThetaTheta"
*MEAS_SCAN_END_TIME "06/24/21 18:23:21"
*MEAS_SCAN_MODE "CONTINUOUS"
*MEAS_SCAN_MONITOR "0"
*MEAS_SCAN_RESOLUTION_X "0.0002"
*MEAS_SCAN_SPEED "1.0"
*MEAS_SCAN_SPEED_UNIT "deg/min"
*MEAS_SCAN_START "20.0000000000"
*MEAS_SCAN_START_TIME "06/24/21 17:30:27"
*MEAS_SCAN_STEP "0.0100000000"
*MEAS_SCAN_STOP "70.0000000000"
*MEAS_SCAN_UNIT_X "deg"
*MEAS_SCAN_UNIT_Y "counts"
*RAS_HEADER_END
*RAS_INT_START
20.0000 1542.0000 1.0000
20.0100 1566.0000 1.0000
20.0200 1538.0000 1.0000
20.0300 1572.0000 1.0000
20.0400 1535.0000 1.0000
20.0500 1567.0000 1.0000
20.0600 1485.0000 1.0000
20.0700 1536.0000 1.0000
20.0800 1541.0000 1.0000
20.0900 1561.0000 1.0000
20.1000 1626.0000 1.0000
20.1100 1569.0000 1.0000
20.1200 1568.0000 1.0000
20.1300 1547.0000 1.0000
20.1400 1566.0000 1.0000
20.1500 1557.0000 1.0000
20.1600 1588.0000 1.0000
20.1700 1600.0000 1.0000
20.1800 1604.0000 1.0000
20.1900 1592.0000 1.0000
20.2000 1605.0000 1.0000
20.2100 1563.0000 1.0000
20.2200 1626.0000 1.0000
20.2300 1581.0000 1.0000
20.2400 1532.0000 1.0000
20.2500 1535.0000 1.0000
20.2600 1591.0000 1.0000
20.2700 1568.0000 1.0000
20.2800 1575.0000 1.0000
20.2900 1556.0000 1.0000
20.3000 1581.0000 1.0000
20.3100 1570.0000 1.0000
20.3200 1553.0000 1.0000
20.3300 1510.0000 1.0000
20.3400 1541.0000 1.0000
20.3500 1522.0000 1.0000
20.3600 1584.0000 1.0000
20.3700 1544.0000 1.0000
20.3800 1503.0000 1.0000
20.3900 1534.0000 1.0000
20.4000 1568.0000 1.0000
20.4100 1553.0000 1.0000
20.4200 1542.0000 1.0000
20.4300 1546.0000 1.0000
20.4400 1566.0000 1.0000
20.4500 1558.0000 1.0000
20.4600 1570.0000 1.0000
20.4700 1543.0000 1.0000
20.4800 1499.0000 1.0000
20.4900 1547.0000 1.0000
20.5000 1547.0000 1.0000
20.5100 1532.0000 1.0000
20.5200 1569.0000 1.0000
20.5300 1548.0000 1.0000
20.5400 1615.0000 1.0000
20.5500 1605.0000 1.0000
20.5600 1580.0000 1.0000
20.5700 1586.0000 1.0000
20.5800 1496.0000 1.0000
20.5900 1556.0000 1.0000
20.6000 1566.0000 1.0000
20.6100 1623.0000 1.0000
20.6200 1577.0000 1.0000
20.6300 1558.0000 1.0000
20.6400 1561.0000 1.0000
20.6500 1546.0000 1.0000
20.6600 1527.0000 1.0000
20.6700 1575.0000 1.0000
20.6800 1578.0000 1.0000
20.6900 1625.0000 1.0000
20.7000 1628.0000 1.0000
20.7100 1577.0000 1.0000
20.7200 1507.0000 1.0000
20.7300 1518.0000 1.0000
20.7400 1598.0000 1.0000
20.7500 1573.0000 1.0000
20.7600 1597.0000 1.0000
20.7700 1499.0000 1.0000
20.7800 1553.0000 1.0000
20.7900 1513.0000 1.0000
20.8000 1577.0000 1.0000
20.8100 1604.0000 1.0000
20.8200 1598.0000 1.0000
20.8300 1534.0000 1.0000
20.8400 1550.0000 1.0000
20.8500 1555.0000 1.0000
20.8600 1566.0000 1.0000
20.8700 1507.0000 1.0000
20.8800 1487.0000 1.0000
20.8900 1585.0000 1.0000
20.9000 1513.0000 1.0000
20.9100 1580.0000 1.0000
20.9200 1542.0000 1.0000
20.9300 1614.0000 1.0000
20.9400 1634.0000 1.0000
20.9500 1582.0000 1.0000
20.9600 1534.0000 1.0000
20.9700 1643.0000 1.0000
20.9800 1561.0000 1.0000
20.9900 1570.0000 1.0000
21.0000 1558.0000 1.0000
21.0100 1607.0000 1.0000
21.0200 1579.0000 1.0000
21.0300 1562.0000 1.0000
21.0400 1559.0000 1.0000
21.0500 1573.0000 1.0000
21.0600 1565.0000 1.0000
21.0700 1544.0000 1.0000
21.0800 1579.0000 1.0000
21.0900 1561.0000 1.0000
21.1000 1591.0000 1.0000
21.1100 1501.0000 1.0000
21.1200 1561.0000 1.0000
21.1300 1570.0000 1.0000
21.1400 1586.0000 1.0000
21.1500 1580.0000 1.0000
21.1600 1556.0000 1.0000
21.1700 1596.0000 1.0000
21.1800 1554.0000 1.0000
21.1900 1549.0000 1.0000
21.2000 1557.0000 1.0000
21.2100 1625.0000 1.0000
21.2200 1615.0000 1.0000
21.2300 1556.0000 1.0000
21.2400 1543.0000 1.0000
21.2500 1588.0000 1.0000
21.2600 1581.0000 1.0000
21.2700 1591.0000 1.0000
21.2800 1559.0000 1.0000
21.2900 1605.0000 1.0000
21.3000 1655.0000 1.0000
21.3100 1633.0000 1.0000
21.3200 1550.0000 1.0000
21.3300 1564.0000 1.0000
21.3400 1587.0000 1.0000
21.3500 1576.0000 1.0000
21.3600 1528.0000 1.0000
21.3700 1559.0000 1.0000
21.3800 1621.0000 1.0000
21.3900 1580.0000 1.0000
21.4000 1589.0000 1.0000
21.4100 1620.0000 1.0000
21.4200 1573.0000 1.0000
21.4300 1541.0000 1.0000
21.4400 1599.0000 1.0000
21.4500 1582.0000 1.0000
21.4600 1590.0000 1.0000
21.4700 1521.0000 1.0000
21.4800 1597.0000 1.0000
21.4900 1645.0000 1.0000
21.5000 1617.0000 1.0000
21.5100 1564.0000 1.0000
21.5200 1605.0000 1.0000
21.5300 1543.0000 1.0000
21.5400 1572.0000 1.0000
21.5500 1570.0000 1.0000
21.5600 1587.0000 1.0000
21.5700 1596.0000 1.0000
21.5800 1589.0000 1.0000
21.5900 1561.0000 1.0000
21.6000 1602.0000 1.0000
21.6100 1610.0000 1.0000
21.6200 1601.0000 1.0000
21.6300 1617.0000 1.0000
21.6400 1580.0000 1.0000
21.6500 1591.0000 1.0000
21.6600 1563.0000 1.0000
21.6700 1563.0000 1.0000
21.6800 1517.0000 1.0000
21.6900 1557.0000 1.0000
21.7000 1510.0000 1.0000
21.7100 1525.0000 1.0000
21.7200 1615.0000 1.0000
21.7300 1592.0000 1.0000
21.7400 1594.0000 1.0000
21.7500 1606.0000 1.0000
21.7600 1623.0000 1.0000
21.7700 1579.0000 1.0000
21.7800 1578.0000 1.0000
21.7900 1601.0000 1.0000
21.8000 1512.0000 1.0000
21.8100 1493.0000 1.0000
21.8200 1576.0000 1.0000
21.8300 1555.0000 1.0000
21.8400 1559.0000 1.0000
21.8500 1584.0000 1.0000
21.8600 1650.0000 1.0000
21.8700 1558.0000 1.0000
21.8800 1558.0000 1.0000
21.8900 1585.0000 1.0000
21.9000 1597.0000 1.0000
21.9100 1557.0000 1.0000
21.9200 1579.0000 1.0000
21.9300 1618.0000 1.0000
21.9400 1589.0000 1.0000
21.9500 1562.0000 1.0000
21.9600 1550.0000 1.0000
21.9700 1556.0000 1.0000
21.9800 1533.0000 1.0000
21.9900 1609.0000 1.0000
22.0000 1677.0000 1.0000
22.0100 1630.0000 1.0000
22.0200 1628.0000 1.0000
22.0300 1564.0000 1.0000
22.0400 1552.0000 1.0000
22.0500 1603.0000 1.0000
22.0600 1628.0000 1.0000
22.0700 1684.0000 1.0000
22.0800 1637.0000 1.0000
22.0900 1570.0000 1.0000
22.1000 1547.0000 1.0000
22.1100 1592.0000 1.0000
22.1200 1609.0000 1.0000
22.1300 1565.0000 1.0000
22.1400 1575.0000 1.0000
22.1500 1651.0000 1.0000
22.1600 1600.0000 1.0000
22.1700 1533.0000 1.0000
22.1800 1539.0000 1.0000
22.1900 1621.0000 1.0000
22.2000 1628.0000 1.0000
22.2100 1647.0000 1.0000
22.2200 1603.0000 1.0000
22.2300 1604.0000 1.0000
22.2400 1588.0000 1.0000
22.2500 1636.0000 1.0000
22.2600 1554.0000 1.0000
22.2700 1611.0000 1.0000
22.2800 1634.0000 1.0000
22.2900 1625.0000 1.0000
22.3000 1610.0000 1.0000
22.3100 1586.0000 1.0000
22.3200 1617.0000 1.0000
22.3300 1639.0000 1.0000
22.3400 1609.0000 1.0000
22.3500 1595.0000 1.0000
22.3600 1629.0000 1.0000
22.3700 1615.0000 1.0000
22.3800 1550.0000 1.0000
22.3900 1642.0000 1.0000
22.4000 1644.0000 1.0000
22.4100 1601.0000 1.0000
22.4200 1611.0000 1.0000
22.4300 1645.0000 1.0000
22.4400 1606.0000 1.0000
22.4500 1612.0000 1.0000
22.4600 1571.0000 1.0000
22.4700 1580.0000 1.0000
22.4800 1633.0000 1.0000
22.4900 1636.0000 1.0000
22.5000 1556.0000 1.0000
22.5100 1561.0000 1.0000
22.5200 1631.0000 1.0000
22.5300 1591.0000 1.0000
22.5400 1592.0000 1.0000
22.5500 1630.0000 1.0000
22.5600 1556.0000 1.0000
22.5700 1601.0000 1.0000
22.5800 1564.0000 1.0000
22.5900 1648.0000 1.0000
22.6000 1607.0000 1.0000
22.6100 1663.0000 1.0000
22.6200 1662.0000 1.0000
22.6300 1680.0000 1.0000
22.6400 1634.0000 1.0000
22.6500 1653.0000 1.0000
22.6600 1623.0000 1.0000
22.6700 1625.0000 1.0000
22.6800 1542.0000 1.0000
22.6900 1604.0000 1.0000
22.7000 1618.0000 1.0000
22.7100 1672.0000 1.0000
22.7200 1622.0000 1.0000
22.7300 1593.0000 1.0000
22.7400 1651.0000 1.0000
22.7500 1610.0000 1.0000
22.7600 1630.0000 1.0000
22.7700 1544.0000 1.0000
22.7800 1615.0000 1.0000
22.7900 1650.0000 1.0000
22.8000 1606.0000 1.0000
22.8100 1577.0000 1.0000
22.8200 1617.0000 1.0000
22.8300 1691.0000 1.0000
22.8400 1667.0000 1.0000
22.8500 1652.0000 1.0000
22.8600 1618.0000 1.0000
22.8700 1583.0000 1.0000
22.8800 1603.0000 1.0000
22.8900 1586.0000 1.0000
22.9000 1635.0000 1.0000
22.9100 1631.0000 1.0000
22.9200 1645.0000 1.0000
22.9300 1604.0000 1.0000
22.9400 1624.0000 1.0000
22.9500 1577.0000 1.0000
22.9600 1622.0000 1.0000
22.9700 1649.0000 1.0000
22.9800 1642.0000 1.0000
22.9900 1691.0000 1.0000
23.0000 1630.0000 1.0000
23.0100 1686.0000 1.0000
23.0200 1660.0000 1.0000
23.0300 1570.0000 1.0000
23.0400 1630.0000 1.0000
23.0500 1617.0000 1.0000
23.0600 1593.0000 1.0000
23.0700 1587.0000 1.0000
23.0800 1635.0000 1.0000
23.0900 1615.0000 1.0000
23.1000 1609.0000 1.0000
23.1100 1595.0000 1.0000
23.1200 1642.0000 1.0000
23.1300 1637.0000 1.0000
23.1400 1659.0000 1.0000
23.1500 1685.0000 1.0000
23.1600 1604.0000 1.0000
23.1700 1612.0000 1.0000
23.1800 1651.0000 1.0000
23.1900 1624.0000 1.0000
23.2000 1609.0000 1.0000
23.2100 1656.0000 1.0000
23.2200 1671.0000 1.0000
23.2300 1686.0000 1.0000
23.2400 1600.0000 1.0000
23.2500 1606.0000 1.0000
23.2600 1599.0000 1.0000
23.2700 1650.0000 1.0000
23.2800 1659.0000 1.0000
23.2900 1617.0000 1.0000
23.3000 1620.0000 1.0000
23.3100 1650.0000 1.0000
23.3200 1733.0000 1.0000
23.3300 1712.0000 1.0000
23.3400 1558.0000 1.0000
23.3500 1606.0000 1.0000
23.3600 1615.0000 1.0000
23.3700 1650.0000 1.0000
23.3800 1634.0000 1.0000
23.3900 1620.0000 1.0000
23.4000 1691.0000 1.0000
23.4100 1704.0000 1.0000
23.4200 1681.0000 1.0000
23.4300 1619.0000 1.0000
23.4400 1610.0000 1.0000
23.4500 1576.0000 1.0000
23.4600 1612.0000 1.0000
23.4700 1611.0000 1.0000
23.4800 1553.0000 1.0000
23.4900 1624.0000 1.0000
23.5000 1659.0000 1.0000
23.5100 1677.0000 1.0000
23.5200 1611.0000 1.0000
23.5300 1636.0000 1.0000
23.5400 1608.0000 1.0000
23.5500 1638.0000 1.0000
23.5600 1685.0000 1.0000
23.5700 1663.0000 1.0000
23.5800 1588.0000 1.0000
23.5900 1583.0000 1.0000
23.6000 1591.0000 1.0000
23.6100 1595.0000 1.0000
23.6200 1605.0000 1.0000
23.6300 1667.0000 1.0000
23.6400 1632.0000 1.0000
23.6500 1629.0000 1.0000
23.6600 1631.0000 1.0000
23.6700 1664.0000 1.0000
23.6800 1639.0000 1.0000
23.6900 1600.0000 1.0000
23.7000 1619.0000 1.0000
23.7100 1656.0000 1.0000
23.7200 1615.0000 1.0000
23.7300 1643.0000 1.0000
23.7400 1661.0000 1.0000
23.7500 1622.0000 1.0000
23.7600 1689.0000 1.0000
23.7700 1660.0000 1.0000
23.7800 1723.0000 1.0000
23.7900 1615.0000 1.0000
23.8000 1600.0000 1.0000
23.8100 1670.0000 1.0000
23.8200 1630.0000 1.0000
23.8300 1594.0000 1.0000
23.8400 1603.0000 1.0000
23.8500 1616.0000 1.0000
23.8600 1622.0000 1.0000
23.8700 1685.0000 1.0000
23.8800 1657.0000 1.0000
23.8900 1649.0000 1.0000
23.9000 1673.0000 1.0000
23.9100 1665.0000 1.0000
23.9200 1615.0000 1.0000
23.9300 1656.0000 1.0000
23.9400 1701.0000 1.0000
23.9500 1615.0000 1.0000
23.9600 1635.0000 1.0000
23.9700 1595.0000 1.0000
23.9800 1574.0000 1.0000
23.9900 1662.0000 1.0000
24.0000 1704.0000 1.0000
24.0100 1598.0000 1.0000
24.0200 1673.0000 1.0000
24.0300 1711.0000 1.0000
24.0400 1645.0000 1.0000
24.0500 1623.0000 1.0000
24.0600 1658.0000 1.0000
24.0700 1650.0000 1.0000
24.0800 1603.0000 1.0000
24.0900 1657.0000 1.0000
24.1000 1581.0000 1.0000
24.1100 1604.0000 1.0000
24.1200 1645.0000 1.0000
24.1300 1715.0000 1.0000
24.1400 1766.0000 1.0000
24.1500 1689.0000 1.0000
24.1600 1683.0000 1.0000
24.1700 1644.0000 1.0000
24.1800 1733.0000 1.0000
24.1900 1697.0000 1.0000
24.2000 1690.0000 1.0000
24.2100 1649.0000 1.0000
24.2200 1660.0000 1.0000
24.2300 1674.0000 1.0000
24.2400 1701.0000 1.0000
24.2500 1642.0000 1.0000
24.2600 1661.0000 1.0000
24.2700 1664.0000 1.0000
24.2800 1697.0000 1.0000
24.2900 1589.0000 1.0000
24.3000 1661.0000 1.0000
24.3100 1596.0000 1.0000
24.3200 1642.0000 1.0000
24.3300 1649.0000 1.0000
24.3400 1638.0000 1.0000
24.3500 1681.0000 1.0000
24.3600 1674.0000 1.0000
24.3700 1686.0000 1.0000
24.3800 1666.0000 1.0000
24.3900 1708.0000 1.0000
24.4000 1593.0000 1.0000
24.4100 1645.0000 1.0000
24.4200 1687.0000 1.0000
24.4300 1674.0000 1.0000
24.4400 1666.0000 1.0000
24.4500 1769.0000 1.0000
24.4600 1648.0000 1.0000
24.4700 1641.0000 1.0000
24.4800 1638.0000 1.0000
24.4900 1698.0000 1.0000
24.5000 1758.0000 1.0000
24.5100 1668.0000 1.0000
24.5200 1666.0000 1.0000
24.5300 1678.0000 1.0000
24.5400 1616.0000 1.0000
24.5500 1707.0000 1.0000
24.5600 1668.0000 1.0000
24.5700 1679.0000 1.0000
24.5800 1706.0000 1.0000
24.5900 1590.0000 1.0000
24.6000 1685.0000 1.0000
24.6100 1668.0000 1.0000
24.6200 1717.0000 1.0000
24.6300 1772.0000 1.0000
24.6400 1747.0000 1.0000
24.6500 1697.0000 1.0000
24.6600 1710.0000 1.0000
24.6700 1682.0000 1.0000
24.6800 1698.0000 1.0000
24.6900 1716.0000 1.0000
24.7000 1687.0000 1.0000
24.7100 1658.0000 1.0000
24.7200 1682.0000 1.0000
24.7300 1735.0000 1.0000
24.7400 1732.0000 1.0000
24.7500 1699.0000 1.0000
24.7600 1750.0000 1.0000
24.7700 1657.0000 1.0000
24.7800 1710.0000 1.0000
24.7900 1701.0000 1.0000
24.8000 1711.0000 1.0000
24.8100 1733.0000 1.0000
24.8200 1741.0000 1.0000
24.8300 1713.0000 1.0000
24.8400 1716.0000 1.0000
24.8500 1728.0000 1.0000
24.8600 1728.0000 1.0000
24.8700 1731.0000 1.0000
24.8800 1749.0000 1.0000
24.8900 1793.0000 1.0000
24.9000 1669.0000 1.0000
24.9100 1730.0000 1.0000
24.9200 1788.0000 1.0000
24.9300 1699.0000 1.0000
24.9400 1737.0000 1.0000
24.9500 1727.0000 1.0000
24.9600 1693.0000 1.0000
24.9700 1770.0000 1.0000
24.9800 1754.0000 1.0000
24.9900 1765.0000 1.0000
25.0000 1767.0000 1.0000
25.0100 1748.0000 1.0000
25.0200 1790.0000 1.0000
25.0300 1729.0000 1.0000
25.0400 1762.0000 1.0000
25.0500 1694.0000 1.0000
25.0600 1750.0000 1.0000
25.0700 1755.0000 1.0000
25.0800 1722.0000 1.0000
25.0900 1699.0000 1.0000
25.1000 1787.0000 1.0000
25.1100 1684.0000 1.0000
25.1200 1730.0000 1.0000
25.1300 1729.0000 1.0000
25.1400 1783.0000 1.0000
25.1500 1720.0000 1.0000
25.1600 1724.0000 1.0000
25.1700 1803.0000 1.0000
25.1800 1802.0000 1.0000
25.1900 1766.0000 1.0000
25.2000 1716.0000 1.0000
25.2100 1666.0000 1.0000
25.2200 1636.0000 1.0000
25.2300 1724.0000 1.0000
25.2400 1726.0000 1.0000
25.2500 1645.0000 1.0000
25.2600 1653.0000 1.0000
25.2700 1677.0000 1.0000
25.2800 1727.0000 1.0000
25.2900 1775.0000 1.0000
25.3000 1684.0000 1.0000
25.3100 1722.0000 1.0000
25.3200 1730.0000 1.0000
25.3300 1692.0000 1.0000
25.3400 1670.0000 1.0000
25.3500 1655.0000 1.0000
25.3600 1684.0000 1.0000
25.3700 1738.0000 1.0000
25.3800 1675.0000 1.0000
25.3900 1688.0000 1.0000
25.4000 1729.0000 1.0000
25.4100 1709.0000 1.0000
25.4200 1730.0000 1.0000
25.4300 1753.0000 1.0000
25.4400 1747.0000 1.0000
25.4500 1748.0000 1.0000
25.4600 1767.0000 1.0000
25.4700 1703.0000 1.0000
25.4800 1710.0000 1.0000
25.4900 1707.0000 1.0000
25.5000 1722.0000 1.0000
25.5100 1707.0000 1.0000
25.5200 1741.0000 1.0000
25.5300 1737.0000 1.0000
25.5400 1706.0000 1.0000
25.5500 1744.0000 1.0000
25.5600 1685.0000 1.0000
25.5700 1727.0000 1.0000
25.5800 1761.0000 1.0000
25.5900 1710.0000 1.0000
25.6000 1702.0000 1.0000
25.6100 1740.0000 1.0000
25.6200 1714.0000 1.0000
25.6300 1726.0000 1.0000
25.6400 1757.0000 1.0000
25.6500 1730.0000 1.0000
25.6600 1720.0000 1.0000
25.6700 1715.0000 1.0000
25.6800 1686.0000 1.0000
25.6900 1691.0000 1.0000
25.7000 1767.0000 1.0000
25.7100 1710.0000 1.0000
25.7200 1666.0000 1.0000
25.7300 1692.0000 1.0000
25.7400 1652.0000 1.0000
25.7500 1718.0000 1.0000
25.7600 1687.0000 1.0000
25.7700 1754.0000 1.0000
25.7800 1672.0000 1.0000
25.7900 1658.0000 1.0000
25.8000 1699.0000 1.0000
25.8100 1683.0000 1.0000
25.8200 1635.0000 1.0000
25.8300 1694.0000 1.0000
25.8400 1669.0000 1.0000
25.8500 1643.0000 1.0000
25.8600 1703.0000 1.0000
25.8700 1714.0000 1.0000
25.8800 1710.0000 1.0000
25.8900 1728.0000 1.0000
25.9000 1694.0000 1.0000
25.9100 1723.0000 1.0000
25.9200 1698.0000 1.0000
25.9300 1777.0000 1.0000
25.9400 1710.0000 1.0000
25.9500 1720.0000 1.0000
25.9600 1702.0000 1.0000
25.9700 1716.0000 1.0000
25.9800 1731.0000 1.0000
25.9900 1734.0000 1.0000
26.0000 1672.0000 1.0000
26.0100 1742.0000 1.0000
26.0200 1765.0000 1.0000
26.0300 1703.0000 1.0000
26.0400 1673.0000 1.0000
26.0500 1745.0000 1.0000
26.0600 1752.0000 1.0000
26.0700 1698.0000 1.0000
26.0800 1777.0000 1.0000
26.0900 1661.0000 1.0000
26.1000 1753.0000 1.0000
26.1100 1718.0000 1.0000
26.1200 1723.0000 1.0000
26.1300 1729.0000 1.0000
26.1400 1770.0000 1.0000
26.1500 1724.0000 1.0000
26.1600 1751.0000 1.0000
26.1700 1725.0000 1.0000
26.1800 1746.0000 1.0000
26.1900 1753.0000 1.0000
26.2000 1739.0000 1.0000
26.2100 1732.0000 1.0000
26.2200 1714.0000 1.0000
26.2300 1763.0000 1.0000
26.2400 1739.0000 1.0000
26.2500 1734.0000 1.0000
26.2600 1742.0000 1.0000
26.2700 1750.0000 1.0000
26.2800 1744.0000 1.0000
26.2900 1719.0000 1.0000
26.3000 1735.0000 1.0000
26.3100 1763.0000 1.0000
26.3200 1751.0000 1.0000
26.3300 1724.0000 1.0000
26.3400 1760.0000 1.0000
26.3500 1769.0000 1.0000
26.3600 1758.0000 1.0000
26.3700 1793.0000 1.0000
26.3800 1748.0000 1.0000
26.3900 1805.0000 1.0000
26.4000 1820.0000 1.0000
26.4100 1746.0000 1.0000
26.4200 1766.0000 1.0000
26.4300 1792.0000 1.0000
26.4400 1751.0000 1.0000
26.4500 1734.0000 1.0000
26.4600 1778.0000 1.0000
26.4700 1741.0000 1.0000
26.4800 1826.0000 1.0000
26.4900 1782.0000 1.0000
26.5000 1769.0000 1.0000
26.5100 1792.0000 1.0000
26.5200 1730.0000 1.0000
26.5300 1761.0000 1.0000
26.5400 1792.0000 1.0000
26.5500 1738.0000 1.0000
26.5600 1801.0000 1.0000
26.5700 1818.0000 1.0000
26.5800 1795.0000 1.0000
26.5900 1744.0000 1.0000
26.6000 1824.0000 1.0000
26.6100 1785.0000 1.0000
26.6200 1771.0000 1.0000
26.6300 1783.0000 1.0000
26.6400 1796.0000 1.0000
26.6500 1922.0000 1.0000
26.6600 1802.0000 1.0000
26.6700 1761.0000 1.0000
26.6800 1747.0000 1.0000
26.6900 1834.0000 1.0000
26.7000 1821.0000 1.0000
26.7100 1809.0000 1.0000
26.7200 1817.0000 1.0000
26.7300 1924.0000 1.0000
26.7400 1836.0000 1.0000
26.7500 1821.0000 1.0000
26.7600 1832.0000 1.0000
26.7700 1911.0000 1.0000
26.7800 1886.0000 1.0000
26.7900 1856.0000 1.0000
26.8000 1903.0000 1.0000
26.8100 1971.0000 1.0000
26.8200 1863.0000 1.0000
26.8300 1894.0000 1.0000
26.8400 1967.0000 1.0000
26.8500 1930.0000 1.0000
26.8600 1926.0000 1.0000
26.8700 2006.0000 1.0000
26.8800 2013.0000 1.0000
26.8900 1975.0000 1.0000
26.9000 2077.0000 1.0000
26.9100 2072.0000 1.0000
26.9200 2089.0000 1.0000
26.9300 2097.0000 1.0000
26.9400 2131.0000 1.0000
26.9500 2185.0000 1.0000
26.9600 2194.0000 1.0000
26.9700 2195.0000 1.0000
26.9800 2181.0000 1.0000
26.9900 2261.0000 1.0000
27.0000 2378.0000 1.0000
27.0100 2337.0000 1.0000
27.0200 2488.0000 1.0000
27.0300 2412.0000 1.0000
27.0400 2482.0000 1.0000
27.0500 2556.0000 1.0000
27.0600 2635.0000 1.0000
27.0700 2662.0000 1.0000
27.0800 2730.0000 1.0000
27.0900 2855.0000 1.0000
27.1000 2909.0000 1.0000
27.1100 3032.0000 1.0000
27.1200 3199.0000 1.0000
27.1300 3275.0000 1.0000
27.1400 3422.0000 1.0000
27.1500 3507.0000 1.0000
27.1600 3726.0000 1.0000
27.1700 3835.0000 1.0000
27.1800 3983.0000 1.0000
27.1900 4330.0000 1.0000
27.2000 4638.0000 1.0000
27.2100 4759.0000 1.0000
27.2200 4994.0000 1.0000
27.2300 5294.0000 1.0000
27.2400 5587.0000 1.0000
27.2500 5710.0000 1.0000
27.2600 5974.0000 1.0000
27.2700 6324.0000 1.0000
27.2800 6568.0000 1.0000
27.2900 6559.0000 1.0000
27.3000 6713.0000 1.0000
27.3100 6860.0000 1.0000
27.3200 6755.0000 1.0000
27.3300 6626.0000 1.0000
27.3400 6527.0000 1.0000
27.3500 6388.0000 1.0000
27.3600 6162.0000 1.0000
27.3700 5982.0000 1.0000
27.3800 5547.0000 1.0000
27.3900 5358.0000 1.0000
27.4000 5117.0000 1.0000
27.4100 4714.0000 1.0000
27.4200 4505.0000 1.0000
27.4300 4263.0000 1.0000
27.4400 4036.0000 1.0000
27.4500 3808.0000 1.0000
27.4600 3656.0000 1.0000
27.4700 3480.0000 1.0000
27.4800 3416.0000 1.0000
27.4900 3279.0000 1.0000
27.5000 3084.0000 1.0000
27.5100 2986.0000 1.0000
27.5200 2935.0000 1.0000
27.5300 2827.0000 1.0000
27.5400 2729.0000 1.0000
27.5500 2624.0000 1.0000
27.5600 2624.0000 1.0000
27.5700 2480.0000 1.0000
27.5800 2440.0000 1.0000
27.5900 2409.0000 1.0000
27.6000 2338.0000 1.0000
27.6100 2397.0000 1.0000
27.6200 2199.0000 1.0000
27.6300 2181.0000 1.0000
27.6400 2122.0000 1.0000
27.6500 2170.0000 1.0000
27.6600 2179.0000 1.0000
27.6700 2108.0000 1.0000
27.6800 2104.0000 1.0000
27.6900 2130.0000 1.0000
27.7000 1982.0000 1.0000
27.7100 1941.0000 1.0000
27.7200 1975.0000 1.0000
27.7300 2014.0000 1.0000
27.7400 1957.0000 1.0000
27.7500 1889.0000 1.0000
27.7600 1916.0000 1.0000
27.7700 1918.0000 1.0000
27.7800 1929.0000 1.0000
27.7900 1859.0000 1.0000
27.8000 1913.0000 1.0000
27.8100 1870.0000 1.0000
27.8200 1858.0000 1.0000
27.8300 1832.0000 1.0000
27.8400 1896.0000 1.0000
27.8500 1784.0000 1.0000
27.8600 1839.0000 1.0000
27.8700 1789.0000 1.0000
27.8800 1771.0000 1.0000
27.8900 1816.0000 1.0000
27.9000 1767.0000 1.0000
27.9100 1790.0000 1.0000
27.9200 1758.0000 1.0000
27.9300 1753.0000 1.0000
27.9400 1816.0000 1.0000
27.9500 1738.0000 1.0000
27.9600 1740.0000 1.0000
27.9700 1822.0000 1.0000
27.9800 1731.0000 1.0000
27.9900 1755.0000 1.0000
28.0000 1769.0000 1.0000
28.0100 1721.0000 1.0000
28.0200 1690.0000 1.0000
28.0300 1762.0000 1.0000
28.0400 1724.0000 1.0000
28.0500 1698.0000 1.0000
28.0600 1722.0000 1.0000
28.0700 1737.0000 1.0000
28.0800 1738.0000 1.0000
28.0900 1716.0000 1.0000
28.1000 1675.0000 1.0000
28.1100 1680.0000 1.0000
28.1200 1725.0000 1.0000
28.1300 1719.0000 1.0000
28.1400 1706.0000 1.0000
28.1500 1659.0000 1.0000
28.1600 1678.0000 1.0000
28.1700 1659.0000 1.0000
28.1800 1665.0000 1.0000
28.1900 1654.0000 1.0000
28.2000 1729.0000 1.0000
28.2100 1620.0000 1.0000
28.2200 1624.0000 1.0000
28.2300 1624.0000 1.0000
28.2400 1656.0000 1.0000
28.2500 1618.0000 1.0000
28.2600 1734.0000 1.0000
28.2700 1694.0000 1.0000
28.2800 1628.0000 1.0000
28.2900 1632.0000 1.0000
28.3000 1696.0000 1.0000
28.3100 1597.0000 1.0000
28.3200 1729.0000 1.0000
28.3300 1650.0000 1.0000
28.3400 1575.0000 1.0000
28.3500 1596.0000 1.0000
28.3600 1594.0000 1.0000
28.3700 1663.0000 1.0000
28.3800 1568.0000 1.0000
28.3900 1688.0000 1.0000
28.4000 1685.0000 1.0000
28.4100 1680.0000 1.0000
28.4200 1676.0000 1.0000
28.4300 1650.0000 1.0000
28.4400 1652.0000 1.0000
28.4500 1691.0000 1.0000
28.4600 1663.0000 1.0000
28.4700 1669.0000 1.0000
28.4800 1592.0000 1.0000
28.4900 1583.0000 1.0000
28.5000 1629.0000 1.0000
28.5100 1628.0000 1.0000
28.5200 1658.0000 1.0000
28.5300 1589.0000 1.0000
28.5400 1589.0000 1.0000
28.5500 1666.0000 1.0000
28.5600 1637.0000 1.0000
28.5700 1625.0000 1.0000
28.5800 1601.0000 1.0000
28.5900 1645.0000 1.0000
28.6000 1595.0000 1.0000
28.6100 1603.0000 1.0000
28.6200 1585.0000 1.0000
28.6300 1626.0000 1.0000
28.6400 1564.0000 1.0000
28.6500 1594.0000 1.0000
28.6600 1636.0000 1.0000
28.6700 1562.0000 1.0000
28.6800 1638.0000 1.0000
28.6900 1589.0000 1.0000
28.7000 1680.0000 1.0000
28.7100 1575.0000 1.0000
28.7200 1583.0000 1.0000
28.7300 1612.0000 1.0000
28.7400 1539.0000 1.0000
28.7500 1628.0000 1.0000
28.7600 1608.0000 1.0000
28.7700 1520.0000 1.0000
28.7800 1564.0000 1.0000
28.7900 1598.0000 1.0000
28.8000 1624.0000 1.0000
28.8100 1556.0000 1.0000
28.8200 1521.0000 1.0000
28.8300 1543.0000 1.0000
28.8400 1561.0000 1.0000
28.8500 1606.0000 1.0000
28.8600 1646.0000 1.0000
28.8700 1618.0000 1.0000
28.8800 1542.0000 1.0000
28.8900 1603.0000 1.0000
28.9000 1523.0000 1.0000
28.9100 1556.0000 1.0000
28.9200 1607.0000 1.0000
28.9300 1621.0000 1.0000
28.9400 1558.0000 1.0000
28.9500 1543.0000 1.0000
28.9600 1588.0000 1.0000
28.9700 1567.0000 1.0000
28.9800 1556.0000 1.0000
28.9900 1569.0000 1.0000
29.0000 1581.0000 1.0000
29.0100 1558.0000 1.0000
29.0200 1575.0000 1.0000
29.0300 1561.0000 1.0000
29.0400 1486.0000 1.0000
29.0500 1568.0000 1.0000
29.0600 1504.0000 1.0000
29.0700 1518.0000 1.0000
29.0800 1517.0000 1.0000
29.0900 1630.0000 1.0000
29.1000 1536.0000 1.0000
29.1100 1585.0000 1.0000
29.1200 1530.0000 1.0000
29.1300 1539.0000 1.0000
29.1400 1578.0000 1.0000
29.1500 1562.0000 1.0000
29.1600 1565.0000 1.0000
29.1700 1579.0000 1.0000
29.1800 1534.0000 1.0000
29.1900 1587.0000 1.0000
29.2000 1552.0000 1.0000
29.2100 1560.0000 1.0000
29.2200 1581.0000 1.0000
29.2300 1531.0000 1.0000
29.2400 1567.0000 1.0000
29.2500 1612.0000 1.0000
29.2600 1575.0000 1.0000
29.2700 1516.0000 1.0000
29.2800 1498.0000 1.0000
29.2900 1523.0000 1.0000
29.3000 1511.0000 1.0000
29.3100 1574.0000 1.0000
29.3200 1544.0000 1.0000
29.3300 1543.0000 1.0000
29.3400 1525.0000 1.0000
29.3500 1578.0000 1.0000
29.3600 1575.0000 1.0000
29.3700 1555.0000 1.0000
29.3800 1562.0000 1.0000
29.3900 1527.0000 1.0000
29.4000 1556.0000 1.0000
29.4100 1520.0000 1.0000
29.4200 1486.0000 1.0000
29.4300 1579.0000 1.0000
29.4400 1531.0000 1.0000
29.4500 1489.0000 1.0000
29.4600 1527.0000 1.0000
29.4700 1552.0000 1.0000
29.4800 1550.0000 1.0000
29.4900 1463.0000 1.0000
29.5000 1584.0000 1.0000
29.5100 1574.0000 1.0000
29.5200 1448.0000 1.0000
29.5300 1537.0000 1.0000
29.5400 1547.0000 1.0000
29.5500 1604.0000 1.0000
29.5600 1487.0000 1.0000
29.5700 1534.0000 1.0000
29.5800 1539.0000 1.0000
29.5900 1528.0000 1.0000
29.6000 1595.0000 1.0000
29.6100 1600.0000 1.0000
29.6200 1555.0000 1.0000
29.6300 1521.0000 1.0000
29.6400 1585.0000 1.0000
29.6500 1551.0000 1.0000
29.6600 1537.0000 1.0000
29.6700 1544.0000 1.0000
29.6800 1518.0000 1.0000
29.6900 1579.0000 1.0000
29.7000 1552.0000 1.0000
29.7100 1521.0000 1.0000
29.7200 1544.0000 1.0000
29.7300 1485.0000 1.0000
29.7400 1539.0000 1.0000
29.7500 1533.0000 1.0000
29.7600 1566.0000 1.0000
29.7700 1509.0000 1.0000
29.7800 1518.0000 1.0000
29.7900 1516.0000 1.0000
29.8000 1531.0000 1.0000
29.8100 1511.0000 1.0000
29.8200 1538.0000 1.0000
29.8300 1551.0000 1.0000
29.8400 1447.0000 1.0000
29.8500 1455.0000 1.0000
29.8600 1503.0000 1.0000
29.8700 1486.0000 1.0000
29.8800 1547.0000 1.0000
29.8900 1530.0000 1.0000
29.9000 1539.0000 1.0000
29.9100 1501.0000 1.0000
29.9200 1469.0000 1.0000
29.9300 1491.0000 1.0000
29.9400 1564.0000 1.0000
29.9500 1555.0000 1.0000
29.9600 1489.0000 1.0000
29.9700 1524.0000 1.0000
29.9800 1517.0000 1.0000
29.9900 1523.0000 1.0000
30.0000 1394.0000 1.0000
30.0100 1478.0000 1.0000
30.0200 1490.0000 1.0000
30.0300 1465.0000 1.0000
30.0400 1511.0000 1.0000
30.0500 1461.0000 1.0000
30.0600 1506.0000 1.0000
30.0700 1539.0000 1.0000
30.0800 1543.0000 1.0000
30.0900 1542.0000 1.0000
30.1000 1473.0000 1.0000
30.1100 1465.0000 1.0000
30.1200 1465.0000 1.0000
30.1300 1504.0000 1.0000
30.1400 1478.0000 1.0000
30.1500 1511.0000 1.0000
30.1600 1488.0000 1.0000
30.1700 1447.0000 1.0000
30.1800 1448.0000 1.0000
30.1900 1516.0000 1.0000
30.2000 1458.0000 1.0000
30.2100 1502.0000 1.0000
30.2200 1463.0000 1.0000
30.2300 1459.0000 1.0000
30.2400 1438.0000 1.0000
30.2500 1468.0000 1.0000
30.2600 1438.0000 1.0000
30.2700 1454.0000 1.0000
30.2800 1488.0000 1.0000
30.2900 1510.0000 1.0000
30.3000 1514.0000 1.0000
30.3100 1589.0000 1.0000
30.3200 1455.0000 1.0000
30.3300 1419.0000 1.0000
30.3400 1453.0000 1.0000
30.3500 1474.0000 1.0000
30.3600 1495.0000 1.0000
30.3700 1474.0000 1.0000
30.3800 1470.0000 1.0000
30.3900 1514.0000 1.0000
30.4000 1448.0000 1.0000
30.4100 1461.0000 1.0000
30.4200 1507.0000 1.0000
30.4300 1486.0000 1.0000
30.4400 1453.0000 1.0000
30.4500 1468.0000 1.0000
30.4600 1509.0000 1.0000
30.4700 1491.0000 1.0000
30.4800 1463.0000 1.0000
30.4900 1462.0000 1.0000
30.5000 1533.0000 1.0000
30.5100 1451.0000 1.0000
30.5200 1435.0000 1.0000
30.5300 1437.0000 1.0000
30.5400 1401.0000 1.0000
30.5500 1428.0000 1.0000
30.5600 1456.0000 1.0000
30.5700 1455.0000 1.0000
30.5800 1434.0000 1.0000
30.5900 1436.0000 1.0000
30.6000 1521.0000 1.0000
30.6100 1441.0000 1.0000
30.6200 1428.0000 1.0000
30.6300 1441.0000 1.0000
30.6400 1403.0000 1.0000
30.6500 1421.0000 1.0000
30.6600 1428.0000 1.0000
30.6700 1485.0000 1.0000
30.6800 1485.0000 1.0000
30.6900 1495.0000 1.0000
30.7000 1459.0000 1.0000
30.7100 1469.0000 1.0000
30.7200 1493.0000 1.0000
30.7300 1459.0000 1.0000
30.7400 1523.0000 1.0000
30.7500 1463.0000 1.0000
30.7600 1507.0000 1.0000
30.7700 1502.0000 1.0000
30.7800 1460.0000 1.0000
30.7900 1446.0000 1.0000
30.8000 1456.0000 1.0000
30.8100 1412.0000 1.0000
30.8200 1480.0000 1.0000
30.8300 1423.0000 1.0000
30.8400 1388.0000 1.0000
30.8500 1455.0000 1.0000
30.8600 1439.0000 1.0000
30.8700 1436.0000 1.0000
30.8800 1534.0000 1.0000
30.8900 1470.0000 1.0000
30.9000 1484.0000 1.0000
30.9100 1448.0000 1.0000
30.9200 1478.0000 1.0000
30.9300 1489.0000 1.0000
30.9400 1512.0000 1.0000
30.9500 1445.0000 1.0000
30.9600 1503.0000 1.0000
30.9700 1492.0000 1.0000
30.9800 1454.0000 1.0000
30.9900 1434.0000 1.0000
31.0000 1445.0000 1.0000
31.0100 1433.0000 1.0000
31.0200 1429.0000 1.0000
31.0300 1448.0000 1.0000
31.0400 1469.0000 1.0000
31.0500 1399.0000 1.0000
31.0600 1412.0000 1.0000
31.0700 1441.0000 1.0000
31.0800 1416.0000 1.0000
31.0900 1410.0000 1.0000
31.1000 1406.0000 1.0000
31.1100 1488.0000 1.0000
31.1200 1444.0000 1.0000
31.1300 1454.0000 1.0000
31.1400 1486.0000 1.0000
31.1500 1456.0000 1.0000
31.1600 1466.0000 1.0000
31.1700 1433.0000 1.0000
31.1800 1430.0000 1.0000
31.1900 1526.0000 1.0000
31.2000 1459.0000 1.0000
31.2100 1405.0000 1.0000
31.2200 1402.0000 1.0000
31.2300 1421.0000 1.0000
31.2400 1477.0000 1.0000
31.2500 1468.0000 1.0000
31.2600 1491.0000 1.0000
31.2700 1429.0000 1.0000
31.2800 1455.0000 1.0000
31.2900 1384.0000 1.0000
31.3000 1412.0000 1.0000
31.3100 1418.0000 1.0000
31.3200 1408.0000 1.0000
31.3300 1412.0000 1.0000
31.3400 1378.0000 1.0000
31.3500 1422.0000 1.0000
31.3600 1407.0000 1.0000
31.3700 1449.0000 1.0000
31.3800 1428.0000 1.0000
31.3900 1428.0000 1.0000
31.4000 1413.0000 1.0000
31.4100 1485.0000 1.0000
31.4200 1424.0000 1.0000
31.4300 1465.0000 1.0000
31.4400 1450.0000 1.0000
31.4500 1480.0000 1.0000
31.4600 1415.0000 1.0000
31.4700 1457.0000 1.0000
31.4800 1428.0000 1.0000
31.4900 1470.0000 1.0000
31.5000 1472.0000 1.0000
31.5100 1403.0000 1.0000
31.5200 1377.0000 1.0000
31.5300 1393.0000 1.0000
31.5400 1380.0000 1.0000
31.5500 1423.0000 1.0000
31.5600 1410.0000 1.0000
31.5700 1400.0000 1.0000
31.5800 1329.0000 1.0000
31.5900 1395.0000 1.0000
31.6000 1384.0000 1.0000
31.6100 1405.0000 1.0000
31.6200 1417.0000 1.0000
31.6300 1440.0000 1.0000
31.6400 1379.0000 1.0000
31.6500 1424.0000 1.0000
31.6600 1336.0000 1.0000
31.6700 1399.0000 1.0000
31.6800 1445.0000 1.0000
31.6900 1458.0000 1.0000
31.7000 1329.0000 1.0000
31.7100 1401.0000 1.0000
31.7200 1435.0000 1.0000
31.7300 1419.0000 1.0000
31.7400 1419.0000 1.0000
31.7500 1476.0000 1.0000
31.7600 1376.0000 1.0000
31.7700 1393.0000 1.0000
31.7800 1392.0000 1.0000
31.7900 1377.0000 1.0000
31.8000 1356.0000 1.0000
31.8100 1364.0000 1.0000
31.8200 1417.0000 1.0000
31.8300 1395.0000 1.0000
31.8400 1442.0000 1.0000
31.8500 1356.0000 1.0000
31.8600 1417.0000 1.0000
31.8700 1425.0000 1.0000
31.8800 1399.0000 1.0000
31.8900 1439.0000 1.0000
31.9000 1476.0000 1.0000
31.9100 1433.0000 1.0000
31.9200 1453.0000 1.0000
31.9300 1395.0000 1.0000
31.9400 1397.0000 1.0000
31.9500 1442.0000 1.0000
31.9600 1361.0000 1.0000
31.9700 1399.0000 1.0000
31.9800 1425.0000 1.0000
31.9900 1484.0000 1.0000
32.0000 1408.0000 1.0000
32.0100 1461.0000 1.0000
32.0200 1396.0000 1.0000
32.0300 1393.0000 1.0000
32.0400 1436.0000 1.0000
32.0500 1417.0000 1.0000
32.0600 1390.0000 1.0000
32.0700 1452.0000 1.0000
32.0800 1432.0000 1.0000
32.0900 1417.0000 1.0000
32.1000 1437.0000 1.0000
32.1100 1421.0000 1.0000
32.1200 1371.0000 1.0000
32.1300 1431.0000 1.0000
32.1400 1308.0000 1.0000
32.1500 1353.0000 1.0000
32.1600 1394.0000 1.0000
32.1700 1389.0000 1.0000
32.1800 1391.0000 1.0000
32.1900 1374.0000 1.0000
32.2000 1347.0000 1.0000
32.2100 1376.0000 1.0000
32.2200 1371.0000 1.0000
32.2300 1386.0000 1.0000
32.2400 1353.0000 1.0000
32.2500 1393.0000 1.0000
32.2600 1354.0000 1.0000
32.2700 1342.0000 1.0000
32.2800 1342.0000 1.0000
32.2900 1405.0000 1.0000
32.3000 1416.0000 1.0000
32.3100 1360.0000 1.0000
32.3200 1398.0000 1.0000
32.3300 1411.0000 1.0000
32.3400 1277.0000 1.0000
32.3500 1365.0000 1.0000
32.3600 1348.0000 1.0000
32.3700 1372.0000 1.0000
32.3800 1345.0000 1.0000
32.3900 1359.0000 1.0000
32.4000 1386.0000 1.0000
32.4100 1412.0000 1.0000
32.4200 1366.0000 1.0000
32.4300 1364.0000 1.0000
32.4400 1344.0000 1.0000
32.4500 1358.0000 1.0000
32.4600 1397.0000 1.0000
32.4700 1359.0000 1.0000
32.4800 1398.0000 1.0000
32.4900 1359.0000 1.0000
32.5000 1348.0000 1.0000
32.5100 1392.0000 1.0000
32.5200 1298.0000 1.0000
32.5300 1382.0000 1.0000
32.5400 1393.0000 1.0000
32.5500 1355.0000 1.0000
32.5600 1328.0000 1.0000
32.5700 1380.0000 1.0000
32.5800 1390.0000 1.0000
32.5900 1375.0000 1.0000
32.6000 1316.0000 1.0000
32.6100 1263.0000 1.0000
32.6200 1317.0000 1.0000
32.6300 1312.0000 1.0000
32.6400 1331.0000 1.0000
32.6500 1357.0000 1.0000
32.6600 1348.0000 1.0000
32.6700 1307.0000 1.0000
32.6800 1392.0000 1.0000
32.6900 1359.0000 1.0000
32.7000 1346.0000 1.0000
32.7100 1380.0000 1.0000
32.7200 1368.0000 1.0000
32.7300 1333.0000 1.0000
32.7400 1280.0000 1.0000
32.7500 1292.0000 1.0000
32.7600 1327.0000 1.0000
32.7700 1326.0000 1.0000
32.7800 1332.0000 1.0000
32.7900 1305.0000 1.0000
32.8000 1342.0000 1.0000
32.8100 1302.0000 1.0000
32.8200 1298.0000 1.0000
32.8300 1336.0000 1.0000
32.8400 1311.0000 1.0000
32.8500 1308.0000 1.0000
32.8600 1348.0000 1.0000
32.8700 1360.0000 1.0000
32.8800 1384.0000 1.0000
32.8900 1359.0000 1.0000
32.9000 1376.0000 1.0000
32.9100 1360.0000 1.0000
32.9200 1340.0000 1.0000
32.9300 1348.0000 1.0000
32.9400 1358.0000 1.0000
32.9500 1371.0000 1.0000
32.9600 1352.0000 1.0000
32.9700 1331.0000 1.0000
32.9800 1308.0000 1.0000
32.9900 1335.0000 1.0000
33.0000 1364.0000 1.0000
33.0100 1357.0000 1.0000
33.0200 1311.0000 1.0000
33.0300 1285.0000 1.0000
33.0400 1331.0000 1.0000
33.0500 1321.0000 1.0000
33.0600 1313.0000 1.0000
33.0700 1304.0000 1.0000
33.0800 1286.0000 1.0000
33.0900 1361.0000 1.0000
33.1000 1294.0000 1.0000
33.1100 1300.0000 1.0000
33.1200 1274.0000 1.0000
33.1300 1322.0000 1.0000
33.1400 1318.0000 1.0000
33.1500 1314.0000 1.0000
33.1600 1322.0000 1.0000
33.1700 1311.0000 1.0000
33.1800 1275.0000 1.0000
33.1900 1292.0000 1.0000
33.2000 1337.0000 1.0000
33.2100 1338.0000 1.0000
33.2200 1347.0000 1.0000
33.2300 1307.0000 1.0000
33.2400 1337.0000 1.0000
33.2500 1287.0000 1.0000
33.2600 1303.0000 1.0000
33.2700 1311.0000 1.0000
33.2800 1342.0000 1.0000
33.2900 1347.0000 1.0000
33.3000 1262.0000 1.0000
33.3100 1367.0000 1.0000
33.3200 1322.0000 1.0000
33.3300 1281.0000 1.0000
33.3400 1310.0000 1.0000
33.3500 1345.0000 1.0000
33.3600 1303.0000 1.0000
33.3700 1358.0000 1.0000
33.3800 1332.0000 1.0000
33.3900 1392.0000 1.0000
33.4000 1284.0000 1.0000
33.4100 1291.0000 1.0000
33.4200 1263.0000 1.0000
33.4300 1271.0000 1.0000
33.4400 1344.0000 1.0000
33.4500 1287.0000 1.0000
33.4600 1290.0000 1.0000
33.4700 1299.0000 1.0000
33.4800 1267.0000 1.0000
33.4900 1298.0000 1.0000
33.5000 1308.0000 1.0000
33.5100 1351.0000 1.0000
33.5200 1311.0000 1.0000
33.5300 1294.0000 1.0000
33.5400 1338.0000 1.0000
33.5500 1301.0000 1.0000
33.5600 1333.0000 1.0000
33.5700 1359.0000 1.0000
33.5800 1365.0000 1.0000
33.5900 1300.0000 1.0000
33.6000 1337.0000 1.0000
33.6100 1380.0000 1.0000
33.6200 1379.0000 1.0000
33.6300 1299.0000 1.0000
33.6400 1302.0000 1.0000
33.6500 1291.0000 1.0000
33.6600 1355.0000 1.0000
33.6700 1302.0000 1.0000
33.6800 1352.0000 1.0000
33.6900 1321.0000 1.0000
33.7000 1370.0000 1.0000
33.7100 1401.0000 1.0000
33.7200 1378.0000 1.0000
33.7300 1334.0000 1.0000
33.7400 1352.0000 1.0000
33.7500 1357.0000 1.0000
33.7600 1363.0000 1.0000
33.7700 1331.0000 1.0000
33.7800 1388.0000 1.0000
33.7900 1380.0000 1.0000
33.8000 1405.0000 1.0000
33.8100 1403.0000 1.0000
33.8200 1455.0000 1.0000
33.8300 1420.0000 1.0000
33.8400 1443.0000 1.0000
33.8500 1439.0000 1.0000
33.8600 1465.0000 1.0000
33.8700 1479.0000 1.0000
33.8800 1447.0000 1.0000
33.8900 1527.0000 1.0000
33.9000 1585.0000 1.0000
33.9100 1526.0000 1.0000
33.9200 1555.0000 1.0000
33.9300 1501.0000 1.0000
33.9400 1511.0000 1.0000
33.9500 1497.0000 1.0000
33.9600 1496.0000 1.0000
33.9700 1516.0000 1.0000
33.9800 1498.0000 1.0000
33.9900 1547.0000 1.0000
34.0000 1552.0000 1.0000
34.0100 1584.0000 1.0000
34.0200 1514.0000 1.0000
34.0300 1553.0000 1.0000
34.0400 1540.0000 1.0000
34.0500 1555.0000 1.0000
34.0600 1513.0000 1.0000
34.0700 1536.0000 1.0000
34.0800 1530.0000 1.0000
34.0900 1483.0000 1.0000
34.1000 1480.0000 1.0000
34.1100 1502.0000 1.0000
34.1200 1528.0000 1.0000
34.1300 1504.0000 1.0000
34.1400 1467.0000 1.0000
34.1500 1525.0000 1.0000
34.1600 1600.0000 1.0000
34.1700 1550.0000 1.0000
34.1800 1515.0000 1.0000
34.1900 1513.0000 1.0000
34.2000 1507.0000 1.0000
34.2100 1529.0000 1.0000
34.2200 1545.0000 1.0000
34.2300 1620.0000 1.0000
34.2400 1607.0000 1.0000
34.2500 1644.0000 1.0000
34.2600 1637.0000 1.0000
34.2700 1724.0000 1.0000
34.2800 1790.0000 1.0000
34.2900 1732.0000 1.0000
34.3000 1792.0000 1.0000
34.3100 1783.0000 1.0000
34.3200 1814.0000 1.0000
34.3300 1923.0000 1.0000
34.3400 1928.0000 1.0000
34.3500 2038.0000 1.0000
34.3600 2095.0000 1.0000
34.3700 2190.0000 1.0000
34.3800 2240.0000 1.0000
34.3900 2363.0000 1.0000
34.4000 2497.0000 1.0000
34.4100 2611.0000 1.0000
34.4200 2637.0000 1.0000
34.4300 2797.0000 1.0000
34.4400 2951.0000 1.0000
34.4500 3121.0000 1.0000
34.4600 3192.0000 1.0000
34.4700 3300.0000 1.0000
34.4800 3276.0000 1.0000
34.4900 3415.0000 1.0000
34.5000 3383.0000 1.0000
34.5100 3399.0000 1.0000
34.5200 3484.0000 1.0000
34.5300 3322.0000 1.0000
34.5400 3289.0000 1.0000
34.5500 3300.0000 1.0000
34.5600 3162.0000 1.0000
34.5700 3145.0000 1.0000
34.5800 2945.0000 1.0000
34.5900 2854.0000 1.0000
34.6000 2817.0000 1.0000
34.6100 2622.0000 1.0000
34.6200 2609.0000 1.0000
34.6300 2498.0000 1.0000
34.6400 2333.0000 1.0000
34.6500 2293.0000 1.0000
34.6600 2280.0000 1.0000
34.6700 2145.0000 1.0000
34.6800 2072.0000 1.0000
34.6900 1966.0000 1.0000
34.7000 1895.0000 1.0000
34.7100 1805.0000 1.0000
34.7200 1815.0000 1.0000
34.7300 1849.0000 1.0000
34.7400 1759.0000 1.0000
34.7500 1784.0000 1.0000
34.7600 1643.0000 1.0000
34.7700 1638.0000 1.0000
34.7800 1616.0000 1.0000
34.7900 1565.0000 1.0000
34.8000 1597.0000 1.0000
34.8100 1624.0000 1.0000
34.8200 1610.0000 1.0000
34.8300 1491.0000 1.0000
34.8400 1497.0000 1.0000
34.8500 1477.0000 1.0000
34.8600 1468.0000 1.0000
34.8700 1418.0000 1.0000
34.8800 1439.0000 1.0000
34.8900 1469.0000 1.0000
34.9000 1431.0000 1.0000
34.9100 1321.0000 1.0000
34.9200 1400.0000 1.0000
34.9300 1325.0000 1.0000
34.9400 1338.0000 1.0000
34.9500 1362.0000 1.0000
34.9600 1372.0000 1.0000
34.9700 1406.0000 1.0000
34.9800 1359.0000 1.0000
34.9900 1269.0000 1.0000
35.0000 1289.0000 1.0000
35.0100 1313.0000 1.0000
35.0200 1318.0000 1.0000
35.0300 1321.0000 1.0000
35.0400 1223.0000 1.0000
35.0500 1279.0000 1.0000
35.0600 1349.0000 1.0000
35.0700 1277.0000 1.0000
35.0800 1239.0000 1.0000
35.0900 1263.0000 1.0000
35.1000 1243.0000 1.0000
35.1100 1254.0000 1.0000
35.1200 1245.0000 1.0000
35.1300 1228.0000 1.0000
35.1400 1173.0000 1.0000
35.1500 1218.0000 1.0000
35.1600 1185.0000 1.0000
35.1700 1180.0000 1.0000
35.1800 1194.0000 1.0000
35.1900 1224.0000 1.0000
35.2000 1212.0000 1.0000
35.2100 1214.0000 1.0000
35.2200 1190.0000 1.0000
35.2300 1246.0000 1.0000
35.2400 1220.0000 1.0000
35.2500 1226.0000 1.0000
35.2600 1207.0000 1.0000
35.2700 1228.0000 1.0000
35.2800 1223.0000 1.0000
35.2900 1219.0000 1.0000
35.3000 1223.0000 1.0000
35.3100 1218.0000 1.0000
35.3200 1210.0000 1.0000
35.3300 1200.0000 1.0000
35.3400 1176.0000 1.0000
35.3500 1211.0000 1.0000
35.3600 1202.0000 1.0000
35.3700 1227.0000 1.0000
35.3800 1152.0000 1.0000
35.3900 1150.0000 1.0000
35.4000 1214.0000 1.0000
35.4100 1177.0000 1.0000
35.4200 1186.0000 1.0000
35.4300 1183.0000 1.0000
35.4400 1163.0000 1.0000
35.4500 1147.0000 1.0000
35.4600 1133.0000 1.0000
35.4700 1207.0000 1.0000
35.4800 1165.0000 1.0000
35.4900 1191.0000 1.0000
35.5000 1164.0000 1.0000
35.5100 1136.0000 1.0000
35.5200 1176.0000 1.0000
35.5300 1148.0000 1.0000
35.5400 1175.0000 1.0000
35.5500 1180.0000 1.0000
35.5600 1121.0000 1.0000
35.5700 1133.0000 1.0000
35.5800 1192.0000 1.0000
35.5900 1177.0000 1.0000
35.6000 1188.0000 1.0000
35.6100 1144.0000 1.0000
35.6200 1152.0000 1.0000
35.6300 1113.0000 1.0000
35.6400 1135.0000 1.0000
35.6500 1192.0000 1.0000
35.6600 1118.0000 1.0000
35.6700 1153.0000 1.0000
35.6800 1131.0000 1.0000
35.6900 1144.0000 1.0000
35.7000 1145.0000 1.0000
35.7100 1231.0000 1.0000
35.7200 1138.0000 1.0000
35.7300 1167.0000 1.0000
35.7400 1150.0000 1.0000
35.7500 1105.0000 1.0000
35.7600 1189.0000 1.0000
35.7700 1097.0000 1.0000
35.7800 1135.0000 1.0000
35.7900 1182.0000 1.0000
35.8000 1187.0000 1.0000
35.8100 1087.0000 1.0000
35.8200 1098.0000 1.0000
35.8300 1155.0000 1.0000
35.8400 1202.0000 1.0000
35.8500 1130.0000 1.0000
35.8600 1131.0000 1.0000
35.8700 1092.0000 1.0000
35.8800 1109.0000 1.0000
35.8900 1131.0000 1.0000
35.9000 1075.0000 1.0000
35.9100 1152.0000 1.0000
35.9200 1162.0000 1.0000
35.9300 1141.0000 1.0000
35.9400 1098.0000 1.0000
35.9500 1116.0000 1.0000
35.9600 1140.0000 1.0000
35.9700 1133.0000 1.0000
35.9800 1113.0000 1.0000
35.9900 1131.0000 1.0000
36.0000 1128.0000 1.0000
36.0100 1094.0000 1.0000
36.0200 1099.0000 1.0000
36.0300 1122.0000 1.0000
36.0400 1190.0000 1.0000
36.0500 1161.0000 1.0000
36.0600 1118.0000 1.0000
36.0700 1170.0000 1.0000
36.0800 1164.0000 1.0000
36.0900 1130.0000 1.0000
36.1000 1064.0000 1.0000
36.1100 1168.0000 1.0000
36.1200 1179.0000 1.0000
36.1300 1172.0000 1.0000
36.1400 1186.0000 1.0000
36.1500 1140.0000 1.0000
36.1600 1183.0000 1.0000
36.1700 1203.0000 1.0000
36.1800 1178.0000 1.0000
36.1900 1194.0000 1.0000
36.2000 1228.0000 1.0000
36.2100 1177.0000 1.0000
36.2200 1198.0000 1.0000
36.2300 1236.0000 1.0000
36.2400 1204.0000 1.0000
36.2500 1282.0000 1.0000
36.2600 1299.0000 1.0000
36.2700 1313.0000 1.0000
36.2800 1370.0000 1.0000
36.2900 1328.0000 1.0000
36.3000 1352.0000 1.0000
36.3100 1468.0000 1.0000
36.3200 1475.0000 1.0000
36.3300 1519.0000 1.0000
36.3400 1642.0000 1.0000
36.3500 1702.0000 1.0000
36.3600 1739.0000 1.0000
36.3700 1858.0000 1.0000
36.3800 1918.0000 1.0000
36.3900 1948.0000 1.0000
36.4000 2039.0000 1.0000
36.4100 1989.0000 1.0000
36.4200 1974.0000 1.0000
36.4300 1955.0000 1.0000
36.4400 1949.0000 1.0000
36.4500 1892.0000 1.0000
36.4600 1898.0000 1.0000
36.4700 1809.0000 1.0000
36.4800 1777.0000 1.0000
36.4900 1708.0000 1.0000
36.5000 1658.0000 1.0000
36.5100 1623.0000 1.0000
36.5200 1573.0000 1.0000
36.5300 1495.0000 1.0000
36.5400 1532.0000 1.0000
36.5500 1460.0000 1.0000
36.5600 1439.0000 1.0000
36.5700 1349.0000 1.0000
36.5800 1260.0000 1.0000
36.5900 1186.0000 1.0000
36.6000 1215.0000 1.0000
36.6100 1190.0000 1.0000
36.6200 1264.0000 1.0000
36.6300 1180.0000 1.0000
36.6400 1131.0000 1.0000
36.6500 1141.0000 1.0000
36.6600 1151.0000 1.0000
36.6700 1128.0000 1.0000
36.6800 1081.0000 1.0000
36.6900 1062.0000 1.0000
36.7000 1111.0000 1.0000
36.7100 1136.0000 1.0000
36.7200 1120.0000 1.0000
36.7300 1041.0000 1.0000
36.7400 1067.0000 1.0000
36.7500 1177.0000 1.0000
36.7600 1105.0000 1.0000
36.7700 1118.0000 1.0000
36.7800 1117.0000 1.0000
36.7900 1038.0000 1.0000
36.8000 1073.0000 1.0000
36.8100 1019.0000 1.0000
36.8200 1100.0000 1.0000
36.8300 1093.0000 1.0000
36.8400 1078.0000 1.0000
36.8500 1105.0000 1.0000
36.8600 1084.0000 1.0000
36.8700 1054.0000 1.0000
36.8800 1076.0000 1.0000
36.8900 1036.0000 1.0000
36.9000 1046.0000 1.0000
36.9100 1082.0000 1.0000
36.9200 1061.0000 1.0000
36.9300 1064.0000 1.0000
36.9400 994.0000 1.0000
36.9500 1034.0000 1.0000
36.9600 1021.0000 1.0000
36.9700 1046.0000 1.0000
36.9800 1063.0000 1.0000
36.9900 1094.0000 1.0000
37.0000 1083.0000 1.0000
37.0100 1011.0000 1.0000
37.0200 1016.0000 1.0000
37.0300 1110.0000 1.0000
37.0400 1050.0000 1.0000
37.0500 1078.0000 1.0000
37.0600 1072.0000 1.0000
37.0700 1041.0000 1.0000
37.0800 1035.0000 1.0000
37.0900 1014.0000 1.0000
37.1000 1101.0000 1.0000
37.1100 1027.0000 1.0000
37.1200 1000.0000 1.0000
37.1300 978.0000 1.0000
37.1400 1011.0000 1.0000
37.1500 1070.0000 1.0000
37.1600 1078.0000 1.0000
37.1700 1015.0000 1.0000
37.1800 1060.0000 1.0000
37.1900 1077.0000 1.0000
37.2000 1016.0000 1.0000
37.2100 1094.0000 1.0000
37.2200 967.0000 1.0000
37.2300 1036.0000 1.0000
37.2400 1044.0000 1.0000
37.2500 1021.0000 1.0000
37.2600 1054.0000 1.0000
37.2700 1038.0000 1.0000
37.2800 1069.0000 1.0000
37.2900 1039.0000 1.0000
37.3000 1083.0000 1.0000
37.3100 1028.0000 1.0000
37.3200 1001.0000 1.0000
37.3300 1016.0000 1.0000
37.3400 1086.0000 1.0000
37.3500 1052.0000 1.0000
37.3600 1022.0000 1.0000
37.3700 1049.0000 1.0000
37.3800 1079.0000 1.0000
37.3900 1022.0000 1.0000
37.4000 1099.0000 1.0000
37.4100 1093.0000 1.0000
37.4200 994.0000 1.0000
37.4300 1039.0000 1.0000
37.4400 1063.0000 1.0000
37.4500 1079.0000 1.0000
37.4600 1086.0000 1.0000
37.4700 1066.0000 1.0000
37.4800 1015.0000 1.0000
37.4900 1084.0000 1.0000
37.5000 1010.0000 1.0000
37.5100 1032.0000 1.0000
37.5200 1015.0000 1.0000
37.5300 1025.0000 1.0000
37.5400 999.0000 1.0000
37.5500 1023.0000 1.0000
37.5600 1115.0000 1.0000
37.5700 1045.0000 1.0000
37.5800 1062.0000 1.0000
37.5900 1043.0000 1.0000
37.6000 1020.0000 1.0000
37.6100 1039.0000 1.0000
37.6200 1088.0000 1.0000
37.6300 1066.0000 1.0000
37.6400 1067.0000 1.0000
37.6500 1080.0000 1.0000
37.6600 1035.0000 1.0000
37.6700 1059.0000 1.0000
37.6800 1046.0000 1.0000
37.6900 1031.0000 1.0000
37.7000 1056.0000 1.0000
37.7100 1028.0000 1.0000
37.7200 988.0000 1.0000
37.7300 1044.0000 1.0000
37.7400 1058.0000 1.0000
37.7500 1051.0000 1.0000
37.7600 1077.0000 1.0000
37.7700 1093.0000 1.0000
37.7800 1081.0000 1.0000
37.7900 1052.0000 1.0000
37.8000 1064.0000 1.0000
37.8100 1004.0000 1.0000
37.8200 1072.0000 1.0000
37.8300 1018.0000 1.0000
37.8400 1088.0000 1.0000
37.8500 1044.0000 1.0000
37.8600 1034.0000 1.0000
37.8700 1102.0000 1.0000
37.8800 1071.0000 1.0000
37.8900 1113.0000 1.0000
37.9000 1049.0000 1.0000
37.9100 1015.0000 1.0000
37.9200 1066.0000 1.0000
37.9300 1061.0000 1.0000
37.9400 1137.0000 1.0000
37.9500 1093.0000 1.0000
37.9600 1077.0000 1.0000
37.9700 1115.0000 1.0000
37.9800 1151.0000 1.0000
37.9900 1027.0000 1.0000
38.0000 1116.0000 1.0000
38.0100 1107.0000 1.0000
38.0200 1083.0000 1.0000
38.0300 1152.0000 1.0000
38.0400 1153.0000 1.0000
38.0500 1161.0000 1.0000
38.0600 1133.0000 1.0000
38.0700 1157.0000 1.0000
38.0800 1161.0000 1.0000
38.0900 1127.0000 1.0000
38.1000 1144.0000 1.0000
38.1100 1234.0000 1.0000
38.1200 1234.0000 1.0000
38.1300 1241.0000 1.0000
38.1400 1256.0000 1.0000
38.1500 1259.0000 1.0000
38.1600 1307.0000 1.0000
38.1700 1319.0000 1.0000
38.1800 1323.0000 1.0000
38.1900 1406.0000 1.0000
38.2000 1517.0000 1.0000
38.2100 1511.0000 1.0000
38.2200 1428.0000 1.0000
38.2300 1509.0000 1.0000
38.2400 1449.0000 1.0000
38.2500 1492.0000 1.0000
38.2600 1533.0000 1.0000
38.2700 1696.0000 1.0000
38.2800 1704.0000 1.0000
38.2900 1755.0000 1.0000
38.3000 1769.0000 1.0000
38.3100 1989.0000 1.0000
38.3200 2075.0000 1.0000
38.3300 2136.0000 1.0000
38.3400 2254.0000 1.0000
38.3500 2375.0000 1.0000
38.3600 2456.0000 1.0000
38.3700 2641.0000 1.0000
38.3800 2751.0000 1.0000
38.3900 2992.0000 1.0000
38.4000 3109.0000 1.0000
38.4100 3342.0000 1.0000
38.4200 3531.0000 1.0000
38.4300 3750.0000 1.0000
38.4400 4207.0000 1.0000
38.4500 4348.0000 1.0000
38.4600 4769.0000 1.0000
38.4700 4969.0000 1.0000
38.4800 5392.0000 1.0000
38.4900 5629.0000 1.0000
38.5000 5847.0000 1.0000
38.5100 6038.0000 1.0000
38.5200 6426.0000 1.0000
38.5300 6499.0000 1.0000
38.5400 6397.0000 1.0000
38.5500 6488.0000 1.0000
38.5600 6470.0000 1.0000
38.5700 6475.0000 1.0000
38.5800 6203.0000 1.0000
38.5900 6182.0000 1.0000
38.6000 5961.0000 1.0000
38.6100 5674.0000 1.0000
38.6200 5633.0000 1.0000
38.6300 5334.0000 1.0000
38.6400 5056.0000 1.0000
38.6500 4801.0000 1.0000
38.6600 4586.0000 1.0000
38.6700 4408.0000 1.0000
38.6800 4024.0000 1.0000
38.6900 3747.0000 1.0000
38.7000 3523.0000 1.0000
38.7100 3320.0000 1.0000
38.7200 3027.0000 1.0000
38.7300 2963.0000 1.0000
38.7400 2728.0000 1.0000
38.7500 2588.0000 1.0000
38.7600 2446.0000 1.0000
38.7700 2304.0000 1.0000
38.7800 2143.0000 1.0000
38.7900 2062.0000 1.0000
38.8000 2030.0000 1.0000
38.8100 1846.0000 1.0000
38.8200 1753.0000 1.0000
38.8300 1754.0000 1.0000
38.8400 1673.0000 1.0000
38.8500 1585.0000 1.0000
38.8600 1479.0000 1.0000
38.8700 1488.0000 1.0000
38.8800 1413.0000 1.0000
38.8900 1422.0000 1.0000
38.9000 1360.0000 1.0000
38.9100 1353.0000 1.0000
38.9200 1307.0000 1.0000
38.9300 1183.0000 1.0000
38.9400 1196.0000 1.0000
38.9500 1277.0000 1.0000
38.9600 1211.0000 1.0000
38.9700 1140.0000 1.0000
38.9800 1136.0000 1.0000
38.9900 1162.0000 1.0000
39.0000 1097.0000 1.0000
39.0100 1111.0000 1.0000
39.0200 1127.0000 1.0000
39.0300 1097.0000 1.0000
39.0400 1075.0000 1.0000
39.0500 1080.0000 1.0000
39.0600 1018.0000 1.0000
39.0700 1030.0000 1.0000
39.0800 1038.0000 1.0000
39.0900 1093.0000 1.0000
39.1000 1028.0000 1.0000
39.1100 987.0000 1.0000
39.1200 1069.0000 1.0000
39.1300 1089.0000 1.0000
39.1400 1004.0000 1.0000
39.1500 983.0000 1.0000
39.1600 1014.0000 1.0000
39.1700 1003.0000 1.0000
39.1800 1041.0000 1.0000
39.1900 1007.0000 1.0000
39.2000 989.0000 1.0000
39.2100 999.0000 1.0000
39.2200 944.0000 1.0000
39.2300 968.0000 1.0000
39.2400 1002.0000 1.0000
39.2500 1009.0000 1.0000
39.2600 981.0000 1.0000
39.2700 1015.0000 1.0000
39.2800 942.0000 1.0000
39.2900 952.0000 1.0000
39.3000 906.0000 1.0000
39.3100 943.0000 1.0000
39.3200 945.0000 1.0000
39.3300 968.0000 1.0000
39.3400 959.0000 1.0000
39.3500 937.0000 1.0000
39.3600 939.0000 1.0000
39.3700 993.0000 1.0000
39.3800 961.0000 1.0000
39.3900 969.0000 1.0000
39.4000 943.0000 1.0000
39.4100 945.0000 1.0000
39.4200 986.0000 1.0000
39.4300 1007.0000 1.0000
39.4400 1016.0000 1.0000
39.4500 975.0000 1.0000
39.4600 966.0000 1.0000
39.4700 974.0000 1.0000
39.4800 1003.0000 1.0000
39.4900 979.0000 1.0000
39.5000 1014.0000 1.0000
39.5100 1041.0000 1.0000
39.5200 1015.0000 1.0000
39.5300 969.0000 1.0000
39.5400 977.0000 1.0000
39.5500 937.0000 1.0000
39.5600 993.0000 1.0000
39.5700 998.0000 1.0000
39.5800 1015.0000 1.0000
39.5900 1029.0000 1.0000
39.6000 981.0000 1.0000
39.6100 991.0000 1.0000
39.6200 996.0000 1.0000
39.6300 982.0000 1.0000
39.6400 958.0000 1.0000
39.6500 979.0000 1.0000
39.6600 1008.0000 1.0000
39.6700 982.0000 1.0000
39.6800 1021.0000 1.0000
39.6900 975.0000 1.0000
39.7000 967.0000 1.0000
39.7100 991.0000 1.0000
39.7200 967.0000 1.0000
39.7300 968.0000 1.0000
39.7400 929.0000 1.0000
39.7500 981.0000 1.0000
39.7600 924.0000 1.0000
39.7700 944.0000 1.0000
39.7800 911.0000 1.0000
39.7900 904.0000 1.0000
39.8000 945.0000 1.0000
39.8100 969.0000 1.0000
39.8200 946.0000 1.0000
39.8300 936.0000 1.0000
39.8400 938.0000 1.0000
39.8500 920.0000 1.0000
39.8600 931.0000 1.0000
39.8700 958.0000 1.0000
39.8800 937.0000 1.0000
39.8900 962.0000 1.0000
39.9000 924.0000 1.0000
39.9100 932.0000 1.0000
39.9200 943.0000 1.0000
39.9300 927.0000 1.0000
39.9400 902.0000 1.0000
39.9500 935.0000 1.0000
39.9600 943.0000 1.0000
39.9700 952.0000 1.0000
39.9800 916.0000 1.0000
39.9900 899.0000 1.0000
40.0000 899.0000 1.0000
40.0100 937.0000 1.0000
40.0200 878.0000 1.0000
40.0300 899.0000 1.0000
40.0400 932.0000 1.0000
40.0500 920.0000 1.0000
40.0600 899.0000 1.0000
40.0700 896.0000 1.0000
40.0800 911.0000 1.0000
40.0900 899.0000 1.0000
40.1000 915.0000 1.0000
40.1100 902.0000 1.0000
40.1200 925.0000 1.0000
40.1300 900.0000 1.0000
40.1400 847.0000 1.0000
40.1500 842.0000 1.0000
40.1600 905.0000 1.0000
40.1700 875.0000 1.0000
40.1800 885.0000 1.0000
40.1900 927.0000 1.0000
40.2000 909.0000 1.0000
40.2100 911.0000 1.0000
40.2200 918.0000 1.0000
40.2300 914.0000 1.0000
40.2400 913.0000 1.0000
40.2500 907.0000 1.0000
40.2600 883.0000 1.0000
40.2700 912.0000 1.0000
40.2800 893.0000 1.0000
40.2900 841.0000 1.0000
40.3000 900.0000 1.0000
40.3100 878.0000 1.0000
40.3200 889.0000 1.0000
40.3300 933.0000 1.0000
40.3400 880.0000 1.0000
40.3500 922.0000 1.0000
40.3600 851.0000 1.0000
40.3700 814.0000 1.0000
40.3800 854.0000 1.0000
40.3900 897.0000 1.0000
40.4000 882.0000 1.0000
40.4100 910.0000 1.0000
40.4200 895.0000 1.0000
40.4300 874.0000 1.0000
40.4400 855.0000 1.0000
40.4500 878.0000 1.0000
40.4600 876.0000 1.0000
40.4700 870.0000 1.0000
40.4800 942.0000 1.0000
40.4900 905.0000 1.0000
40.5000 891.0000 1.0000
40.5100 867.0000 1.0000
40.5200 836.0000 1.0000
40.5300 837.0000 1.0000
40.5400 854.0000 1.0000
40.5500 859.0000 1.0000
40.5600 882.0000 1.0000
40.5700 881.0000 1.0000
40.5800 894.0000 1.0000
40.5900 885.0000 1.0000
40.6000 876.0000 1.0000
40.6100 858.0000 1.0000
40.6200 925.0000 1.0000
40.6300 905.0000 1.0000
40.6400 890.0000 1.0000
40.6500 862.0000 1.0000
40.6600 906.0000 1.0000
40.6700 861.0000 1.0000
40.6800 893.0000 1.0000
40.6900 863.0000 1.0000
40.7000 830.0000 1.0000
40.7100 917.0000 1.0000
40.7200 866.0000 1.0000
40.7300 868.0000 1.0000
40.7400 860.0000 1.0000
40.7500 903.0000 1.0000
40.7600 854.0000 1.0000
40.7700 875.0000 1.0000
40.7800 896.0000 1.0000
40.7900 895.0000 1.0000
40.8000 901.0000 1.0000
40.8100 838.0000 1.0000
40.8200 892.0000 1.0000
40.8300 923.0000 1.0000
40.8400 907.0000 1.0000
40.8500 839.0000 1.0000
40.8600 878.0000 1.0000
40.8700 856.0000 1.0000
40.8800 857.0000 1.0000
40.8900 874.0000 1.0000
40.9000 909.0000 1.0000
40.9100 898.0000 1.0000
40.9200 901.0000 1.0000
40.9300 896.0000 1.0000
40.9400 870.0000 1.0000
40.9500 868.0000 1.0000
40.9600 834.0000 1.0000
40.9700 885.0000 1.0000
40.9800 844.0000 1.0000
40.9900 854.0000 1.0000
41.0000 869.0000 1.0000
41.0100 839.0000 1.0000
41.0200 894.0000 1.0000
41.0300 857.0000 1.0000
41.0400 892.0000 1.0000
41.0500 890.0000 1.0000
41.0600 875.0000 1.0000
41.0700 854.0000 1.0000
41.0800 864.0000 1.0000
41.0900 869.0000 1.0000
41.1000 854.0000 1.0000
41.1100 921.0000 1.0000
41.1200 842.0000 1.0000
41.1300 901.0000 1.0000
41.1400 868.0000 1.0000
41.1500 847.0000 1.0000
41.1600 869.0000 1.0000
41.1700 823.0000 1.0000
41.1800 865.0000 1.0000
41.1900 901.0000 1.0000
41.2000 860.0000 1.0000
41.2100 856.0000 1.0000
41.2200 862.0000 1.0000
41.2300 836.0000 1.0000
41.2400 873.0000 1.0000
41.2500 865.0000 1.0000
41.2600 901.0000 1.0000
41.2700 864.0000 1.0000
41.2800 861.0000 1.0000
41.2900 862.0000 1.0000
41.3000 886.0000 1.0000
41.3100 891.0000 1.0000
41.3200 837.0000 1.0000
41.3300 812.0000 1.0000
41.3400 845.0000 1.0000
41.3500 849.0000 1.0000
41.3600 843.0000 1.0000
41.3700 830.0000 1.0000
41.3800 845.0000 1.0000
41.3900 882.0000 1.0000
41.4000 884.0000 1.0000
41.4100 875.0000 1.0000
41.4200 851.0000 1.0000
41.4300 901.0000 1.0000
41.4400 910.0000 1.0000
41.4500 825.0000 1.0000
41.4600 870.0000 1.0000
41.4700 875.0000 1.0000
41.4800 873.0000 1.0000
41.4900 888.0000 1.0000
41.5000 834.0000 1.0000
41.5100 865.0000 1.0000
41.5200 800.0000 1.0000
41.5300 852.0000 1.0000
41.5400 855.0000 1.0000
41.5500 856.0000 1.0000
41.5600 844.0000 1.0000
41.5700 829.0000 1.0000
41.5800 856.0000 1.0000
41.5900 908.0000 1.0000
41.6000 859.0000 1.0000
41.6100 882.0000 1.0000
41.6200 850.0000 1.0000
41.6300 893.0000 1.0000
41.6400 842.0000 1.0000
41.6500 882.0000 1.0000
41.6600 869.0000 1.0000
41.6700 859.0000 1.0000
41.6800 879.0000 1.0000
41.6900 884.0000 1.0000
41.7000 863.0000 1.0000
41.7100 903.0000 1.0000
41.7200 870.0000 1.0000
41.7300 884.0000 1.0000
41.7400 830.0000 1.0000
41.7500 882.0000 1.0000
41.7600 861.0000 1.0000
41.7700 852.0000 1.0000
41.7800 856.0000 1.0000
41.7900 864.0000 1.0000
41.8000 878.0000 1.0000
41.8100 839.0000 1.0000
41.8200 852.0000 1.0000
41.8300 871.0000 1.0000
41.8400 868.0000 1.0000
41.8500 816.0000 1.0000
41.8600 929.0000 1.0000
41.8700 903.0000 1.0000
41.8800 840.0000 1.0000
41.8900 855.0000 1.0000
41.9000 870.0000 1.0000
41.9100 915.0000 1.0000
41.9200 865.0000 1.0000
41.9300 826.0000 1.0000
41.9400 833.0000 1.0000
41.9500 862.0000 1.0000
41.9600 835.0000 1.0000
41.9700 812.0000 1.0000
41.9800 841.0000 1.0000
41.9900 829.0000 1.0000
42.0000 847.0000 1.0000
42.0100 875.0000 1.0000
42.0200 855.0000 1.0000
42.0300 820.0000 1.0000
42.0400 829.0000 1.0000
42.0500 903.0000 1.0000
42.0600 878.0000 1.0000
42.0700 835.0000 1.0000
42.0800 854.0000 1.0000
42.0900 816.0000 1.0000
42.1000 865.0000 1.0000
42.1100 866.0000 1.0000
42.1200 834.0000 1.0000
42.1300 852.0000 1.0000
42.1400 797.0000 1.0000
42.1500 829.0000 1.0000
42.1600 841.0000 1.0000
42.1700 876.0000 1.0000
42.1800 843.0000 1.0000
42.1900 845.0000 1.0000
42.2000 830.0000 1.0000
42.2100 892.0000 1.0000
42.2200 845.0000 1.0000
42.2300 832.0000 1.0000
42.2400 846.0000 1.0000
42.2500 834.0000 1.0000
42.2600 801.0000 1.0000
42.2700 810.0000 1.0000
42.2800 828.0000 1.0000
42.2900 890.0000 1.0000
42.3000 858.0000 1.0000
42.3100 820.0000 1.0000
42.3200 800.0000 1.0000
42.3300 861.0000 1.0000
42.3400 874.0000 1.0000
42.3500 839.0000 1.0000
42.3600 855.0000 1.0000
42.3700 871.0000 1.0000
42.3800 841.0000 1.0000
42.3900 861.0000 1.0000
42.4000 822.0000 1.0000
42.4100 823.0000 1.0000
42.4200 808.0000 1.0000
42.4300 871.0000 1.0000
42.4400 861.0000 1.0000
42.4500 841.0000 1.0000
42.4600 823.0000 1.0000
42.4700 869.0000 1.0000
42.4800 816.0000 1.0000
42.4900 813.0000 1.0000
42.5000 813.0000 1.0000
42.5100 828.0000 1.0000
42.5200 858.0000 1.0000
42.5300 866.0000 1.0000
42.5400 822.0000 1.0000
42.5500 864.0000 1.0000
42.5600 884.0000 1.0000
42.5700 892.0000 1.0000
42.5800 823.0000 1.0000
42.5900 866.0000 1.0000
42.6000 848.0000 1.0000
42.6100 830.0000 1.0000
42.6200 874.0000 1.0000
42.6300 825.0000 1.0000
42.6400 830.0000 1.0000
42.6500 844.0000 1.0000
42.6600 844.0000 1.0000
42.6700 819.0000 1.0000
42.6800 821.0000 1.0000
42.6900 815.0000 1.0000
42.7000 806.0000 1.0000
42.7100 803.0000 1.0000
42.7200 845.0000 1.0000
42.7300 825.0000 1.0000
42.7400 875.0000 1.0000
42.7500 823.0000 1.0000
42.7600 796.0000 1.0000
42.7700 827.0000 1.0000
42.7800 827.0000 1.0000
42.7900 824.0000 1.0000
42.8000 834.0000 1.0000
42.8100 828.0000 1.0000
42.8200 843.0000 1.0000
42.8300 824.0000 1.0000
42.8400 843.0000 1.0000
42.8500 888.0000 1.0000
42.8600 905.0000 1.0000
42.8700 831.0000 1.0000
42.8800 809.0000 1.0000
42.8900 842.0000 1.0000
42.9000 808.0000 1.0000
42.9100 849.0000 1.0000
42.9200 888.0000 1.0000
42.9300 827.0000 1.0000
42.9400 804.0000 1.0000
42.9500 876.0000 1.0000
42.9600 839.0000 1.0000
42.9700 830.0000 1.0000
42.9800 804.0000 1.0000
42.9900 839.0000 1.0000
43.0000 819.0000 1.0000
43.0100 839.0000 1.0000
43.0200 912.0000 1.0000
43.0300 882.0000 1.0000
43.0400 891.0000 1.0000
43.0500 847.0000 1.0000
43.0600 902.0000 1.0000
43.0700 892.0000 1.0000
43.0800 832.0000 1.0000
43.0900 862.0000 1.0000
43.1000 877.0000 1.0000
43.1100 857.0000 1.0000
43.1200 885.0000 1.0000
43.1300 872.0000 1.0000
43.1400 858.0000 1.0000
43.1500 875.0000 1.0000
43.1600 911.0000 1.0000
43.1700 902.0000 1.0000
43.1800 949.0000 1.0000
43.1900 937.0000 1.0000
43.2000 988.0000 1.0000
43.2100 940.0000 1.0000
43.2200 935.0000 1.0000
43.2300 941.0000 1.0000
43.2400 909.0000 1.0000
43.2500 957.0000 1.0000
43.2600 912.0000 1.0000
43.2700 883.0000 1.0000
43.2800 895.0000 1.0000
43.2900 942.0000 1.0000
43.3000 903.0000 1.0000
43.3100 932.0000 1.0000
43.3200 891.0000 1.0000
43.3300 940.0000 1.0000
43.3400 935.0000 1.0000
43.3500 914.0000 1.0000
43.3600 896.0000 1.0000
43.3700 916.0000 1.0000
43.3800 913.0000 1.0000
43.3900 904.0000 1.0000
43.4000 889.0000 1.0000
43.4100 881.0000 1.0000
43.4200 865.0000 1.0000
43.4300 871.0000 1.0000
43.4400 891.0000 1.0000
43.4500 893.0000 1.0000
43.4600 860.0000 1.0000
43.4700 844.0000 1.0000
43.4800 846.0000 1.0000
43.4900 848.0000 1.0000
43.5000 844.0000 1.0000
43.5100 857.0000 1.0000
43.5200 827.0000 1.0000
43.5300 843.0000 1.0000
43.5400 876.0000 1.0000
43.5500 852.0000 1.0000
43.5600 861.0000 1.0000
43.5700 826.0000 1.0000
43.5800 823.0000 1.0000
43.5900 863.0000 1.0000
43.6000 851.0000 1.0000
43.6100 889.0000 1.0000
43.6200 857.0000 1.0000
43.6300 855.0000 1.0000
43.6400 793.0000 1.0000
43.6500 811.0000 1.0000
43.6600 803.0000 1.0000
43.6700 851.0000 1.0000
43.6800 815.0000 1.0000
43.6900 857.0000 1.0000
43.7000 876.0000 1.0000
43.7100 836.0000 1.0000
43.7200 822.0000 1.0000
43.7300 774.0000 1.0000
43.7400 817.0000 1.0000
43.7500 829.0000 1.0000
43.7600 821.0000 1.0000
43.7700 834.0000 1.0000
43.7800 804.0000 1.0000
43.7900 799.0000 1.0000
43.8000 795.0000 1.0000
43.8100 811.0000 1.0000
43.8200 808.0000 1.0000
43.8300 853.0000 1.0000
43.8400 821.0000 1.0000
43.8500 787.0000 1.0000
43.8600 830.0000 1.0000
43.8700 834.0000 1.0000
43.8800 805.0000 1.0000
43.8900 863.0000 1.0000
43.9000 785.0000 1.0000
43.9100 806.0000 1.0000
43.9200 832.0000 1.0000
43.9300 849.0000 1.0000
43.9400 813.0000 1.0000
43.9500 864.0000 1.0000
43.9600 843.0000 1.0000
43.9700 844.0000 1.0000
43.9800 834.0000 1.0000
43.9900 811.0000 1.0000
44.0000 840.0000 1.0000
44.0100 809.0000 1.0000
44.0200 792.0000 1.0000
44.0300 809.0000 1.0000
44.0400 849.0000 1.0000
44.0500 820.0000 1.0000
44.0600 806.0000 1.0000
44.0700 862.0000 1.0000
44.0800 837.0000 1.0000
44.0900 854.0000 1.0000
44.1000 849.0000 1.0000
44.1100 834.0000 1.0000
44.1200 876.0000 1.0000
44.1300 815.0000 1.0000
44.1400 804.0000 1.0000
44.1500 793.0000 1.0000
44.1600 768.0000 1.0000
44.1700 827.0000 1.0000
44.1800 808.0000 1.0000
44.1900 859.0000 1.0000
44.2000 841.0000 1.0000
44.2100 864.0000 1.0000
44.2200 773.0000 1.0000
44.2300 826.0000 1.0000
44.2400 843.0000 1.0000
44.2500 845.0000 1.0000
44.2600 854.0000 1.0000
44.2700 837.0000 1.0000
44.2800 848.0000 1.0000
44.2900 874.0000 1.0000
44.3000 858.0000 1.0000
44.3100 856.0000 1.0000
44.3200 839.0000 1.0000
44.3300 778.0000 1.0000
44.3400 802.0000 1.0000
44.3500 825.0000 1.0000
44.3600 860.0000 1.0000
44.3700 856.0000 1.0000
44.3800 818.0000 1.0000
44.3900 810.0000 1.0000
44.4000 844.0000 1.0000
44.4100 836.0000 1.0000
44.4200 832.0000 1.0000
44.4300 840.0000 1.0000
44.4400 834.0000 1.0000
44.4500 830.0000 1.0000
44.4600 861.0000 1.0000
44.4700 886.0000 1.0000
44.4800 822.0000 1.0000
44.4900 843.0000 1.0000
44.5000 843.0000 1.0000
44.5100 807.0000 1.0000
44.5200 810.0000 1.0000
44.5300 822.0000 1.0000
44.5400 793.0000 1.0000
44.5500 835.0000 1.0000
44.5600 835.0000 1.0000
44.5700 824.0000 1.0000
44.5800 827.0000 1.0000
44.5900 803.0000 1.0000
44.6000 811.0000 1.0000
44.6100 766.0000 1.0000
44.6200 790.0000 1.0000
44.6300 824.0000 1.0000
44.6400 805.0000 1.0000
44.6500 804.0000 1.0000
44.6600 792.0000 1.0000
44.6700 775.0000 1.0000
44.6800 786.0000 1.0000
44.6900 795.0000 1.0000
44.7000 778.0000 1.0000
44.7100 812.0000 1.0000
44.7200 786.0000 1.0000
44.7300 791.0000 1.0000
44.7400 802.0000 1.0000
44.7500 776.0000 1.0000
44.7600 788.0000 1.0000
44.7700 783.0000 1.0000
44.7800 805.0000 1.0000
44.7900 802.0000 1.0000
44.8000 831.0000 1.0000
44.8100 844.0000 1.0000
44.8200 805.0000 1.0000
44.8300 801.0000 1.0000
44.8400 795.0000 1.0000
44.8500 772.0000 1.0000
44.8600 803.0000 1.0000
44.8700 759.0000 1.0000
44.8800 815.0000 1.0000
44.8900 767.0000 1.0000
44.9000 823.0000 1.0000
44.9100 776.0000 1.0000
44.9200 796.0000 1.0000
44.9300 803.0000 1.0000
44.9400 789.0000 1.0000
44.9500 831.0000 1.0000
44.9600 806.0000 1.0000
44.9700 819.0000 1.0000
44.9800 760.0000 1.0000
44.9900 762.0000 1.0000
45.0000 808.0000 1.0000
45.0100 792.0000 1.0000
45.0200 820.0000 1.0000
45.0300 812.0000 1.0000
45.0400 881.0000 1.0000
45.0500 850.0000 1.0000
45.0600 812.0000 1.0000
45.0700 791.0000 1.0000
45.0800 796.0000 1.0000
45.0900 829.0000 1.0000
45.1000 752.0000 1.0000
45.1100 779.0000 1.0000
45.1200 831.0000 1.0000
45.1300 825.0000 1.0000
45.1400 798.0000 1.0000
45.1500 811.0000 1.0000
45.1600 832.0000 1.0000
45.1700 798.0000 1.0000
45.1800 762.0000 1.0000
45.1900 787.0000 1.0000
45.2000 800.0000 1.0000
45.2100 789.0000 1.0000
45.2200 812.0000 1.0000
45.2300 765.0000 1.0000
45.2400 806.0000 1.0000
45.2500 805.0000 1.0000
45.2600 793.0000 1.0000
45.2700 772.0000 1.0000
45.2800 841.0000 1.0000
45.2900 805.0000 1.0000
45.3000 770.0000 1.0000
45.3100 786.0000 1.0000
45.3200 782.0000 1.0000
45.3300 786.0000 1.0000
45.3400 812.0000 1.0000
45.3500 770.0000 1.0000
45.3600 781.0000 1.0000
45.3700 748.0000 1.0000
45.3800 782.0000 1.0000
45.3900 811.0000 1.0000
45.4000 775.0000 1.0000
45.4100 807.0000 1.0000
45.4200 765.0000 1.0000
45.4300 798.0000 1.0000
45.4400 838.0000 1.0000
45.4500 774.0000 1.0000
45.4600 790.0000 1.0000
45.4700 817.0000 1.0000
45.4800 766.0000 1.0000
45.4900 789.0000 1.0000
45.5000 769.0000 1.0000
45.5100 763.0000 1.0000
45.5200 776.0000 1.0000
45.5300 778.0000 1.0000
45.5400 770.0000 1.0000
45.5500 775.0000 1.0000
45.5600 841.0000 1.0000
45.5700 797.0000 1.0000
45.5800 755.0000 1.0000
45.5900 799.0000 1.0000
45.6000 783.0000 1.0000
45.6100 784.0000 1.0000
45.6200 773.0000 1.0000
45.6300 751.0000 1.0000
45.6400 805.0000 1.0000
45.6500 776.0000 1.0000
45.6600 791.0000 1.0000
45.6700 789.0000 1.0000
45.6800 759.0000 1.0000
45.6900 772.0000 1.0000
45.7000 759.0000 1.0000
45.7100 786.0000 1.0000
45.7200 750.0000 1.0000
45.7300 788.0000 1.0000
45.7400 817.0000 1.0000
45.7500 783.0000 1.0000
45.7600 777.0000 1.0000
45.7700 788.0000 1.0000
45.7800 781.0000 1.0000
45.7900 771.0000 1.0000
45.8000 824.0000 1.0000
45.8100 819.0000 1.0000
45.8200 765.0000 1.0000
45.8300 785.0000 1.0000
45.8400 818.0000 1.0000
45.8500 792.0000 1.0000
45.8600 749.0000 1.0000
45.8700 766.0000 1.0000
45.8800 764.0000 1.0000
45.8900 782.0000 1.0000
45.9000 814.0000 1.0000
45.9100 818.0000 1.0000
45.9200 823.0000 1.0000
45.9300 793.0000 1.0000
45.9400 759.0000 1.0000
45.9500 754.0000 1.0000
45.9600 789.0000 1.0000
45.9700 783.0000 1.0000
45.9800 757.0000 1.0000
45.9900 775.0000 1.0000
46.0000 753.0000 1.0000
46.0100 798.0000 1.0000
46.0200 752.0000 1.0000
46.0300 729.0000 1.0000
46.0400 788.0000 1.0000
46.0500 775.0000 1.0000
46.0600 789.0000 1.0000
46.0700 776.0000 1.0000
46.0800 787.0000 1.0000
46.0900 819.0000 1.0000
46.1000 777.0000 1.0000
46.1100 783.0000 1.0000
46.1200 804.0000 1.0000
46.1300 797.0000 1.0000
46.1400 787.0000 1.0000
46.1500 791.0000 1.0000
46.1600 748.0000 1.0000
46.1700 835.0000 1.0000
46.1800 738.0000 1.0000
46.1900 794.0000 1.0000
46.2000 737.0000 1.0000
46.2100 808.0000 1.0000
46.2200 767.0000 1.0000
46.2300 782.0000 1.0000
46.2400 785.0000 1.0000
46.2500 796.0000 1.0000
46.2600 794.0000 1.0000
46.2700 761.0000 1.0000
46.2800 777.0000 1.0000
46.2900 821.0000 1.0000
46.3000 755.0000 1.0000
46.3100 796.0000 1.0000
46.3200 793.0000 1.0000
46.3300 741.0000 1.0000
46.3400 790.0000 1.0000
46.3500 810.0000 1.0000
46.3600 802.0000 1.0000
46.3700 767.0000 1.0000
46.3800 801.0000 1.0000
46.3900 819.0000 1.0000
46.4000 816.0000 1.0000
46.4100 753.0000 1.0000
46.4200 783.0000 1.0000
46.4300 807.0000 1.0000
46.4400 810.0000 1.0000
46.4500 787.0000 1.0000
46.4600 766.0000 1.0000
46.4700 774.0000 1.0000
46.4800 780.0000 1.0000
46.4900 802.0000 1.0000
46.5000 793.0000 1.0000
46.5100 752.0000 1.0000
46.5200 757.0000 1.0000
46.5300 796.0000 1.0000
46.5400 853.0000 1.0000
46.5500 784.0000 1.0000
46.5600 819.0000 1.0000
46.5700 756.0000 1.0000
46.5800 739.0000 1.0000
46.5900 773.0000 1.0000
46.6000 733.0000 1.0000
46.6100 782.0000 1.0000
46.6200 776.0000 1.0000
46.6300 766.0000 1.0000
46.6400 831.0000 1.0000
46.6500 746.0000 1.0000
46.6600 778.0000 1.0000
46.6700 777.0000 1.0000
46.6800 793.0000 1.0000
46.6900 783.0000 1.0000
46.7000 812.0000 1.0000
46.7100 784.0000 1.0000
46.7200 799.0000 1.0000
46.7300 757.0000 1.0000
46.7400 805.0000 1.0000
46.7500 827.0000 1.0000
46.7600 793.0000 1.0000
46.7700 792.0000 1.0000
46.7800 763.0000 1.0000
46.7900 783.0000 1.0000
46.8000 765.0000 1.0000
46.8100 782.0000 1.0000
46.8200 812.0000 1.0000
46.8300 805.0000 1.0000
46.8400 786.0000 1.0000
46.8500 735.0000 1.0000
46.8600 791.0000 1.0000
46.8700 790.0000 1.0000
46.8800 775.0000 1.0000
46.8900 772.0000 1.0000
46.9000 799.0000 1.0000
46.9100 796.0000 1.0000
46.9200 741.0000 1.0000
46.9300 780.0000 1.0000
46.9400 765.0000 1.0000
46.9500 803.0000 1.0000
46.9600 795.0000 1.0000
46.9700 810.0000 1.0000
46.9800 809.0000 1.0000
46.9900 801.0000 1.0000
47.0000 801.0000 1.0000
47.0100 810.0000 1.0000
47.0200 815.0000 1.0000
47.0300 833.0000 1.0000
47.0400 836.0000 1.0000
47.0500 805.0000 1.0000
47.0600 776.0000 1.0000
47.0700 776.0000 1.0000
47.0800 734.0000 1.0000
47.0900 772.0000 1.0000
47.1000 790.0000 1.0000
47.1100 794.0000 1.0000
47.1200 772.0000 1.0000
47.1300 821.0000 1.0000
47.1400 821.0000 1.0000
47.1500 763.0000 1.0000
47.1600 754.0000 1.0000
47.1700 790.0000 1.0000
47.1800 720.0000 1.0000
47.1900 802.0000 1.0000
47.2000 729.0000 1.0000
47.2100 799.0000 1.0000
47.2200 800.0000 1.0000
47.2300 712.0000 1.0000
47.2400 736.0000 1.0000
47.2500 758.0000 1.0000
47.2600 763.0000 1.0000
47.2700 758.0000 1.0000
47.2800 773.0000 1.0000
47.2900 770.0000 1.0000
47.3000 778.0000 1.0000
47.3100 770.0000 1.0000
47.3200 741.0000 1.0000
47.3300 723.0000 1.0000
47.3400 773.0000 1.0000
47.3500 724.0000 1.0000
47.3600 762.0000 1.0000
47.3700 777.0000 1.0000
47.3800 810.0000 1.0000
47.3900 791.0000 1.0000
47.4000 764.0000 1.0000
47.4100 747.0000 1.0000
47.4200 752.0000 1.0000
47.4300 728.0000 1.0000
47.4400 754.0000 1.0000
47.4500 728.0000 1.0000
47.4600 745.0000 1.0000
47.4700 759.0000 1.0000
47.4800 706.0000 1.0000
47.4900 758.0000 1.0000
47.5000 759.0000 1.0000
47.5100 775.0000 1.0000
47.5200 810.0000 1.0000
47.5300 824.0000 1.0000
47.5400 748.0000 1.0000
47.5500 760.0000 1.0000
47.5600 780.0000 1.0000
47.5700 750.0000 1.0000
47.5800 728.0000 1.0000
47.5900 780.0000 1.0000
47.6000 768.0000 1.0000
47.6100 780.0000 1.0000
47.6200 746.0000 1.0000
47.6300 714.0000 1.0000
47.6400 759.0000 1.0000
47.6500 739.0000 1.0000
47.6600 731.0000 1.0000
47.6700 747.0000 1.0000
47.6800 782.0000 1.0000
47.6900 795.0000 1.0000
47.7000 765.0000 1.0000
47.7100 785.0000 1.0000
47.7200 760.0000 1.0000
47.7300 778.0000 1.0000
47.7400 752.0000 1.0000
47.7500 742.0000 1.0000
47.7600 750.0000 1.0000
47.7700 758.0000 1.0000
47.7800 735.0000 1.0000
47.7900 768.0000 1.0000
47.8000 722.0000 1.0000
47.8100 737.0000 1.0000
47.8200 743.0000 1.0000
47.8300 777.0000 1.0000
47.8400 813.0000 1.0000
47.8500 756.0000 1.0000
47.8600 747.0000 1.0000
47.8700 769.0000 1.0000
47.8800 767.0000 1.0000
47.8900 735.0000 1.0000
47.9000 725.0000 1.0000
47.9100 777.0000 1.0000
47.9200 734.0000 1.0000
47.9300 776.0000 1.0000
47.9400 732.0000 1.0000
47.9500 756.0000 1.0000
47.9600 799.0000 1.0000
47.9700 789.0000 1.0000
47.9800 761.0000 1.0000
47.9900 773.0000 1.0000
48.0000 746.0000 1.0000
48.0100 763.0000 1.0000
48.0200 774.0000 1.0000
48.0300 746.0000 1.0000
48.0400 737.0000 1.0000
48.0500 737.0000 1.0000
48.0600 769.0000 1.0000
48.0700 745.0000 1.0000
48.0800 769.0000 1.0000
48.0900 749.0000 1.0000
48.1000 763.0000 1.0000
48.1100 699.0000 1.0000
48.1200 731.0000 1.0000
48.1300 697.0000 1.0000
48.1400 728.0000 1.0000
48.1500 741.0000 1.0000
48.1600 747.0000 1.0000
48.1700 750.0000 1.0000
48.1800 767.0000 1.0000
48.1900 735.0000 1.0000
48.2000 722.0000 1.0000
48.2100 698.0000 1.0000
48.2200 747.0000 1.0000
48.2300 755.0000 1.0000
48.2400 746.0000 1.0000
48.2500 745.0000 1.0000
48.2600 742.0000 1.0000
48.2700 743.0000 1.0000
48.2800 734.0000 1.0000
48.2900 736.0000 1.0000
48.3000 747.0000 1.0000
48.3100 746.0000 1.0000
48.3200 710.0000 1.0000
48.3300 715.0000 1.0000
48.3400 737.0000 1.0000
48.3500 749.0000 1.0000
48.3600 753.0000 1.0000
48.3700 770.0000 1.0000
48.3800 719.0000 1.0000
48.3900 755.0000 1.0000
48.4000 744.0000 1.0000
48.4100 765.0000 1.0000
48.4200 772.0000 1.0000
48.4300 754.0000 1.0000
48.4400 757.0000 1.0000
48.4500 717.0000 1.0000
48.4600 736.0000 1.0000
48.4700 673.0000 1.0000
48.4800 705.0000 1.0000
48.4900 732.0000 1.0000
48.5000 729.0000 1.0000
48.5100 742.0000 1.0000
48.5200 755.0000 1.0000
48.5300 712.0000 1.0000
48.5400 730.0000 1.0000
48.5500 743.0000 1.0000
48.5600 778.0000 1.0000
48.5700 740.0000 1.0000
48.5800 739.0000 1.0000
48.5900 724.0000 1.0000
48.6000 767.0000 1.0000
48.6100 772.0000 1.0000
48.6200 747.0000 1.0000
48.6300 769.0000 1.0000
48.6400 722.0000 1.0000
48.6500 756.0000 1.0000
48.6600 755.0000 1.0000
48.6700 741.0000 1.0000
48.6800 697.0000 1.0000
48.6900 741.0000 1.0000
48.7000 766.0000 1.0000
48.7100 751.0000 1.0000
48.7200 793.0000 1.0000
48.7300 748.0000 1.0000
48.7400 714.0000 1.0000
48.7500 708.0000 1.0000
48.7600 729.0000 1.0000
48.7700 744.0000 1.0000
48.7800 745.0000 1.0000
48.7900 706.0000 1.0000
48.8000 714.0000 1.0000
48.8100 739.0000 1.0000
48.8200 731.0000 1.0000
48.8300 734.0000 1.0000
48.8400 748.0000 1.0000
48.8500 763.0000 1.0000
48.8600 739.0000 1.0000
48.8700 742.0000 1.0000
48.8800 734.0000 1.0000
48.8900 736.0000 1.0000
48.9000 725.0000 1.0000
48.9100 777.0000 1.0000
48.9200 723.0000 1.0000
48.9300 749.0000 1.0000
48.9400 741.0000 1.0000
48.9500 741.0000 1.0000
48.9600 741.0000 1.0000
48.9700 811.0000 1.0000
48.9800 730.0000 1.0000
48.9900 700.0000 1.0000
49.0000 758.0000 1.0000
49.0100 765.0000 1.0000
49.0200 760.0000 1.0000
49.0300 728.0000 1.0000
49.0400 720.0000 1.0000
49.0500 728.0000 1.0000
49.0600 768.0000 1.0000
49.0700 739.0000 1.0000
49.0800 753.0000 1.0000
49.0900 734.0000 1.0000
49.1000 706.0000 1.0000
49.1100 748.0000 1.0000
49.1200 756.0000 1.0000
49.1300 738.0000 1.0000
49.1400 716.0000 1.0000
49.1500 736.0000 1.0000
49.1600 693.0000 1.0000
49.1700 660.0000 1.0000
49.1800 714.0000 1.0000
49.1900 736.0000 1.0000
49.2000 726.0000 1.0000
49.2100 705.0000 1.0000
49.2200 718.0000 1.0000
49.2300 680.0000 1.0000
49.2400 758.0000 1.0000
49.2500 705.0000 1.0000
49.2600 708.0000 1.0000
49.2700 691.0000 1.0000
49.2800 738.0000 1.0000
49.2900 739.0000 1.0000
49.3000 708.0000 1.0000
49.3100 706.0000 1.0000
49.3200 716.0000 1.0000
49.3300 719.0000 1.0000
49.3400 691.0000 1.0000
49.3500 712.0000 1.0000
49.3600 749.0000 1.0000
49.3700 714.0000 1.0000
49.3800 789.0000 1.0000
49.3900 693.0000 1.0000
49.4000 716.0000 1.0000
49.4100 761.0000 1.0000
49.4200 687.0000 1.0000
49.4300 690.0000 1.0000
49.4400 731.0000 1.0000
49.4500 752.0000 1.0000
49.4600 692.0000 1.0000
49.4700 730.0000 1.0000
49.4800 717.0000 1.0000
49.4900 766.0000 1.0000
49.5000 684.0000 1.0000
49.5100 732.0000 1.0000
49.5200 708.0000 1.0000
49.5300 715.0000 1.0000
49.5400 727.0000 1.0000
49.5500 721.0000 1.0000
49.5600 694.0000 1.0000
49.5700 730.0000 1.0000
49.5800 728.0000 1.0000
49.5900 734.0000 1.0000
49.6000 763.0000 1.0000
49.6100 717.0000 1.0000
49.6200 664.0000 1.0000
49.6300 694.0000 1.0000
49.6400 727.0000 1.0000
49.6500 724.0000 1.0000
49.6600 677.0000 1.0000
49.6700 720.0000 1.0000
49.6800 740.0000 1.0000
49.6900 737.0000 1.0000
49.7000 722.0000 1.0000
49.7100 711.0000 1.0000
49.7200 724.0000 1.0000
49.7300 740.0000 1.0000
49.7400 759.0000 1.0000
49.7500 734.0000 1.0000
49.7600 695.0000 1.0000
49.7700 679.0000 1.0000
49.7800 740.0000 1.0000
49.7900 734.0000 1.0000
49.8000 746.0000 1.0000
49.8100 687.0000 1.0000
49.8200 743.0000 1.0000
49.8300 726.0000 1.0000
49.8400 717.0000 1.0000
49.8500 722.0000 1.0000
49.8600 696.0000 1.0000
49.8700 717.0000 1.0000
49.8800 725.0000 1.0000
49.8900 746.0000 1.0000
49.9000 759.0000 1.0000
49.9100 741.0000 1.0000
49.9200 726.0000 1.0000
49.9300 743.0000 1.0000
49.9400 725.0000 1.0000
49.9500 739.0000 1.0000
49.9600 719.0000 1.0000
49.9700 729.0000 1.0000
49.9800 707.0000 1.0000
49.9900 714.0000 1.0000
50.0000 727.0000 1.0000
50.0100 741.0000 1.0000
50.0200 747.0000 1.0000
50.0300 772.0000 1.0000
50.0400 690.0000 1.0000
50.0500 703.0000 1.0000
50.0600 706.0000 1.0000
50.0700 716.0000 1.0000
50.0800 760.0000 1.0000
50.0900 728.0000 1.0000
50.1000 707.0000 1.0000
50.1100 751.0000 1.0000
50.1200 716.0000 1.0000
50.1300 748.0000 1.0000
50.1400 761.0000 1.0000
50.1500 785.0000 1.0000
50.1600 764.0000 1.0000
50.1700 730.0000 1.0000
50.1800 804.0000 1.0000
50.1900 799.0000 1.0000
50.2000 787.0000 1.0000
50.2100 769.0000 1.0000
50.2200 756.0000 1.0000
50.2300 783.0000 1.0000
50.2400 758.0000 1.0000
50.2500 779.0000 1.0000
50.2600 774.0000 1.0000
50.2700 761.0000 1.0000
50.2800 777.0000 1.0000
50.2900 746.0000 1.0000
50.3000 728.0000 1.0000
50.3100 759.0000 1.0000
50.3200 768.0000 1.0000
50.3300 748.0000 1.0000
50.3400 761.0000 1.0000
50.3500 728.0000 1.0000
50.3600 776.0000 1.0000
50.3700 731.0000 1.0000
50.3800 766.0000 1.0000
50.3900 748.0000 1.0000
50.4000 764.0000 1.0000
50.4100 716.0000 1.0000
50.4200 748.0000 1.0000
50.4300 773.0000 1.0000
50.4400 822.0000 1.0000
50.4500 742.0000 1.0000
50.4600 749.0000 1.0000
50.4700 750.0000 1.0000
50.4800 754.0000 1.0000
50.4900 768.0000 1.0000
50.5000 765.0000 1.0000
50.5100 733.0000 1.0000
50.5200 770.0000 1.0000
50.5300 740.0000 1.0000
50.5400 739.0000 1.0000
50.5500 725.0000 1.0000
50.5600 733.0000 1.0000
50.5700 744.0000 1.0000
50.5800 743.0000 1.0000
50.5900 719.0000 1.0000
50.6000 745.0000 1.0000
50.6100 735.0000 1.0000
50.6200 751.0000 1.0000
50.6300 747.0000 1.0000
50.6400 748.0000 1.0000
50.6500 696.0000 1.0000
50.6600 769.0000 1.0000
50.6700 766.0000 1.0000
50.6800 751.0000 1.0000
50.6900 757.0000 1.0000
50.7000 778.0000 1.0000
50.7100 727.0000 1.0000
50.7200 738.0000 1.0000
50.7300 807.0000 1.0000
50.7400 744.0000 1.0000
50.7500 779.0000 1.0000
50.7600 727.0000 1.0000
50.7700 764.0000 1.0000
50.7800 705.0000 1.0000
50.7900 721.0000 1.0000
50.8000 793.0000 1.0000
50.8100 784.0000 1.0000
50.8200 750.0000 1.0000
50.8300 806.0000 1.0000
50.8400 764.0000 1.0000
50.8500 761.0000 1.0000
50.8600 744.0000 1.0000
50.8700 782.0000 1.0000
50.8800 737.0000 1.0000
50.8900 714.0000 1.0000
50.9000 746.0000 1.0000
50.9100 707.0000 1.0000
50.9200 713.0000 1.0000
50.9300 703.0000 1.0000
50.9400 753.0000 1.0000
50.9500 742.0000 1.0000
50.9600 740.0000 1.0000
50.9700 702.0000 1.0000
50.9800 702.0000 1.0000
50.9900 766.0000 1.0000
51.0000 760.0000 1.0000
51.0100 742.0000 1.0000
51.0200 758.0000 1.0000
51.0300 763.0000 1.0000
51.0400 713.0000 1.0000
51.0500 704.0000 1.0000
51.0600 729.0000 1.0000
51.0700 705.0000 1.0000
51.0800 709.0000 1.0000
51.0900 708.0000 1.0000
51.1000 758.0000 1.0000
51.1100 773.0000 1.0000
51.1200 765.0000 1.0000
51.1300 751.0000 1.0000
51.1400 729.0000 1.0000
51.1500 737.0000 1.0000
51.1600 765.0000 1.0000
51.1700 767.0000 1.0000
51.1800 759.0000 1.0000
51.1900 773.0000 1.0000
51.2000 772.0000 1.0000
51.2100 737.0000 1.0000
51.2200 737.0000 1.0000
51.2300 714.0000 1.0000
51.2400 709.0000 1.0000
51.2500 734.0000 1.0000
51.2600 744.0000 1.0000
51.2700 783.0000 1.0000
51.2800 775.0000 1.0000
51.2900 757.0000 1.0000
51.3000 788.0000 1.0000
51.3100 778.0000 1.0000
51.3200 758.0000 1.0000
51.3300 734.0000 1.0000
51.3400 778.0000 1.0000
51.3500 770.0000 1.0000
51.3600 794.0000 1.0000
51.3700 761.0000 1.0000
51.3800 739.0000 1.0000
51.3900 728.0000 1.0000
51.4000 773.0000 1.0000
51.4100 809.0000 1.0000
51.4200 757.0000 1.0000
51.4300 770.0000 1.0000
51.4400 736.0000 1.0000
51.4500 742.0000 1.0000
51.4600 739.0000 1.0000
51.4700 791.0000 1.0000
51.4800 742.0000 1.0000
51.4900 762.0000 1.0000
51.5000 775.0000 1.0000
51.5100 746.0000 1.0000
51.5200 792.0000 1.0000
51.5300 756.0000 1.0000
51.5400 759.0000 1.0000
51.5500 727.0000 1.0000
51.5600 742.0000 1.0000
51.5700 763.0000 1.0000
51.5800 809.0000 1.0000
51.5900 766.0000 1.0000
51.6000 781.0000 1.0000
51.6100 776.0000 1.0000
51.6200 803.0000 1.0000
51.6300 811.0000 1.0000
51.6400 775.0000 1.0000
51.6500 760.0000 1.0000
51.6600 735.0000 1.0000
51.6700 765.0000 1.0000
51.6800 782.0000 1.0000
51.6900 746.0000 1.0000
51.7000 803.0000 1.0000
51.7100 806.0000 1.0000
51.7200 781.0000 1.0000
51.7300 750.0000 1.0000
51.7400 749.0000 1.0000
51.7500 773.0000 1.0000
51.7600 786.0000 1.0000
51.7700 812.0000 1.0000
51.7800 826.0000 1.0000
51.7900 838.0000 1.0000
51.8000 824.0000 1.0000
51.8100 853.0000 1.0000
51.8200 843.0000 1.0000
51.8300 828.0000 1.0000
51.8400 846.0000 1.0000
51.8500 855.0000 1.0000
51.8600 881.0000 1.0000
51.8700 824.0000 1.0000
51.8800 881.0000 1.0000
51.8900 896.0000 1.0000
51.9000 920.0000 1.0000
51.9100 948.0000 1.0000
51.9200 960.0000 1.0000
51.9300 980.0000 1.0000
51.9400 977.0000 1.0000
51.9500 1029.0000 1.0000
51.9600 1074.0000 1.0000
51.9700 1046.0000 1.0000
51.9800 1111.0000 1.0000
51.9900 1139.0000 1.0000
52.0000 1177.0000 1.0000
52.0100 1205.0000 1.0000
52.0200 1270.0000 1.0000
52.0300 1274.0000 1.0000
52.0400 1363.0000 1.0000
52.0500 1388.0000 1.0000
52.0600 1468.0000 1.0000
52.0700 1496.0000 1.0000
52.0800 1631.0000 1.0000
52.0900 1679.0000 1.0000
52.1000 1692.0000 1.0000
52.1100 1879.0000 1.0000
52.1200 2043.0000 1.0000
52.1300 2133.0000 1.0000
52.1400 2261.0000 1.0000
52.1500 2401.0000 1.0000
52.1600 2640.0000 1.0000
52.1700 2994.0000 1.0000
52.1800 3191.0000 1.0000
52.1900 3468.0000 1.0000
52.2000 3718.0000 1.0000
52.2100 4035.0000 1.0000
52.2200 4473.0000 1.0000
52.2300 4714.0000 1.0000
52.2400 5010.0000 1.0000
52.2500 5308.0000 1.0000
52.2600 5675.0000 1.0000
52.2700 5687.0000 1.0000
52.2800 5722.0000 1.0000
52.2900 5561.0000 1.0000
52.3000 5678.0000 1.0000
52.3100 5499.0000 1.0000
52.3200 5420.0000 1.0000
52.3300 5127.0000 1.0000
52.3400 4955.0000 1.0000
52.3500 4913.0000 1.0000
52.3600 4762.0000 1.0000
52.3700 4557.0000 1.0000
52.3800 4464.0000 1.0000
52.3900 4486.0000 1.0000
52.4000 4427.0000 1.0000
52.4100 4278.0000 1.0000
52.4200 4047.0000 1.0000
52.4300 3842.0000 1.0000
52.4400 3635.0000 1.0000
52.4500 3502.0000 1.0000
52.4600 3201.0000 1.0000
52.4700 2996.0000 1.0000
52.4800 2819.0000 1.0000
52.4900 2578.0000 1.0000
52.5000 2374.0000 1.0000
52.5100 2239.0000 1.0000
52.5200 2137.0000 1.0000
52.5300 1955.0000 1.0000
52.5400 1915.0000 1.0000
52.5500 1801.0000 1.0000
52.5600 1684.0000 1.0000
52.5700 1541.0000 1.0000
52.5800 1498.0000 1.0000
52.5900 1432.0000 1.0000
52.6000 1430.0000 1.0000
52.6100 1325.0000 1.0000
52.6200 1308.0000 1.0000
52.6300 1239.0000 1.0000
52.6400 1195.0000 1.0000
52.6500 1152.0000 1.0000
52.6600 1094.0000 1.0000
52.6700 1017.0000 1.0000
52.6800 1055.0000 1.0000
52.6900 1057.0000 1.0000
52.7000 1076.0000 1.0000
52.7100 976.0000 1.0000
52.7200 968.0000 1.0000
52.7300 991.0000 1.0000
52.7400 959.0000 1.0000
52.7500 945.0000 1.0000
52.7600 910.0000 1.0000
52.7700 883.0000 1.0000
52.7800 906.0000 1.0000
52.7900 925.0000 1.0000
52.8000 922.0000 1.0000
52.8100 881.0000 1.0000
52.8200 919.0000 1.0000
52.8300 898.0000 1.0000
52.8400 853.0000 1.0000
52.8500 874.0000 1.0000
52.8600 875.0000 1.0000
52.8700 873.0000 1.0000
52.8800 843.0000 1.0000
52.8900 808.0000 1.0000
52.9000 837.0000 1.0000
52.9100 837.0000 1.0000
52.9200 831.0000 1.0000
52.9300 814.0000 1.0000
52.9400 795.0000 1.0000
52.9500 778.0000 1.0000
52.9600 811.0000 1.0000
52.9700 807.0000 1.0000
52.9800 794.0000 1.0000
52.9900 802.0000 1.0000
53.0000 823.0000 1.0000
53.0100 793.0000 1.0000
53.0200 778.0000 1.0000
53.0300 746.0000 1.0000
53.0400 830.0000 1.0000
53.0500 803.0000 1.0000
53.0600 782.0000 1.0000
53.0700 789.0000 1.0000
53.0800 787.0000 1.0000
53.0900 786.0000 1.0000
53.1000 788.0000 1.0000
53.1100 827.0000 1.0000
53.1200 779.0000 1.0000
53.1300 759.0000 1.0000
53.1400 706.0000 1.0000
53.1500 733.0000 1.0000
53.1600 704.0000 1.0000
53.1700 755.0000 1.0000
53.1800 745.0000 1.0000
53.1900 770.0000 1.0000
53.2000 783.0000 1.0000
53.2100 723.0000 1.0000
53.2200 793.0000 1.0000
53.2300 780.0000 1.0000
53.2400 733.0000 1.0000
53.2500 737.0000 1.0000
53.2600 809.0000 1.0000
53.2700 776.0000 1.0000
53.2800 735.0000 1.0000
53.2900 750.0000 1.0000
53.3000 759.0000 1.0000
53.3100 734.0000 1.0000
53.3200 793.0000 1.0000
53.3300 730.0000 1.0000
53.3400 715.0000 1.0000
53.3500 733.0000 1.0000
53.3600 730.0000 1.0000
53.3700 741.0000 1.0000
53.3800 704.0000 1.0000
53.3900 744.0000 1.0000
53.4000 744.0000 1.0000
53.4100 749.0000 1.0000
53.4200 725.0000 1.0000
53.4300 732.0000 1.0000
53.4400 729.0000 1.0000
53.4500 709.0000 1.0000
53.4600 718.0000 1.0000
53.4700 708.0000 1.0000
53.4800 748.0000 1.0000
53.4900 736.0000 1.0000
53.5000 689.0000 1.0000
53.5100 744.0000 1.0000
53.5200 712.0000 1.0000
53.5300 762.0000 1.0000
53.5400 752.0000 1.0000
53.5500 740.0000 1.0000
53.5600 725.0000 1.0000
53.5700 801.0000 1.0000
53.5800 753.0000 1.0000
53.5900 761.0000 1.0000
53.6000 725.0000 1.0000
53.6100 766.0000 1.0000
53.6200 723.0000 1.0000
53.6300 715.0000 1.0000
53.6400 689.0000 1.0000
53.6500 728.0000 1.0000
53.6600 762.0000 1.0000
53.6700 737.0000 1.0000
53.6800 769.0000 1.0000
53.6900 765.0000 1.0000
53.7000 737.0000 1.0000
53.7100 757.0000 1.0000
53.7200 709.0000 1.0000
53.7300 730.0000 1.0000
53.7400 753.0000 1.0000
53.7500 764.0000 1.0000
53.7600 744.0000 1.0000
53.7700 749.0000 1.0000
53.7800 718.0000 1.0000
53.7900 738.0000 1.0000
53.8000 723.0000 1.0000
53.8100 705.0000 1.0000
53.8200 714.0000 1.0000
53.8300 736.0000 1.0000
53.8400 708.0000 1.0000
53.8500 706.0000 1.0000
53.8600 716.0000 1.0000
53.8700 736.0000 1.0000
53.8800 721.0000 1.0000
53.8900 740.0000 1.0000
53.9000 701.0000 1.0000
53.9100 735.0000 1.0000
53.9200 716.0000 1.0000
53.9300 698.0000 1.0000
53.9400 686.0000 1.0000
53.9500 718.0000 1.0000
53.9600 726.0000 1.0000
53.9700 742.0000 1.0000
53.9800 732.0000 1.0000
53.9900 710.0000 1.0000
54.0000 719.0000 1.0000
54.0100 733.0000 1.0000
54.0200 726.0000 1.0000
54.0300 680.0000 1.0000
54.0400 705.0000 1.0000
54.0500 741.0000 1.0000
54.0600 716.0000 1.0000
54.0700 750.0000 1.0000
54.0800 703.0000 1.0000
54.0900 709.0000 1.0000
54.1000 717.0000 1.0000
54.1100 710.0000 1.0000
54.1200 733.0000 1.0000
54.1300 712.0000 1.0000
54.1400 729.0000 1.0000
54.1500 737.0000 1.0000
54.1600 751.0000 1.0000
54.1700 739.0000 1.0000
54.1800 745.0000 1.0000
54.1900 760.0000 1.0000
54.2000 762.0000 1.0000
54.2100 673.0000 1.0000
54.2200 720.0000 1.0000
54.2300 705.0000 1.0000
54.2400 715.0000 1.0000
54.2500 730.0000 1.0000
54.2600 762.0000 1.0000
54.2700 758.0000 1.0000
54.2800 696.0000 1.0000
54.2900 726.0000 1.0000
54.3000 716.0000 1.0000
54.3100 735.0000 1.0000
54.3200 690.0000 1.0000
54.3300 639.0000 1.0000
54.3400 673.0000 1.0000
54.3500 712.0000 1.0000
54.3600 735.0000 1.0000
54.3700 750.0000 1.0000
54.3800 715.0000 1.0000
54.3900 731.0000 1.0000
54.4000 698.0000 1.0000
54.4100 706.0000 1.0000
54.4200 736.0000 1.0000
54.4300 729.0000 1.0000
54.4400 707.0000 1.0000
54.4500 709.0000 1.0000
54.4600 707.0000 1.0000
54.4700 702.0000 1.0000
54.4800 706.0000 1.0000
54.4900 727.0000 1.0000
54.5000 704.0000 1.0000
54.5100 745.0000 1.0000
54.5200 747.0000 1.0000
54.5300 691.0000 1.0000
54.5400 732.0000 1.0000
54.5500 733.0000 1.0000
54.5600 733.0000 1.0000
54.5700 697.0000 1.0000
54.5800 754.0000 1.0000
54.5900 747.0000 1.0000
54.6000 730.0000 1.0000
54.6100 747.0000 1.0000
54.6200 677.0000 1.0000
54.6300 729.0000 1.0000
54.6400 729.0000 1.0000
54.6500 746.0000 1.0000
54.6600 728.0000 1.0000
54.6700 774.0000 1.0000
54.6800 745.0000 1.0000
54.6900 749.0000 1.0000
54.7000 729.0000 1.0000
54.7100 767.0000 1.0000
54.7200 753.0000 1.0000
54.7300 722.0000 1.0000
54.7400 814.0000 1.0000
54.7500 793.0000 1.0000
54.7600 865.0000 1.0000
54.7700 796.0000 1.0000
54.7800 756.0000 1.0000
54.7900 757.0000 1.0000
54.8000 779.0000 1.0000
54.8100 740.0000 1.0000
54.8200 776.0000 1.0000
54.8300 784.0000 1.0000
54.8400 737.0000 1.0000
54.8500 784.0000 1.0000
54.8600 805.0000 1.0000
54.8700 793.0000 1.0000
54.8800 802.0000 1.0000
54.8900 794.0000 1.0000
54.9000 791.0000 1.0000
54.9100 784.0000 1.0000
54.9200 791.0000 1.0000
54.9300 773.0000 1.0000
54.9400 745.0000 1.0000
54.9500 793.0000 1.0000
54.9600 773.0000 1.0000
54.9700 779.0000 1.0000
54.9800 818.0000 1.0000
54.9900 807.0000 1.0000
55.0000 784.0000 1.0000
55.0100 820.0000 1.0000
55.0200 840.0000 1.0000
55.0300 800.0000 1.0000
55.0400 806.0000 1.0000
55.0500 831.0000 1.0000
55.0600 847.0000 1.0000
55.0700 806.0000 1.0000
55.0800 848.0000 1.0000
55.0900 851.0000 1.0000
55.1000 838.0000 1.0000
55.1100 832.0000 1.0000
55.1200 872.0000 1.0000
55.1300 875.0000 1.0000
55.1400 880.0000 1.0000
55.1500 908.0000 1.0000
55.1600 863.0000 1.0000
55.1700 922.0000 1.0000
55.1800 902.0000 1.0000
55.1900 980.0000 1.0000
55.2000 985.0000 1.0000
55.2100 1050.0000 1.0000
55.2200 1064.0000 1.0000
55.2300 1055.0000 1.0000
55.2400 1065.0000 1.0000
55.2500 1067.0000 1.0000
55.2600 1104.0000 1.0000
55.2700 1129.0000 1.0000
55.2800 1121.0000 1.0000
55.2900 1118.0000 1.0000
55.3000 1187.0000 1.0000
55.3100 1172.0000 1.0000
55.3200 1151.0000 1.0000
55.3300 1106.0000 1.0000
55.3400 1094.0000 1.0000
55.3500 1070.0000 1.0000
55.3600 1057.0000 1.0000
55.3700 1073.0000 1.0000
55.3800 1062.0000 1.0000
55.3900 1040.0000 1.0000
55.4000 1072.0000 1.0000
55.4100 1069.0000 1.0000
55.4200 1034.0000 1.0000
55.4300 1062.0000 1.0000
55.4400 1068.0000 1.0000
55.4500 991.0000 1.0000
55.4600 1012.0000 1.0000
55.4700 961.0000 1.0000
55.4800 990.0000 1.0000
55.4900 946.0000 1.0000
55.5000 969.0000 1.0000
55.5100 942.0000 1.0000
55.5200 908.0000 1.0000
55.5300 899.0000 1.0000
55.5400 894.0000 1.0000
55.5500 872.0000 1.0000
55.5600 849.0000 1.0000
55.5700 832.0000 1.0000
55.5800 842.0000 1.0000
55.5900 838.0000 1.0000
55.6000 843.0000 1.0000
55.6100 789.0000 1.0000
55.6200 776.0000 1.0000
55.6300 786.0000 1.0000
55.6400 754.0000 1.0000
55.6500 772.0000 1.0000
55.6600 729.0000 1.0000
55.6700 759.0000 1.0000
55.6800 775.0000 1.0000
55.6900 788.0000 1.0000
55.7000 798.0000 1.0000
55.7100 799.0000 1.0000
55.7200 728.0000 1.0000
55.7300 720.0000 1.0000
55.7400 735.0000 1.0000
55.7500 717.0000 1.0000
55.7600 719.0000 1.0000
55.7700 744.0000 1.0000
55.7800 733.0000 1.0000
55.7900 730.0000 1.0000
55.8000 755.0000 1.0000
55.8100 744.0000 1.0000
55.8200 756.0000 1.0000
55.8300 717.0000 1.0000
55.8400 750.0000 1.0000
55.8500 723.0000 1.0000
55.8600 703.0000 1.0000
55.8700 724.0000 1.0000
55.8800 707.0000 1.0000
55.8900 778.0000 1.0000
55.9000 726.0000 1.0000
55.9100 692.0000 1.0000
55.9200 696.0000 1.0000
55.9300 718.0000 1.0000
55.9400 728.0000 1.0000
55.9500 687.0000 1.0000
55.9600 683.0000 1.0000
55.9700 755.0000 1.0000
55.9800 700.0000 1.0000
55.9900 732.0000 1.0000
56.0000 703.0000 1.0000
56.0100 737.0000 1.0000
56.0200 710.0000 1.0000
56.0300 755.0000 1.0000
56.0400 758.0000 1.0000
56.0500 742.0000 1.0000
56.0600 724.0000 1.0000
56.0700 709.0000 1.0000
56.0800 713.0000 1.0000
56.0900 697.0000 1.0000
56.1000 724.0000 1.0000
56.1100 683.0000 1.0000
56.1200 690.0000 1.0000
56.1300 710.0000 1.0000
56.1400 690.0000 1.0000
56.1500 678.0000 1.0000
56.1600 705.0000 1.0000
56.1700 679.0000 1.0000
56.1800 684.0000 1.0000
56.1900 687.0000 1.0000
56.2000 713.0000 1.0000
56.2100 717.0000 1.0000
56.2200 689.0000 1.0000
56.2300 723.0000 1.0000
56.2400 731.0000 1.0000
56.2500 718.0000 1.0000
56.2600 724.0000 1.0000
56.2700 682.0000 1.0000
56.2800 644.0000 1.0000
56.2900 669.0000 1.0000
56.3000 695.0000 1.0000
56.3100 731.0000 1.0000
56.3200 736.0000 1.0000
56.3300 729.0000 1.0000
56.3400 661.0000 1.0000
56.3500 663.0000 1.0000
56.3600 686.0000 1.0000
56.3700 675.0000 1.0000
56.3800 706.0000 1.0000
56.3900 702.0000 1.0000
56.4000 700.0000 1.0000
56.4100 695.0000 1.0000
56.4200 718.0000 1.0000
56.4300 715.0000 1.0000
56.4400 664.0000 1.0000
56.4500 679.0000 1.0000
56.4600 678.0000 1.0000
56.4700 662.0000 1.0000
56.4800 690.0000 1.0000
56.4900 666.0000 1.0000
56.5000 670.0000 1.0000
56.5100 666.0000 1.0000
56.5200 708.0000 1.0000
56.5300 684.0000 1.0000
56.5400 691.0000 1.0000
56.5500 729.0000 1.0000
56.5600 665.0000 1.0000
56.5700 653.0000 1.0000
56.5800 679.0000 1.0000
56.5900 670.0000 1.0000
56.6000 738.0000 1.0000
56.6100 659.0000 1.0000
56.6200 672.0000 1.0000
56.6300 658.0000 1.0000
56.6400 694.0000 1.0000
56.6500 701.0000 1.0000
56.6600 715.0000 1.0000
56.6700 688.0000 1.0000
56.6800 725.0000 1.0000
56.6900 677.0000 1.0000
56.7000 703.0000 1.0000
56.7100 685.0000 1.0000
56.7200 715.0000 1.0000
56.7300 665.0000 1.0000
56.7400 683.0000 1.0000
56.7500 722.0000 1.0000
56.7600 738.0000 1.0000
56.7700 719.0000 1.0000
56.7800 737.0000 1.0000
56.7900 721.0000 1.0000
56.8000 706.0000 1.0000
56.8100 727.0000 1.0000
56.8200 726.0000 1.0000
56.8300 711.0000 1.0000
56.8400 692.0000 1.0000
56.8500 696.0000 1.0000
56.8600 659.0000 1.0000
56.8700 653.0000 1.0000
56.8800 668.0000 1.0000
56.8900 682.0000 1.0000
56.9000 704.0000 1.0000
56.9100 674.0000 1.0000
56.9200 668.0000 1.0000
56.9300 680.0000 1.0000
56.9400 659.0000 1.0000
56.9500 681.0000 1.0000
56.9600 693.0000 1.0000
56.9700 667.0000 1.0000
56.9800 673.0000 1.0000
56.9900 681.0000 1.0000
57.0000 636.0000 1.0000
57.0100 695.0000 1.0000
57.0200 714.0000 1.0000
57.0300 679.0000 1.0000
57.0400 703.0000 1.0000
57.0500 723.0000 1.0000
57.0600 723.0000 1.0000
57.0700 676.0000 1.0000
57.0800 677.0000 1.0000
57.0900 677.0000 1.0000
57.1000 704.0000 1.0000
57.1100 706.0000 1.0000
57.1200 695.0000 1.0000
57.1300 715.0000 1.0000
57.1400 678.0000 1.0000
57.1500 686.0000 1.0000
57.1600 667.0000 1.0000
57.1700 718.0000 1.0000
57.1800 708.0000 1.0000
57.1900 678.0000 1.0000
57.2000 667.0000 1.0000
57.2100 696.0000 1.0000
57.2200 677.0000 1.0000
57.2300 701.0000 1.0000
57.2400 689.0000 1.0000
57.2500 695.0000 1.0000
57.2600 656.0000 1.0000
57.2700 672.0000 1.0000
57.2800 670.0000 1.0000
57.2900 673.0000 1.0000
57.3000 684.0000 1.0000
57.3100 693.0000 1.0000
57.3200 688.0000 1.0000
57.3300 696.0000 1.0000
57.3400 671.0000 1.0000
57.3500 670.0000 1.0000
57.3600 696.0000 1.0000
57.3700 712.0000 1.0000
57.3800 661.0000 1.0000
57.3900 710.0000 1.0000
57.4000 647.0000 1.0000
57.4100 660.0000 1.0000
57.4200 680.0000 1.0000
57.4300 616.0000 1.0000
57.4400 644.0000 1.0000
57.4500 643.0000 1.0000
57.4600 668.0000 1.0000
57.4700 700.0000 1.0000
57.4800 685.0000 1.0000
57.4900 691.0000 1.0000
57.5000 658.0000 1.0000
57.5100 692.0000 1.0000
57.5200 669.0000 1.0000
57.5300 673.0000 1.0000
57.5400 670.0000 1.0000
57.5500 655.0000 1.0000
57.5600 705.0000 1.0000
57.5700 697.0000 1.0000
57.5800 709.0000 1.0000
57.5900 678.0000 1.0000
57.6000 652.0000 1.0000
57.6100 673.0000 1.0000
57.6200 657.0000 1.0000
57.6300 685.0000 1.0000
57.6400 687.0000 1.0000
57.6500 693.0000 1.0000
57.6600 682.0000 1.0000
57.6700 667.0000 1.0000
57.6800 680.0000 1.0000
57.6900 698.0000 1.0000
57.7000 748.0000 1.0000
57.7100 672.0000 1.0000
57.7200 695.0000 1.0000
57.7300 672.0000 1.0000
57.7400 656.0000 1.0000
57.7500 666.0000 1.0000
57.7600 655.0000 1.0000
57.7700 667.0000 1.0000
57.7800 689.0000 1.0000
57.7900 702.0000 1.0000
57.8000 687.0000 1.0000
57.8100 700.0000 1.0000
57.8200 705.0000 1.0000
57.8300 695.0000 1.0000
57.8400 704.0000 1.0000
57.8500 687.0000 1.0000
57.8600 694.0000 1.0000
57.8700 677.0000 1.0000
57.8800 673.0000 1.0000
57.8900 697.0000 1.0000
57.9000 659.0000 1.0000
57.9100 650.0000 1.0000
57.9200 703.0000 1.0000
57.9300 697.0000 1.0000
57.9400 682.0000 1.0000
57.9500 693.0000 1.0000
57.9600 663.0000 1.0000
57.9700 707.0000 1.0000
57.9800 716.0000 1.0000
57.9900 688.0000 1.0000
58.0000 714.0000 1.0000
58.0100 705.0000 1.0000
58.0200 688.0000 1.0000
58.0300 689.0000 1.0000
58.0400 682.0000 1.0000
58.0500 642.0000 1.0000
58.0600 699.0000 1.0000
58.0700 672.0000 1.0000
58.0800 701.0000 1.0000
58.0900 705.0000 1.0000
58.1000 714.0000 1.0000
58.1100 691.0000 1.0000
58.1200 703.0000 1.0000
58.1300 683.0000 1.0000
58.1400 657.0000 1.0000
58.1500 711.0000 1.0000
58.1600 736.0000 1.0000
58.1700 716.0000 1.0000
58.1800 725.0000 1.0000
58.1900 700.0000 1.0000
58.2000 732.0000 1.0000
58.2100 738.0000 1.0000
58.2200 728.0000 1.0000
58.2300 683.0000 1.0000
58.2400 702.0000 1.0000
58.2500 657.0000 1.0000
58.2600 730.0000 1.0000
58.2700 760.0000 1.0000
58.2800 725.0000 1.0000
58.2900 709.0000 1.0000
58.3000 727.0000 1.0000
58.3100 671.0000 1.0000
58.3200 729.0000 1.0000
58.3300 701.0000 1.0000
58.3400 721.0000 1.0000
58.3500 699.0000 1.0000
58.3600 702.0000 1.0000
58.3700 708.0000 1.0000
58.3800 684.0000 1.0000
58.3900 673.0000 1.0000
58.4000 682.0000 1.0000
58.4100 717.0000 1.0000
58.4200 691.0000 1.0000
58.4300 700.0000 1.0000
58.4400 750.0000 1.0000
58.4500 724.0000 1.0000
58.4600 731.0000 1.0000
58.4700 731.0000 1.0000
58.4800 710.0000 1.0000
58.4900 683.0000 1.0000
58.5000 738.0000 1.0000
58.5100 682.0000 1.0000
58.5200 679.0000 1.0000
58.5300 639.0000 1.0000
58.5400 685.0000 1.0000
58.5500 654.0000 1.0000
58.5600 691.0000 1.0000
58.5700 670.0000 1.0000
58.5800 712.0000 1.0000
58.5900 669.0000 1.0000
58.6000 658.0000 1.0000
58.6100 692.0000 1.0000
58.6200 702.0000 1.0000
58.6300 688.0000 1.0000
58.6400 644.0000 1.0000
58.6500 646.0000 1.0000
58.6600 653.0000 1.0000
58.6700 714.0000 1.0000
58.6800 715.0000 1.0000
58.6900 706.0000 1.0000
58.7000 691.0000 1.0000
58.7100 703.0000 1.0000
58.7200 676.0000 1.0000
58.7300 744.0000 1.0000
58.7400 639.0000 1.0000
58.7500 646.0000 1.0000
58.7600 707.0000 1.0000
58.7700 722.0000 1.0000
58.7800 687.0000 1.0000
58.7900 704.0000 1.0000
58.8000 693.0000 1.0000
58.8100 664.0000 1.0000
58.8200 677.0000 1.0000
58.8300 687.0000 1.0000
58.8400 680.0000 1.0000
58.8500 634.0000 1.0000
58.8600 675.0000 1.0000
58.8700 686.0000 1.0000
58.8800 665.0000 1.0000
58.8900 677.0000 1.0000
58.9000 663.0000 1.0000
58.9100 692.0000 1.0000
58.9200 710.0000 1.0000
58.9300 750.0000 1.0000
58.9400 758.0000 1.0000
58.9500 717.0000 1.0000
58.9600 706.0000 1.0000
58.9700 619.0000 1.0000
58.9800 645.0000 1.0000
58.9900 693.0000 1.0000
59.0000 699.0000 1.0000
59.0100 697.0000 1.0000
59.0200 651.0000 1.0000
59.0300 676.0000 1.0000
59.0400 739.0000 1.0000
59.0500 710.0000 1.0000
59.0600 682.0000 1.0000
59.0700 723.0000 1.0000
59.0800 678.0000 1.0000
59.0900 711.0000 1.0000
59.1000 667.0000 1.0000
59.1100 680.0000 1.0000
59.1200 661.0000 1.0000
59.1300 688.0000 1.0000
59.1400 692.0000 1.0000
59.1500 679.0000 1.0000
59.1600 683.0000 1.0000
59.1700 701.0000 1.0000
59.1800 680.0000 1.0000
59.1900 695.0000 1.0000
59.2000 657.0000 1.0000
59.2100 675.0000 1.0000
59.2200 687.0000 1.0000
59.2300 692.0000 1.0000
59.2400 733.0000 1.0000
59.2500 714.0000 1.0000
59.2600 695.0000 1.0000
59.2700 705.0000 1.0000
59.2800 728.0000 1.0000
59.2900 717.0000 1.0000
59.3000 702.0000 1.0000
59.3100 677.0000 1.0000
59.3200 706.0000 1.0000
59.3300 726.0000 1.0000
59.3400 706.0000 1.0000
59.3500 695.0000 1.0000
59.3600 709.0000 1.0000
59.3700 726.0000 1.0000
59.3800 709.0000 1.0000
59.3900 680.0000 1.0000
59.4000 710.0000 1.0000
59.4100 698.0000 1.0000
59.4200 674.0000 1.0000
59.4300 716.0000 1.0000
59.4400 678.0000 1.0000
59.4500 715.0000 1.0000
59.4600 668.0000 1.0000
59.4700 707.0000 1.0000
59.4800 717.0000 1.0000
59.4900 717.0000 1.0000
59.5000 683.0000 1.0000
59.5100 707.0000 1.0000
59.5200 716.0000 1.0000
59.5300 769.0000 1.0000
59.5400 710.0000 1.0000
59.5500 729.0000 1.0000
59.5600 675.0000 1.0000
59.5700 719.0000 1.0000
59.5800 688.0000 1.0000
59.5900 679.0000 1.0000
59.6000 649.0000 1.0000
59.6100 715.0000 1.0000
59.6200 675.0000 1.0000
59.6300 699.0000 1.0000
59.6400 657.0000 1.0000
59.6500 694.0000 1.0000
59.6600 676.0000 1.0000
59.6700 638.0000 1.0000
59.6800 706.0000 1.0000
59.6900 711.0000 1.0000
59.7000 637.0000 1.0000
59.7100 657.0000 1.0000
59.7200 682.0000 1.0000
59.7300 695.0000 1.0000
59.7400 693.0000 1.0000
59.7500 691.0000 1.0000
59.7600 720.0000 1.0000
59.7700 656.0000 1.0000
59.7800 663.0000 1.0000
59.7900 702.0000 1.0000
59.8000 699.0000 1.0000
59.8100 682.0000 1.0000
59.8200 678.0000 1.0000
59.8300 663.0000 1.0000
59.8400 688.0000 1.0000
59.8500 710.0000 1.0000
59.8600 684.0000 1.0000
59.8700 668.0000 1.0000
59.8800 686.0000 1.0000
59.8900 681.0000 1.0000
59.9000 683.0000 1.0000
59.9100 654.0000 1.0000
59.9200 641.0000 1.0000
59.9300 672.0000 1.0000
59.9400 681.0000 1.0000
59.9500 661.0000 1.0000
59.9600 710.0000 1.0000
59.9700 715.0000 1.0000
59.9800 661.0000 1.0000
59.9900 654.0000 1.0000
60.0000 658.0000 1.0000
60.0100 694.0000 1.0000
60.0200 698.0000 1.0000
60.0300 693.0000 1.0000
60.0400 720.0000 1.0000
60.0500 710.0000 1.0000
60.0600 696.0000 1.0000
60.0700 684.0000 1.0000
60.0800 694.0000 1.0000
60.0900 693.0000 1.0000
60.1000 707.0000 1.0000
60.1100 697.0000 1.0000
60.1200 678.0000 1.0000
60.1300 672.0000 1.0000
60.1400 718.0000 1.0000
60.1500 697.0000 1.0000
60.1600 673.0000 1.0000
60.1700 745.0000 1.0000
60.1800 708.0000 1.0000
60.1900 706.0000 1.0000
60.2000 700.0000 1.0000
60.2100 649.0000 1.0000
60.2200 719.0000 1.0000
60.2300 710.0000 1.0000
60.2400 703.0000 1.0000
60.2500 663.0000 1.0000
60.2600 670.0000 1.0000
60.2700 692.0000 1.0000
60.2800 689.0000 1.0000
60.2900 708.0000 1.0000
60.3000 698.0000 1.0000
60.3100 672.0000 1.0000
60.3200 688.0000 1.0000
60.3300 673.0000 1.0000
60.3400 723.0000 1.0000
60.3500 671.0000 1.0000
60.3600 688.0000 1.0000
60.3700 695.0000 1.0000
60.3800 673.0000 1.0000
60.3900 670.0000 1.0000
60.4000 666.0000 1.0000
60.4100 682.0000 1.0000
60.4200 672.0000 1.0000
60.4300 656.0000 1.0000
60.4400 693.0000 1.0000
60.4500 718.0000 1.0000
60.4600 710.0000 1.0000
60.4700 688.0000 1.0000
60.4800 660.0000 1.0000
60.4900 675.0000 1.0000
60.5000 673.0000 1.0000
60.5100 700.0000 1.0000
60.5200 683.0000 1.0000
60.5300 650.0000 1.0000
60.5400 694.0000 1.0000
60.5500 688.0000 1.0000
60.5600 710.0000 1.0000
60.5700 680.0000 1.0000
60.5800 718.0000 1.0000
60.5900 703.0000 1.0000
60.6000 703.0000 1.0000
60.6100 701.0000 1.0000
60.6200 685.0000 1.0000
60.6300 662.0000 1.0000
60.6400 635.0000 1.0000
60.6500 680.0000 1.0000
60.6600 687.0000 1.0000
60.6700 663.0000 1.0000
60.6800 676.0000 1.0000
60.6900 695.0000 1.0000
60.7000 688.0000 1.0000
60.7100 691.0000 1.0000
60.7200 652.0000 1.0000
60.7300 675.0000 1.0000
60.7400 684.0000 1.0000
60.7500 681.0000 1.0000
60.7600 717.0000 1.0000
60.7700 699.0000 1.0000
60.7800 669.0000 1.0000
60.7900 689.0000 1.0000
60.8000 695.0000 1.0000
60.8100 694.0000 1.0000
60.8200 669.0000 1.0000
60.8300 703.0000 1.0000
60.8400 659.0000 1.0000
60.8500 671.0000 1.0000
60.8600 691.0000 1.0000
60.8700 682.0000 1.0000
60.8800 719.0000 1.0000
60.8900 709.0000 1.0000
60.9000 691.0000 1.0000
60.9100 676.0000 1.0000
60.9200 722.0000 1.0000
60.9300 720.0000 1.0000
60.9400 712.0000 1.0000
60.9500 669.0000 1.0000
60.9600 731.0000 1.0000
60.9700 680.0000 1.0000
60.9800 698.0000 1.0000
60.9900 671.0000 1.0000
61.0000 656.0000 1.0000
61.0100 678.0000 1.0000
61.0200 686.0000 1.0000
61.0300 681.0000 1.0000
61.0400 699.0000 1.0000
61.0500 701.0000 1.0000
61.0600 670.0000 1.0000
61.0700 717.0000 1.0000
61.0800 716.0000 1.0000
61.0900 667.0000 1.0000
61.1000 650.0000 1.0000
61.1100 697.0000 1.0000
61.1200 691.0000 1.0000
61.1300 689.0000 1.0000
61.1400 701.0000 1.0000
61.1500 690.0000 1.0000
61.1600 706.0000 1.0000
61.1700 678.0000 1.0000
61.1800 672.0000 1.0000
61.1900 672.0000 1.0000
61.2000 662.0000 1.0000
61.2100 707.0000 1.0000
61.2200 705.0000 1.0000
61.2300 683.0000 1.0000
61.2400 692.0000 1.0000
61.2500 673.0000 1.0000
61.2600 715.0000 1.0000
61.2700 682.0000 1.0000
61.2800 658.0000 1.0000
61.2900 724.0000 1.0000
61.3000 740.0000 1.0000
61.3100 727.0000 1.0000
61.3200 700.0000 1.0000
61.3300 710.0000 1.0000
61.3400 709.0000 1.0000
61.3500 724.0000 1.0000
61.3600 728.0000 1.0000
61.3700 737.0000 1.0000
61.3800 703.0000 1.0000
61.3900 700.0000 1.0000
61.4000 724.0000 1.0000
61.4100 667.0000 1.0000
61.4200 696.0000 1.0000
61.4300 682.0000 1.0000
61.4400 713.0000 1.0000
61.4500 662.0000 1.0000
61.4600 706.0000 1.0000
61.4700 697.0000 1.0000
61.4800 696.0000 1.0000
61.4900 680.0000 1.0000
61.5000 685.0000 1.0000
61.5100 670.0000 1.0000
61.5200 663.0000 1.0000
61.5300 706.0000 1.0000
61.5400 712.0000 1.0000
61.5500 692.0000 1.0000
61.5600 676.0000 1.0000
61.5700 709.0000 1.0000
61.5800 723.0000 1.0000
61.5900 728.0000 1.0000
61.6000 720.0000 1.0000
61.6100 736.0000 1.0000
61.6200 726.0000 1.0000
61.6300 713.0000 1.0000
61.6400 742.0000 1.0000
61.6500 711.0000 1.0000
61.6600 691.0000 1.0000
61.6700 714.0000 1.0000
61.6800 736.0000 1.0000
61.6900 749.0000 1.0000
61.7000 694.0000 1.0000
61.7100 673.0000 1.0000
61.7200 702.0000 1.0000
61.7300 695.0000 1.0000
61.7400 742.0000 1.0000
61.7500 716.0000 1.0000
61.7600 679.0000 1.0000
61.7700 743.0000 1.0000
61.7800 733.0000 1.0000
61.7900 771.0000 1.0000
61.8000 720.0000 1.0000
61.8100 748.0000 1.0000
61.8200 716.0000 1.0000
61.8300 724.0000 1.0000
61.8400 719.0000 1.0000
61.8500 764.0000 1.0000
61.8600 780.0000 1.0000
61.8700 715.0000 1.0000
61.8800 769.0000 1.0000
61.8900 782.0000 1.0000
61.9000 744.0000 1.0000
61.9100 765.0000 1.0000
61.9200 806.0000 1.0000
61.9300 807.0000 1.0000
61.9400 825.0000 1.0000
61.9500 789.0000 1.0000
61.9600 793.0000 1.0000
61.9700 855.0000 1.0000
61.9800 861.0000 1.0000
61.9900 853.0000 1.0000
62.0000 846.0000 1.0000
62.0100 860.0000 1.0000
62.0200 879.0000 1.0000
62.0300 898.0000 1.0000
62.0400 907.0000 1.0000
62.0500 930.0000 1.0000
62.0600 904.0000 1.0000
62.0700 938.0000 1.0000
62.0800 1011.0000 1.0000
62.0900 1071.0000 1.0000
62.1000 1022.0000 1.0000
62.1100 1057.0000 1.0000
62.1200 1100.0000 1.0000
62.1300 1134.0000 1.0000
62.1400 1186.0000 1.0000
62.1500 1178.0000 1.0000
62.1600 1254.0000 1.0000
62.1700 1268.0000 1.0000
62.1800 1217.0000 1.0000
62.1900 1327.0000 1.0000
62.2000 1385.0000 1.0000
62.2100 1439.0000 1.0000
62.2200 1473.0000 1.0000
62.2300 1431.0000 1.0000
62.2400 1520.0000 1.0000
62.2500 1563.0000 1.0000
62.2600 1620.0000 1.0000
62.2700 1593.0000 1.0000
62.2800 1530.0000 1.0000
62.2900 1542.0000 1.0000
62.3000 1539.0000 1.0000
62.3100 1615.0000 1.0000
62.3200 1582.0000 1.0000
62.3300 1521.0000 1.0000
62.3400 1598.0000 1.0000
62.3500 1595.0000 1.0000
62.3600 1570.0000 1.0000
62.3700 1593.0000 1.0000
62.3800 1532.0000 1.0000
62.3900 1575.0000 1.0000
62.4000 1509.0000 1.0000
62.4100 1525.0000 1.0000
62.4200 1456.0000 1.0000
62.4300 1407.0000 1.0000
62.4400 1398.0000 1.0000
62.4500 1435.0000 1.0000
62.4600 1338.0000 1.0000
62.4700 1351.0000 1.0000
62.4800 1333.0000 1.0000
62.4900 1331.0000 1.0000
62.5000 1316.0000 1.0000
62.5100 1231.0000 1.0000
62.5200 1187.0000 1.0000
62.5300 1193.0000 1.0000
62.5400 1188.0000 1.0000
62.5500 1176.0000 1.0000
62.5600 1126.0000 1.0000
62.5700 1117.0000 1.0000
62.5800 1079.0000 1.0000
62.5900 1116.0000 1.0000
62.6000 1068.0000 1.0000
62.6100 1071.0000 1.0000
62.6200 1005.0000 1.0000
62.6300 993.0000 1.0000
62.6400 1015.0000 1.0000
62.6500 937.0000 1.0000
62.6600 928.0000 1.0000
62.6700 934.0000 1.0000
62.6800 881.0000 1.0000
62.6900 870.0000 1.0000
62.7000 874.0000 1.0000
62.7100 909.0000 1.0000
62.7200 834.0000 1.0000
62.7300 899.0000 1.0000
62.7400 830.0000 1.0000
62.7500 836.0000 1.0000
62.7600 872.0000 1.0000
62.7700 805.0000 1.0000
62.7800 806.0000 1.0000
62.7900 805.0000 1.0000
62.8000 811.0000 1.0000
62.8100 826.0000 1.0000
62.8200 797.0000 1.0000
62.8300 804.0000 1.0000
62.8400 824.0000 1.0000
62.8500 771.0000 1.0000
62.8600 774.0000 1.0000
62.8700 780.0000 1.0000
62.8800 748.0000 1.0000
62.8900 790.0000 1.0000
62.9000 764.0000 1.0000
62.9100 772.0000 1.0000
62.9200 805.0000 1.0000
62.9300 778.0000 1.0000
62.9400 764.0000 1.0000
62.9500 783.0000 1.0000
62.9600 737.0000 1.0000
62.9700 747.0000 1.0000
62.9800 737.0000 1.0000
62.9900 759.0000 1.0000
63.0000 744.0000 1.0000
63.0100 723.0000 1.0000
63.0200 697.0000 1.0000
63.0300 733.0000 1.0000
63.0400 738.0000 1.0000
63.0500 728.0000 1.0000
63.0600 745.0000 1.0000
63.0700 736.0000 1.0000
63.0800 744.0000 1.0000
63.0900 773.0000 1.0000
63.1000 777.0000 1.0000
63.1100 730.0000 1.0000
63.1200 789.0000 1.0000
63.1300 773.0000 1.0000
63.1400 773.0000 1.0000
63.1500 736.0000 1.0000
63.1600 737.0000 1.0000
63.1700 702.0000 1.0000
63.1800 748.0000 1.0000
63.1900 752.0000 1.0000
63.2000 778.0000 1.0000
63.2100 745.0000 1.0000
63.2200 757.0000 1.0000
63.2300 754.0000 1.0000
63.2400 789.0000 1.0000
63.2500 764.0000 1.0000
63.2600 764.0000 1.0000
63.2700 795.0000 1.0000
63.2800 698.0000 1.0000
63.2900 757.0000 1.0000
63.3000 746.0000 1.0000
63.3100 726.0000 1.0000
63.3200 710.0000 1.0000
63.3300 747.0000 1.0000
63.3400 701.0000 1.0000
63.3500 666.0000 1.0000
63.3600 741.0000 1.0000
63.3700 725.0000 1.0000
63.3800 719.0000 1.0000
63.3900 716.0000 1.0000
63.4000 730.0000 1.0000
63.4100 705.0000 1.0000
63.4200 724.0000 1.0000
63.4300 692.0000 1.0000
63.4400 669.0000 1.0000
63.4500 682.0000 1.0000
63.4600 683.0000 1.0000
63.4700 706.0000 1.0000
63.4800 722.0000 1.0000
63.4900 723.0000 1.0000
63.5000 710.0000 1.0000
63.5100 717.0000 1.0000
63.5200 691.0000 1.0000
63.5300 680.0000 1.0000
63.5400 692.0000 1.0000
63.5500 717.0000 1.0000
63.5600 695.0000 1.0000
63.5700 703.0000 1.0000
63.5800 641.0000 1.0000
63.5900 686.0000 1.0000
63.6000 708.0000 1.0000
63.6100 696.0000 1.0000
63.6200 721.0000 1.0000
63.6300 692.0000 1.0000
63.6400 706.0000 1.0000
63.6500 704.0000 1.0000
63.6600 707.0000 1.0000
63.6700 704.0000 1.0000
63.6800 671.0000 1.0000
63.6900 672.0000 1.0000
63.7000 715.0000 1.0000
63.7100 708.0000 1.0000
63.7200 699.0000 1.0000
63.7300 717.0000 1.0000
63.7400 727.0000 1.0000
63.7500 694.0000 1.0000
63.7600 691.0000 1.0000
63.7700 715.0000 1.0000
63.7800 670.0000 1.0000
63.7900 651.0000 1.0000
63.8000 663.0000 1.0000
63.8100 713.0000 1.0000
63.8200 713.0000 1.0000
63.8300 701.0000 1.0000
63.8400 668.0000 1.0000
63.8500 700.0000 1.0000
63.8600 681.0000 1.0000
63.8700 672.0000 1.0000
63.8800 701.0000 1.0000
63.8900 729.0000 1.0000
63.9000 690.0000 1.0000
63.9100 666.0000 1.0000
63.9200 678.0000 1.0000
63.9300 693.0000 1.0000
63.9400 708.0000 1.0000
63.9500 684.0000 1.0000
63.9600 679.0000 1.0000
63.9700 717.0000 1.0000
63.9800 689.0000 1.0000
63.9900 678.0000 1.0000
64.0000 664.0000 1.0000
64.0100 671.0000 1.0000
64.0200 675.0000 1.0000
64.0300 687.0000 1.0000
64.0400 709.0000 1.0000
64.0500 704.0000 1.0000
64.0600 696.0000 1.0000
64.0700 716.0000 1.0000
64.0800 709.0000 1.0000
64.0900 652.0000 1.0000
64.1000 667.0000 1.0000
64.1100 677.0000 1.0000
64.1200 682.0000 1.0000
64.1300 728.0000 1.0000
64.1400 710.0000 1.0000
64.1500 692.0000 1.0000
64.1600 672.0000 1.0000
64.1700 669.0000 1.0000
64.1800 687.0000 1.0000
64.1900 710.0000 1.0000
64.2000 669.0000 1.0000
64.2100 694.0000 1.0000
64.2200 677.0000 1.0000
64.2300 675.0000 1.0000
64.2400 687.0000 1.0000
64.2500 701.0000 1.0000
64.2600 677.0000 1.0000
64.2700 713.0000 1.0000
64.2800 723.0000 1.0000
64.2900 686.0000 1.0000
64.3000 708.0000 1.0000
64.3100 726.0000 1.0000
64.3200 693.0000 1.0000
64.3300 691.0000 1.0000
64.3400 714.0000 1.0000
64.3500 704.0000 1.0000
64.3600 652.0000 1.0000
64.3700 692.0000 1.0000
64.3800 703.0000 1.0000
64.3900 750.0000 1.0000
64.4000 708.0000 1.0000
64.4100 690.0000 1.0000
64.4200 704.0000 1.0000
64.4300 713.0000 1.0000
64.4400 759.0000 1.0000
64.4500 733.0000 1.0000
64.4600 751.0000 1.0000
64.4700 702.0000 1.0000
64.4800 752.0000 1.0000
64.4900 738.0000 1.0000
64.5000 751.0000 1.0000
64.5100 737.0000 1.0000
64.5200 716.0000 1.0000
64.5300 727.0000 1.0000
64.5400 766.0000 1.0000
64.5500 740.0000 1.0000
64.5600 735.0000 1.0000
64.5700 747.0000 1.0000
64.5800 798.0000 1.0000
64.5900 795.0000 1.0000
64.6000 821.0000 1.0000
64.6100 829.0000 1.0000
64.6200 825.0000 1.0000
64.6300 843.0000 1.0000
64.6400 871.0000 1.0000
64.6500 832.0000 1.0000
64.6600 858.0000 1.0000
64.6700 849.0000 1.0000
64.6800 851.0000 1.0000
64.6900 879.0000 1.0000
64.7000 859.0000 1.0000
64.7100 863.0000 1.0000
64.7200 884.0000 1.0000
64.7300 894.0000 1.0000
64.7400 887.0000 1.0000
64.7500 894.0000 1.0000
64.7600 857.0000 1.0000
64.7700 857.0000 1.0000
64.7800 829.0000 1.0000
64.7900 865.0000 1.0000
64.8000 867.0000 1.0000
64.8100 875.0000 1.0000
64.8200 810.0000 1.0000
64.8300 843.0000 1.0000
64.8400 832.0000 1.0000
64.8500 851.0000 1.0000
64.8600 835.0000 1.0000
64.8700 835.0000 1.0000
64.8800 832.0000 1.0000
64.8900 816.0000 1.0000
64.9000 796.0000 1.0000
64.9100 795.0000 1.0000
64.9200 800.0000 1.0000
64.9300 789.0000 1.0000
64.9400 759.0000 1.0000
64.9500 780.0000 1.0000
64.9600 732.0000 1.0000
64.9700 728.0000 1.0000
64.9800 703.0000 1.0000
64.9900 754.0000 1.0000
65.0000 731.0000 1.0000
65.0100 724.0000 1.0000
65.0200 751.0000 1.0000
65.0300 778.0000 1.0000
65.0400 821.0000 1.0000
65.0500 737.0000 1.0000
65.0600 768.0000 1.0000
65.0700 763.0000 1.0000
65.0800 758.0000 1.0000
65.0900 749.0000 1.0000
65.1000 740.0000 1.0000
65.1100 741.0000 1.0000
65.1200 760.0000 1.0000
65.1300 729.0000 1.0000
65.1400 711.0000 1.0000
65.1500 782.0000 1.0000
65.1600 745.0000 1.0000
65.1700 717.0000 1.0000
65.1800 734.0000 1.0000
65.1900 712.0000 1.0000
65.2000 791.0000 1.0000
65.2100 779.0000 1.0000
65.2200 765.0000 1.0000
65.2300 758.0000 1.0000
65.2400 725.0000 1.0000
65.2500 691.0000 1.0000
65.2600 707.0000 1.0000
65.2700 719.0000 1.0000
65.2800 717.0000 1.0000
65.2900 693.0000 1.0000
65.3000 747.0000 1.0000
65.3100 740.0000 1.0000
65.3200 726.0000 1.0000
65.3300 721.0000 1.0000
65.3400 772.0000 1.0000
65.3500 731.0000 1.0000
65.3600 702.0000 1.0000
65.3700 720.0000 1.0000
65.3800 723.0000 1.0000
65.3900 739.0000 1.0000
65.4000 735.0000 1.0000
65.4100 722.0000 1.0000
65.4200 695.0000 1.0000
65.4300 683.0000 1.0000
65.4400 719.0000 1.0000
65.4500 797.0000 1.0000
65.4600 722.0000 1.0000
65.4700 706.0000 1.0000
65.4800 738.0000 1.0000
65.4900 698.0000 1.0000
65.5000 692.0000 1.0000
65.5100 767.0000 1.0000
65.5200 749.0000 1.0000
65.5300 678.0000 1.0000
65.5400 709.0000 1.0000
65.5500 697.0000 1.0000
65.5600 722.0000 1.0000
65.5700 738.0000 1.0000
65.5800 694.0000 1.0000
65.5900 736.0000 1.0000
65.6000 755.0000 1.0000
65.6100 730.0000 1.0000
65.6200 722.0000 1.0000
65.6300 720.0000 1.0000
65.6400 709.0000 1.0000
65.6500 752.0000 1.0000
65.6600 777.0000 1.0000
65.6700 753.0000 1.0000
65.6800 800.0000 1.0000
65.6900 773.0000 1.0000
65.7000 779.0000 1.0000
65.7100 824.0000 1.0000
65.7200 778.0000 1.0000
65.7300 769.0000 1.0000
65.7400 730.0000 1.0000
65.7500 767.0000 1.0000
65.7600 791.0000 1.0000
65.7700 748.0000 1.0000
65.7800 722.0000 1.0000
65.7900 767.0000 1.0000
65.8000 794.0000 1.0000
65.8100 790.0000 1.0000
65.8200 811.0000 1.0000
65.8300 824.0000 1.0000
65.8400 812.0000 1.0000
65.8500 832.0000 1.0000
65.8600 847.0000 1.0000
65.8700 834.0000 1.0000
65.8800 827.0000 1.0000
65.8900 854.0000 1.0000
65.9000 830.0000 1.0000
65.9100 875.0000 1.0000
65.9200 873.0000 1.0000
65.9300 943.0000 1.0000
65.9400 875.0000 1.0000
65.9500 909.0000 1.0000
65.9600 968.0000 1.0000
65.9700 978.0000 1.0000
65.9800 939.0000 1.0000
65.9900 1025.0000 1.0000
66.0000 1051.0000 1.0000
66.0100 1039.0000 1.0000
66.0200 1103.0000 1.0000
66.0300 1155.0000 1.0000
66.0400 1156.0000 1.0000
66.0500 1256.0000 1.0000
66.0600 1243.0000 1.0000
66.0700 1266.0000 1.0000
66.0800 1314.0000 1.0000
66.0900 1444.0000 1.0000
66.1000 1466.0000 1.0000
66.1100 1586.0000 1.0000
66.1200 1643.0000 1.0000
66.1300 1754.0000 1.0000
66.1400 1805.0000 1.0000
66.1500 1924.0000 1.0000
66.1600 2018.0000 1.0000
66.1700 2173.0000 1.0000
66.1800 2202.0000 1.0000
66.1900 2397.0000 1.0000
66.2000 2531.0000 1.0000
66.2100 2465.0000 1.0000
66.2200 2640.0000 1.0000
66.2300 2772.0000 1.0000
66.2400 2825.0000 1.0000
66.2500 2952.0000 1.0000
66.2600 2892.0000 1.0000
66.2700 2843.0000 1.0000
66.2800 2916.0000 1.0000
66.2900 2886.0000 1.0000
66.3000 2848.0000 1.0000
66.3100 2813.0000 1.0000
66.3200 2651.0000 1.0000
66.3300 2687.0000 1.0000
66.3400 2659.0000 1.0000
66.3500 2660.0000 1.0000
66.3600 2619.0000 1.0000
66.3700 2510.0000 1.0000
66.3800 2580.0000 1.0000
66.3900 2469.0000 1.0000
66.4000 2429.0000 1.0000
66.4100 2397.0000 1.0000
66.4200 2394.0000 1.0000
66.4300 2276.0000 1.0000
66.4400 2296.0000 1.0000
66.4500 2255.0000 1.0000
66.4600 2186.0000 1.0000
66.4700 2099.0000 1.0000
66.4800 2057.0000 1.0000
66.4900 1961.0000 1.0000
66.5000 1820.0000 1.0000
66.5100 1911.0000 1.0000
66.5200 1754.0000 1.0000
66.5300 1701.0000 1.0000
66.5400 1639.0000 1.0000
66.5500 1494.0000 1.0000
66.5600 1473.0000 1.0000
66.5700 1450.0000 1.0000
66.5800 1355.0000 1.0000
66.5900 1316.0000 1.0000
66.6000 1298.0000 1.0000
66.6100 1287.0000 1.0000
66.6200 1150.0000 1.0000
66.6300 1123.0000 1.0000
66.6400 1143.0000 1.0000
66.6500 1139.0000 1.0000
66.6600 1103.0000 1.0000
66.6700 1035.0000 1.0000
66.6800 1025.0000 1.0000
66.6900 1037.0000 1.0000
66.7000 970.0000 1.0000
66.7100 915.0000 1.0000
66.7200 949.0000 1.0000
66.7300 916.0000 1.0000
66.7400 889.0000 1.0000
66.7500 833.0000 1.0000
66.7600 881.0000 1.0000
66.7700 872.0000 1.0000
66.7800 867.0000 1.0000
66.7900 875.0000 1.0000
66.8000 862.0000 1.0000
66.8100 808.0000 1.0000
66.8200 832.0000 1.0000
66.8300 822.0000 1.0000
66.8400 783.0000 1.0000
66.8500 796.0000 1.0000
66.8600 768.0000 1.0000
66.8700 785.0000 1.0000
66.8800 748.0000 1.0000
66.8900 726.0000 1.0000
66.9000 740.0000 1.0000
66.9100 743.0000 1.0000
66.9200 748.0000 1.0000
66.9300 715.0000 1.0000
66.9400 722.0000 1.0000
66.9500 750.0000 1.0000
66.9600 740.0000 1.0000
66.9700 736.0000 1.0000
66.9800 733.0000 1.0000
66.9900 743.0000 1.0000
67.0000 711.0000 1.0000
67.0100 723.0000 1.0000
67.0200 684.0000 1.0000
67.0300 730.0000 1.0000
67.0400 632.0000 1.0000
67.0500 706.0000 1.0000
67.0600 679.0000 1.0000
67.0700 709.0000 1.0000
67.0800 681.0000 1.0000
67.0900 655.0000 1.0000
67.1000 709.0000 1.0000
67.1100 725.0000 1.0000
67.1200 705.0000 1.0000
67.1300 724.0000 1.0000
67.1400 704.0000 1.0000
67.1500 677.0000 1.0000
67.1600 701.0000 1.0000
67.1700 684.0000 1.0000
67.1800 720.0000 1.0000
67.1900 680.0000 1.0000
67.2000 680.0000 1.0000
67.2100 692.0000 1.0000
67.2200 674.0000 1.0000
67.2300 700.0000 1.0000
67.2400 685.0000 1.0000
67.2500 685.0000 1.0000
67.2600 688.0000 1.0000
67.2700 668.0000 1.0000
67.2800 675.0000 1.0000
67.2900 648.0000 1.0000
67.3000 689.0000 1.0000
67.3100 703.0000 1.0000
67.3200 719.0000 1.0000
67.3300 673.0000 1.0000
67.3400 690.0000 1.0000
67.3500 687.0000 1.0000
67.3600 696.0000 1.0000
67.3700 670.0000 1.0000
67.3800 700.0000 1.0000
67.3900 650.0000 1.0000
67.4000 645.0000 1.0000
67.4100 655.0000 1.0000
67.4200 655.0000 1.0000
67.4300 664.0000 1.0000
67.4400 668.0000 1.0000
67.4500 628.0000 1.0000
67.4600 698.0000 1.0000
67.4700 655.0000 1.0000
67.4800 723.0000 1.0000
67.4900 652.0000 1.0000
67.5000 644.0000 1.0000
67.5100 696.0000 1.0000
67.5200 661.0000 1.0000
67.5300 632.0000 1.0000
67.5400 686.0000 1.0000
67.5500 650.0000 1.0000
67.5600 660.0000 1.0000
67.5700 635.0000 1.0000
67.5800 707.0000 1.0000
67.5900 703.0000 1.0000
67.6000 655.0000 1.0000
67.6100 716.0000 1.0000
67.6200 704.0000 1.0000
67.6300 627.0000 1.0000
67.6400 661.0000 1.0000
67.6500 656.0000 1.0000
67.6600 679.0000 1.0000
67.6700 652.0000 1.0000
67.6800 654.0000 1.0000
67.6900 663.0000 1.0000
67.7000 667.0000 1.0000
67.7100 703.0000 1.0000
67.7200 642.0000 1.0000
67.7300 644.0000 1.0000
67.7400 643.0000 1.0000
67.7500 652.0000 1.0000
67.7600 637.0000 1.0000
67.7700 636.0000 1.0000
67.7800 635.0000 1.0000
67.7900 624.0000 1.0000
67.8000 647.0000 1.0000
67.8100 643.0000 1.0000
67.8200 628.0000 1.0000
67.8300 685.0000 1.0000
67.8400 635.0000 1.0000
67.8500 618.0000 1.0000
67.8600 633.0000 1.0000
67.8700 658.0000 1.0000
67.8800 634.0000 1.0000
67.8900 634.0000 1.0000
67.9000 621.0000 1.0000
67.9100 644.0000 1.0000
67.9200 625.0000 1.0000
67.9300 618.0000 1.0000
67.9400 589.0000 1.0000
67.9500 639.0000 1.0000
67.9600 631.0000 1.0000
67.9700 634.0000 1.0000
67.9800 677.0000 1.0000
67.9900 618.0000 1.0000
68.0000 652.0000 1.0000
68.0100 660.0000 1.0000
68.0200 631.0000 1.0000
68.0300 631.0000 1.0000
68.0400 638.0000 1.0000
68.0500 692.0000 1.0000
68.0600 638.0000 1.0000
68.0700 655.0000 1.0000
68.0800 686.0000 1.0000
68.0900 655.0000 1.0000
68.1000 614.0000 1.0000
68.1100 619.0000 1.0000
68.1200 665.0000 1.0000
68.1300 626.0000 1.0000
68.1400 664.0000 1.0000
68.1500 640.0000 1.0000
68.1600 649.0000 1.0000
68.1700 625.0000 1.0000
68.1800 670.0000 1.0000
68.1900 664.0000 1.0000
68.2000 618.0000 1.0000
68.2100 601.0000 1.0000
68.2200 608.0000 1.0000
68.2300 621.0000 1.0000
68.2400 643.0000 1.0000
68.2500 623.0000 1.0000
68.2600 596.0000 1.0000
68.2700 663.0000 1.0000
68.2800 631.0000 1.0000
68.2900 630.0000 1.0000
68.3000 608.0000 1.0000
68.3100 609.0000 1.0000
68.3200 655.0000 1.0000
68.3300 626.0000 1.0000
68.3400 660.0000 1.0000
68.3500 656.0000 1.0000
68.3600 604.0000 1.0000
68.3700 639.0000 1.0000
68.3800 619.0000 1.0000
68.3900 620.0000 1.0000
68.4000 597.0000 1.0000
68.4100 659.0000 1.0000
68.4200 646.0000 1.0000
68.4300 664.0000 1.0000
68.4400 633.0000 1.0000
68.4500 620.0000 1.0000
68.4600 626.0000 1.0000
68.4700 629.0000 1.0000
68.4800 646.0000 1.0000
68.4900 647.0000 1.0000
68.5000 604.0000 1.0000
68.5100 636.0000 1.0000
68.5200 579.0000 1.0000
68.5300 603.0000 1.0000
68.5400 627.0000 1.0000
68.5500 653.0000 1.0000
68.5600 621.0000 1.0000
68.5700 631.0000 1.0000
68.5800 605.0000 1.0000
68.5900 658.0000 1.0000
68.6000 607.0000 1.0000
68.6100 595.0000 1.0000
68.6200 636.0000 1.0000
68.6300 646.0000 1.0000
68.6400 621.0000 1.0000
68.6500 616.0000 1.0000
68.6600 603.0000 1.0000
68.6700 615.0000 1.0000
68.6800 659.0000 1.0000
68.6900 692.0000 1.0000
68.7000 585.0000 1.0000
68.7100 666.0000 1.0000
68.7200 617.0000 1.0000
68.7300 681.0000 1.0000
68.7400 618.0000 1.0000
68.7500 607.0000 1.0000
68.7600 617.0000 1.0000
68.7700 575.0000 1.0000
68.7800 622.0000 1.0000
68.7900 574.0000 1.0000
68.8000 611.0000 1.0000
68.8100 641.0000 1.0000
68.8200 620.0000 1.0000
68.8300 620.0000 1.0000
68.8400 657.0000 1.0000
68.8500 610.0000 1.0000
68.8600 609.0000 1.0000
68.8700 605.0000 1.0000
68.8800 590.0000 1.0000
68.8900 652.0000 1.0000
68.9000 650.0000 1.0000
68.9100 612.0000 1.0000
68.9200 583.0000 1.0000
68.9300 661.0000 1.0000
68.9400 585.0000 1.0000
68.9500 616.0000 1.0000
68.9600 606.0000 1.0000
68.9700 588.0000 1.0000
68.9800 665.0000 1.0000
68.9900 591.0000 1.0000
69.0000 631.0000 1.0000
69.0100 562.0000 1.0000
69.0200 606.0000 1.0000
69.0300 606.0000 1.0000
69.0400 606.0000 1.0000
69.0500 680.0000 1.0000
69.0600 648.0000 1.0000
69.0700 617.0000 1.0000
69.0800 645.0000 1.0000
69.0900 635.0000 1.0000
69.1000 613.0000 1.0000
69.1100 589.0000 1.0000
69.1200 643.0000 1.0000
69.1300 611.0000 1.0000
69.1400 661.0000 1.0000
69.1500 593.0000 1.0000
69.1600 586.0000 1.0000
69.1700 617.0000 1.0000
69.1800 598.0000 1.0000
69.1900 616.0000 1.0000
69.2000 599.0000 1.0000
69.2100 594.0000 1.0000
69.2200 608.0000 1.0000
69.2300 598.0000 1.0000
69.2400 604.0000 1.0000
69.2500 631.0000 1.0000
69.2600 617.0000 1.0000
69.2700 600.0000 1.0000
69.2800 608.0000 1.0000
69.2900 601.0000 1.0000
69.3000 579.0000 1.0000
69.3100 579.0000 1.0000
69.3200 619.0000 1.0000
69.3300 652.0000 1.0000
69.3400 578.0000 1.0000
69.3500 585.0000 1.0000
69.3600 615.0000 1.0000
69.3700 612.0000 1.0000
69.3800 663.0000 1.0000
69.3900 622.0000 1.0000
69.4000 610.0000 1.0000
69.4100 618.0000 1.0000
69.4200 623.0000 1.0000
69.4300 606.0000 1.0000
69.4400 641.0000 1.0000
69.4500 648.0000 1.0000
69.4600 615.0000 1.0000
69.4700 581.0000 1.0000
69.4800 592.0000 1.0000
69.4900 600.0000 1.0000
69.5000 578.0000 1.0000
69.5100 595.0000 1.0000
69.5200 611.0000 1.0000
69.5300 583.0000 1.0000
69.5400 628.0000 1.0000
69.5500 672.0000 1.0000
69.5600 647.0000 1.0000
69.5700 607.0000 1.0000
69.5800 610.0000 1.0000
69.5900 627.0000 1.0000
69.6000 588.0000 1.0000
69.6100 609.0000 1.0000
69.6200 608.0000 1.0000
69.6300 608.0000 1.0000
69.6400 593.0000 1.0000
69.6500 604.0000 1.0000
69.6600 620.0000 1.0000
69.6700 646.0000 1.0000
69.6800 631.0000 1.0000
69.6900 615.0000 1.0000
69.7000 604.0000 1.0000
69.7100 628.0000 1.0000
69.7200 643.0000 1.0000
69.7300 607.0000 1.0000
69.7400 601.0000 1.0000
69.7500 607.0000 1.0000
69.7600 587.0000 1.0000
69.7700 633.0000 1.0000
69.7800 592.0000 1.0000
69.7900 619.0000 1.0000
69.8000 627.0000 1.0000
69.8100 607.0000 1.0000
69.8200 608.0000 1.0000
69.8300 587.0000 1.0000
69.8400 557.0000 1.0000
69.8500 604.0000 1.0000
69.8600 639.0000 1.0000
69.8700 621.0000 1.0000
69.8800 585.0000 1.0000
69.8900 589.0000 1.0000
69.9000 607.0000 1.0000
69.9100 599.0000 1.0000
69.9200 581.0000 1.0000
69.9300 625.0000 1.0000
69.9400 586.0000 1.0000
69.9500 586.0000 1.0000
69.9600 630.0000 1.0000
69.9700 621.0000 1.0000
69.9800 578.0000 1.0000
69.9900 658.0000 1.0000
70.0000 560.0000 1.0000
*RAS_INT_END
*RAS_TEMPERATURE_START
*RAS_TEMPERATURE_END
*RAS_DATA_END
