*RAS_DATA_START
*RAS_HEADER_START
*DISP_FMT_X "%.2f"
*DISP_FMT_Y "%.0f"
*DISP_FULLSCALE "12278.0000000000"
*DISP_LINE_COLOR "255.0000000000"
*DISP_LINE_STYLE "0.0000000000"
*DISP_LINE_WIDTH "0.2500000000"
*DISP_NOTE "測定データ-2"
*DISP_OFFSET_Y "0.0000000000"
*DISP_PEAKSEARCH_UNIT_Y "cps"
*DISP_RANGE_BOTTOM "0.0000000000"
*DISP_RANGE_LEFT "20.0000000000"
*DISP_RANGE_LOGCUTOFF "0.0100000000"
*DISP_RANGE_RIGHT "70.0000000000"
*DISP_RANGE_TOP "12278.0000000000"
*DISP_SCALE_MODE_Y "0.0000000000"
*DISP_TAB_NAME "2θ/θ"
*DISP_TITLE_Y "強度"
*DISP_UNIT_Y "cps"
*DISP_WINDOW_NAME "MSG_MACROENGINE"
*FILE_COMMENT " "
*FILE_MD5 ""
*FILE_MEMO " "
*FILE_OPERATOR "Administrator"
*FILE_SAMPLE " "
*FILE_TYPE "RAS_RAW"
*FILE_USERGROUP "システムマネージャ"
*FILE_VERSION "1.0000000000"
*HW_ATTACHMENT_ID "ATT0025"
*HW_ATTACHMENT_NAME "標準|Standard"
*HW_COUNTER_ID-0 "CUT0025"
*HW_COUNTER_ID-1 "CUT0020"
*HW_COUNTER_ID-2 "CUT0020"
*HW_COUNTER_ID-3 "CSL0021"
*HW_COUNTER_ID-4 "CMC0021"
*HW_COUNTER_NAME-0 "D/teX Ultra|D/teX Ultra"
*HW_COUNTER_NAME-1 "None|None"
*HW_COUNTER_NAME-2 "None|None"
*HW_COUNTER_NAME-3 "BBM|BBM"
*HW_COUNTER_NAME-4 "検出器モノクロメータ|Detector monochromator"
*HW_COUNTER_SELECT_NAME "D/teX Ultra|D/teX Ultra"
*HW_GONIOMETER_ID "GON0023"
*HW_GONIOMETER_NAME "SmartLab|SmartLab"
*HW_GONIOMETER_RADIUS-0 "90.0"
*HW_GONIOMETER_RADIUS-1 "114.0"
*HW_GONIOMETER_RADIUS-2 "190.0"
*HW_GONIOMETER_RADIUS-3 "300.0"
*HW_GONIOMETER_RADIUS-4 "187.0"
*HW_GONIOMETER_RADIUS-5 "300.0"
*HW_GONIOMETER_RADIUS-6 "113.0"
*HW_GONIOMETER_RADIUS-7 "331.0"
*HW_I_OPT_ID-0 "CBO0021"
*HW_I_OPT_ID-1 "ICR0023"
*HW_I_OPT_ID-2 "ISL0021"
*HW_I_OPT_ID-3 "ISO0021"
*HW_I_OPT_ID-4 "IAD0021"
*HW_I_OPT_ID-5 "IPR0001"
*HW_I_OPT_NAME-0 "CBOユニット|CBO unit"
*HW_I_OPT_NAME-1 "標準入射光学ユニット|Standard incident optical unit"
*HW_I_OPT_NAME-2 "標準入射スリットボックス|Standard incident slit box"
*HW_I_OPT_NAME-3 "入射平行スリット|Incident parallel slit"
*HW_I_OPT_NAME-4 "長手制限スリット|Length limiting slit"
*HW_I_OPT_NAME-5 "None|None"
*HW_R_ATTENUATER_AUTOMODE "0"
*HW_R_OPT_ID-0 "RSS0021"
*HW_R_OPT_ID-1 "RCR0023"
*HW_R_OPT_ID-2 "RSO0021"
*HW_R_OPT_ID-3 "RRS0021"
*HW_R_OPT_ID-4 "ATN0021"
*HW_R_OPT_ID-5 "RFL0021"
*HW_R_OPT_ID-6 "RAD0021"
*HW_R_OPT_NAME-0 "標準受光スリットボックス1|Standard receiving slit box # 1"
*HW_R_OPT_NAME-1 "標準受光光学ユニット1|Standard receiving unit # 1"
*HW_R_OPT_NAME-2 "標準受光光学ユニット2|Standard receiving optical unit # 2"
*HW_R_OPT_NAME-3 "標準受光スリットボックス2|Standard receiving slit box # 2"
*HW_R_OPT_NAME-4 "標準アッテネータ|Standard Attenuator"
*HW_R_OPT_NAME-5 "Cu Kβ|Cu K-beta"
*HW_R_OPT_NAME-6 "調整用受光スリット|Alignment receiving slit"
*HW_SAMPLE_HOLDER_ID "SMP0023"
*HW_SAMPLE_HOLDER_NAME "標準Zステージ|Standard Z stage"
*HW_XG_CURRENT_MAX "50"
*HW_XG_CURRENT_MIN "2"
*HW_XG_CURRENT_RESOLUTION "1"
*HW_XG_CURRENT_UNIT "mA"
*HW_XG_FOCUS "1mm x 10mm"
*HW_XG_FOCUS_TYPE "Normal"
*HW_XG_ID ""
*HW_XG_NAME "3kW 封入管(ID:1200)|3kW Sealed tube(ID:1200)"
*HW_XG_TARGET_ATOMIC_NUMBER "29.0000000000"
*HW_XG_TARGET_NAME "Cu"
*HW_XG_TYPE "Hermetic"
*HW_XG_VOLTAGE_MAX "60"
*HW_XG_VOLTAGE_MIN "20"
*HW_XG_VOLTAGE_RESOLUTION "1"
*HW_XG_VOLTAGE_UNIT "kV"
*HW_XG_WATT_MAX "1.500"
*HW_XG_WATT_UNIT "kW"
*HW_XG_WAVE_LENGTH_ALPHA1 "1.540593"
*HW_XG_WAVE_LENGTH_ALPHA2 "1.544414"
*HW_XG_WAVE_LENGTH_BETA "1.392250"
*MEAS_COND_AXIS_NAME-0 "2θ/θ"
*MEAS_COND_AXIS_NAME-1 "2θ"
*MEAS_COND_AXIS_NAME-2 "ω"
*MEAS_COND_AXIS_NAME-3 "Z"
*MEAS_COND_AXIS_NAME-4 "2θ/ω"
*MEAS_COND_AXIS_NAME-5 "θs"
*MEAS_COND_AXIS_NAME-6 "θd"
*MEAS_COND_AXIS_NAME-7 "Ts"
*MEAS_COND_AXIS_NAME-8 "CBO選択スリット"
*MEAS_COND_AXIS_NAME-9 "M"
*MEAS_COND_AXIS_NAME-10 "入射平行スリット"
*MEAS_COND_AXIS_NAME-11 "入射スリット"
*MEAS_COND_AXIS_NAME-12 ""
*MEAS_COND_AXIS_NAME-13 "Zs"
*MEAS_COND_AXIS_NAME-14 "入射光学素子"
*MEAS_COND_AXIS_NAME-15 "長手制限スリット"
*MEAS_COND_AXIS_NAME-16 "センタースリット"
*MEAS_COND_AXIS_NAME-17 "フィルター"
*MEAS_COND_AXIS_NAME-18 "受光スリット1"
*MEAS_COND_AXIS_NAME-19 "受光スリット2"
*MEAS_COND_AXIS_NAME-20 "受光光学素子"
*MEAS_COND_AXIS_NAME-21 "受光平行スリット"
*MEAS_COND_AXIS_NAME-22 "調整用受光スリット"
*MEAS_COND_AXIS_NAME-23 ""
*MEAS_COND_AXIS_NAME-24 ""
*MEAS_COND_AXIS_NAME-25 "Zd"
*MEAS_COND_AXIS_NAME-26 "アッテネータ"
*MEAS_COND_AXIS_NAME-27 "検出器モノクロメータ"
*MEAS_COND_AXIS_NAME-28 "モノクロメータスリット"
*MEAS_COND_AXIS_NAME-29 "プライマリビーム"
*MEAS_COND_AXIS_NAME-30 "PHA"
*MEAS_COND_AXIS_NAME_INTERNAL-0 "TwoThetaTheta"
*MEAS_COND_AXIS_NAME_INTERNAL-1 "TwoTheta"
*MEAS_COND_AXIS_NAME_INTERNAL-2 "Omega"
*MEAS_COND_AXIS_NAME_INTERNAL-3 "Z"
*MEAS_COND_AXIS_NAME_INTERNAL-4 "TwoThetaOmega"
*MEAS_COND_AXIS_NAME_INTERNAL-5 "ThetaS"
*MEAS_COND_AXIS_NAME_INTERNAL-6 "ThetaD"
*MEAS_COND_AXIS_NAME_INTERNAL-7 "Ts"
*MEAS_COND_AXIS_NAME_INTERNAL-8 "CBO"
*MEAS_COND_AXIS_NAME_INTERNAL-9 "CBO-M"
*MEAS_COND_AXIS_NAME_INTERNAL-10 "IncidentSollerSlit"
*MEAS_COND_AXIS_NAME_INTERNAL-11 "IncidentSlitBox"
*MEAS_COND_AXIS_NAME_INTERNAL-12 "IncidentSlitBox-_Axis"
*MEAS_COND_AXIS_NAME_INTERNAL-13 "Zs"
*MEAS_COND_AXIS_NAME_INTERNAL-14 "IncidentMonochromator"
*MEAS_COND_AXIS_NAME_INTERNAL-15 "IncidentAxdSlit"
*MEAS_COND_AXIS_NAME_INTERNAL-16 "CenterSlit"
*MEAS_COND_AXIS_NAME_INTERNAL-17 "Filter"
*MEAS_COND_AXIS_NAME_INTERNAL-18 "ReceivingSlitBox1"
*MEAS_COND_AXIS_NAME_INTERNAL-19 "ReceivingSlitBox2"
*MEAS_COND_AXIS_NAME_INTERNAL-20 "ReceivingOptics"
*MEAS_COND_AXIS_NAME_INTERNAL-21 "ReceivingSollerSlit"
*MEAS_COND_AXIS_NAME_INTERNAL-22 "ReceivingAxdSlit"
*MEAS_COND_AXIS_NAME_INTERNAL-23 "ReceivingSlitBox1-_Axis"
*MEAS_COND_AXIS_NAME_INTERNAL-24 "ReceivingSlitBox2-_Axis"
*MEAS_COND_AXIS_NAME_INTERNAL-25 "ReceivingSlitBox2-Zd"
*MEAS_COND_AXIS_NAME_INTERNAL-26 "Attenuator"
*MEAS_COND_AXIS_NAME_INTERNAL-27 "CounterMonochromator"
*MEAS_COND_AXIS_NAME_INTERNAL-28 "CounterSlit"
*MEAS_COND_AXIS_NAME_INTERNAL-29 "IncidentPrimary"
*MEAS_COND_AXIS_NAME_INTERNAL-30 "PHA"
*MEAS_COND_AXIS_NAME_MAGICNO-0 "83951616.0000000000"
*MEAS_COND_AXIS_NAME_MAGICNO-1 "268632064.0000000000"
*MEAS_COND_AXIS_NAME_MAGICNO-2 "268500992.0000000000"
*MEAS_COND_AXIS_NAME_MAGICNO-3 "285278208.0000000000"
*MEAS_COND_AXIS_NAME_MAGICNO-4 "83951616.0000000000"
*MEAS_COND_AXIS_NAME_MAGICNO-5 "131072.0000000000"
*MEAS_COND_AXIS_NAME_MAGICNO-6 "131072.0000000000"
*MEAS_COND_AXIS_NAME_MAGICNO-7 "318898176.0000000000"
*MEAS_COND_AXIS_NAME_MAGICNO-8 "20971521.0000000000"
*MEAS_COND_AXIS_NAME_MAGICNO-9 "285343744.0000000000"
*MEAS_COND_AXIS_NAME_MAGICNO-10 "20971521.0000000000"
*MEAS_COND_AXIS_NAME_MAGICNO-11 "22020097.0000000000"
*MEAS_COND_AXIS_NAME_MAGICNO-12 "25165824.0000000000"
*MEAS_COND_AXIS_NAME_MAGICNO-13 "318898176.0000000000"
*MEAS_COND_AXIS_NAME_MAGICNO-14 "1.0000000000"
*MEAS_COND_AXIS_NAME_MAGICNO-15 "20971521.0000000000"
*MEAS_COND_AXIS_NAME_MAGICNO-16 "20971521.0000000000"
*MEAS_COND_AXIS_NAME_MAGICNO-17 "20971521.0000000000"
*MEAS_COND_AXIS_NAME_MAGICNO-18 "23068673.0000000000"
*MEAS_COND_AXIS_NAME_MAGICNO-19 "23068673.0000000000"
*MEAS_COND_AXIS_NAME_MAGICNO-20 "20971521.0000000000"
*MEAS_COND_AXIS_NAME_MAGICNO-21 "20971521.0000000000"
*MEAS_COND_AXIS_NAME_MAGICNO-22 "20971521.0000000000"
*MEAS_COND_AXIS_NAME_MAGICNO-23 "25165824.0000000000"
*MEAS_COND_AXIS_NAME_MAGICNO-24 "25165824.0000000000"
*MEAS_COND_AXIS_NAME_MAGICNO-25 "285343744.0000000000"
*MEAS_COND_AXIS_NAME_MAGICNO-26 "17301505.0000000000"
*MEAS_COND_AXIS_NAME_MAGICNO-27 "20971521.0000000000"
*MEAS_COND_AXIS_NAME_MAGICNO-28 "20971521.0000000000"
*MEAS_COND_AXIS_NAME_MAGICNO-29 "20971521.0000000000"
*MEAS_COND_AXIS_NAME_MAGICNO-30 "0.0000000000"
*MEAS_COND_AXIS_OFFSET-0 "-"
*MEAS_COND_AXIS_OFFSET-1 "-0.1081000000"
*MEAS_COND_AXIS_OFFSET-2 "0.3758000000"
*MEAS_COND_AXIS_OFFSET-3 "-"
*MEAS_COND_AXIS_OFFSET-4 "-"
*MEAS_COND_AXIS_OFFSET-5 "0.3758000000"
*MEAS_COND_AXIS_OFFSET-6 "-0.4839000000"
*MEAS_COND_AXIS_OFFSET-7 "-"
*MEAS_COND_AXIS_OFFSET-8 "-"
*MEAS_COND_AXIS_OFFSET-9 "-"
*MEAS_COND_AXIS_OFFSET-10 "-"
*MEAS_COND_AXIS_OFFSET-11 "-"
*MEAS_COND_AXIS_OFFSET-12 "-"
*MEAS_COND_AXIS_OFFSET-13 "-"
*MEAS_COND_AXIS_OFFSET-14 "-"
*MEAS_COND_AXIS_OFFSET-15 "-"
*MEAS_COND_AXIS_OFFSET-16 "-"
*MEAS_COND_AXIS_OFFSET-17 "-"
*MEAS_COND_AXIS_OFFSET-18 "-"
*MEAS_COND_AXIS_OFFSET-19 "-"
*MEAS_COND_AXIS_OFFSET-20 "-"
*MEAS_COND_AXIS_OFFSET-21 "-"
*MEAS_COND_AXIS_OFFSET-22 "-"
*MEAS_COND_AXIS_OFFSET-23 "-"
*MEAS_COND_AXIS_OFFSET-24 "-"
*MEAS_COND_AXIS_OFFSET-25 "-"
*MEAS_COND_AXIS_OFFSET-26 "-"
*MEAS_COND_AXIS_OFFSET-27 "-"
*MEAS_COND_AXIS_OFFSET-28 "-"
*MEAS_COND_AXIS_OFFSET-29 "-"
*MEAS_COND_AXIS_OFFSET-30 "-"
*MEAS_COND_AXIS_POSITION-0 "18.9662000000"
*MEAS_COND_AXIS_POSITION-1 "18.9662000000"
*MEAS_COND_AXIS_POSITION-2 "9.4831000000"
*MEAS_COND_AXIS_POSITION-3 "-0.5500000000"
*MEAS_COND_AXIS_POSITION-4 "18.9662000000"
*MEAS_COND_AXIS_POSITION-5 "9.4831000000"
*MEAS_COND_AXIS_POSITION-6 "9.4831000000"
*MEAS_COND_AXIS_POSITION-7 "-0.4278800000"
*MEAS_COND_AXIS_POSITION-8 "BB"
*MEAS_COND_AXIS_POSITION-9 "0.0000000000"
*MEAS_COND_AXIS_POSITION-10 "Soller_slit_5.0deg"
*MEAS_COND_AXIS_POSITION-11 "2/3deg"
*MEAS_COND_AXIS_POSITION-12 "2.2088000000"
*MEAS_COND_AXIS_POSITION-13 "-0.4140600000"
*MEAS_COND_AXIS_POSITION-14 "0.0000000000"
*MEAS_COND_AXIS_POSITION-15 "10.0mm"
*MEAS_COND_AXIS_POSITION-16 "None"
*MEAS_COND_AXIS_POSITION-17 "Cu_K-beta"
*MEAS_COND_AXIS_POSITION-18 "13.000mm"
*MEAS_COND_AXIS_POSITION-19 "13.000mm"
*MEAS_COND_AXIS_POSITION-20 "No_unit"
*MEAS_COND_AXIS_POSITION-21 "Soller_slit_5.0deg"
*MEAS_COND_AXIS_POSITION-22 "None"
*MEAS_COND_AXIS_POSITION-23 "13.0000000000"
*MEAS_COND_AXIS_POSITION-24 "13.0000000000"
*MEAS_COND_AXIS_POSITION-25 "0.0109400000"
*MEAS_COND_AXIS_POSITION-26 "Open"
*MEAS_COND_AXIS_POSITION-27 "None"
*MEAS_COND_AXIS_POSITION-28 "None"
*MEAS_COND_AXIS_POSITION-29 "None"
*MEAS_COND_AXIS_POSITION-30 "38.0000000000"
*MEAS_COND_AXIS_UNIT-0 "deg"
*MEAS_COND_AXIS_UNIT-1 "deg"
*MEAS_COND_AXIS_UNIT-2 "deg"
*MEAS_COND_AXIS_UNIT-3 "mm"
*MEAS_COND_AXIS_UNIT-4 "deg"
*MEAS_COND_AXIS_UNIT-5 "deg"
*MEAS_COND_AXIS_UNIT-6 "deg"
*MEAS_COND_AXIS_UNIT-7 "mm"
*MEAS_COND_AXIS_UNIT-8 ""
*MEAS_COND_AXIS_UNIT-9 "pulse"
*MEAS_COND_AXIS_UNIT-10 ""
*MEAS_COND_AXIS_UNIT-11 ""
*MEAS_COND_AXIS_UNIT-12 "mm"
*MEAS_COND_AXIS_UNIT-13 "mm"
*MEAS_COND_AXIS_UNIT-14 ""
*MEAS_COND_AXIS_UNIT-15 ""
*MEAS_COND_AXIS_UNIT-16 ""
*MEAS_COND_AXIS_UNIT-17 ""
*MEAS_COND_AXIS_UNIT-18 ""
*MEAS_COND_AXIS_UNIT-19 ""
*MEAS_COND_AXIS_UNIT-20 ""
*MEAS_COND_AXIS_UNIT-21 ""
*MEAS_COND_AXIS_UNIT-22 ""
*MEAS_COND_AXIS_UNIT-23 "mm"
*MEAS_COND_AXIS_UNIT-24 "mm"
*MEAS_COND_AXIS_UNIT-25 "mm"
*MEAS_COND_AXIS_UNIT-26 ""
*MEAS_COND_AXIS_UNIT-27 ""
*MEAS_COND_AXIS_UNIT-28 ""
*MEAS_COND_AXIS_UNIT-29 ""
*MEAS_COND_AXIS_UNIT-30 "div"
*MEAS_COND_COUNTER_CNTLOSS_CORR "0.0000000000"
*MEAS_COND_COUNTER_PHABASE "38.0000000000"
*MEAS_COND_COUNTER_PHAWINDOW "16.0000000000"
*MEAS_COND_COUNTER_PHA_UNIT "div"
*MEAS_COND_COUNTER_TAUDIFF "30.0000000000"
*MEAS_COND_COUNTER_TAUINT "0.0000000000"
*MEAS_COND_IRRADIATION_MODE "OFF"
*MEAS_COND_IRRADIATION_WIDTH ""
*MEAS_COND_OPT_ATTR "集中法"
*MEAS_COND_OPT_NAME "@集中法"
*MEAS_COND_UNSYMMETRIC_MODE "OFF"
*MEAS_COND_XG_CURRENT "30.0000000000"
*MEAS_COND_XG_VOLTAGE "40.0000000000"
*MEAS_COND_XG_WAVE_TYPE "Ka"
*MEAS_DATA_COUNT "5001.0000000000"
*MEAS_SCAN_AXIS_X "2θ/θ"
*MEAS_SCAN_AXIS_X_INTERNAL "TwoThetaTheta"
*MEAS_SCAN_END_TIME "06/24/21 15:42:13"
*MEAS_SCAN_MODE "CONTINUOUS"
*MEAS_SCAN_MONITOR "0"
*MEAS_SCAN_RESOLUTION_X "0.0002"
*MEAS_SCAN_SPEED "1.0"
*MEAS_SCAN_SPEED_UNIT "deg/min"
*MEAS_SCAN_START "20.0000000000"
*MEAS_SCAN_START_TIME "06/24/21 14:49:22"
*MEAS_SCAN_STEP "0.0100000000"
*MEAS_SCAN_STOP "70.0000000000"
*MEAS_SCAN_UNIT_X "deg"
*MEAS_SCAN_UNIT_Y "counts"
*RAS_HEADER_END
*RAS_INT_START
20.0000 1530.0000 1.0000
20.0100 1483.0000 1.0000
20.0200 1504.0000 1.0000
20.0300 1457.0000 1.0000
20.0400 1500.0000 1.0000
20.0500 1510.0000 1.0000
20.0600 1469.0000 1.0000
20.0700 1427.0000 1.0000
20.0800 1498.0000 1.0000
20.0900 1430.0000 1.0000
20.1000 1450.0000 1.0000
20.1100 1445.0000 1.0000
20.1200 1458.0000 1.0000
20.1300 1415.0000 1.0000
20.1400 1429.0000 1.0000
20.1500 1465.0000 1.0000
20.1600 1492.0000 1.0000
20.1700 1433.0000 1.0000
20.1800 1525.0000 1.0000
20.1900 1439.0000 1.0000
20.2000 1474.0000 1.0000
20.2100 1456.0000 1.0000
20.2200 1413.0000 1.0000
20.2300 1458.0000 1.0000
20.2400 1498.0000 1.0000
20.2500 1487.0000 1.0000
20.2600 1402.0000 1.0000
20.2700 1467.0000 1.0000
20.2800 1448.0000 1.0000
20.2900 1457.0000 1.0000
20.3000 1422.0000 1.0000
20.3100 1427.0000 1.0000
20.3200 1438.0000 1.0000
20.3300 1477.0000 1.0000
20.3400 1435.0000 1.0000
20.3500 1468.0000 1.0000
20.3600 1448.0000 1.0000
20.3700 1444.0000 1.0000
20.3800 1473.0000 1.0000
20.3900 1416.0000 1.0000
20.4000 1466.0000 1.0000
20.4100 1453.0000 1.0000
20.4200 1447.0000 1.0000
20.4300 1459.0000 1.0000
20.4400 1479.0000 1.0000
20.4500 1407.0000 1.0000
20.4600 1464.0000 1.0000
20.4700 1481.0000 1.0000
20.4800 1440.0000 1.0000
20.4900 1457.0000 1.0000
20.5000 1488.0000 1.0000
20.5100 1417.0000 1.0000
20.5200 1342.0000 1.0000
20.5300 1456.0000 1.0000
20.5400 1464.0000 1.0000
20.5500 1518.0000 1.0000
20.5600 1495.0000 1.0000
20.5700 1459.0000 1.0000
20.5800 1405.0000 1.0000
20.5900 1502.0000 1.0000
20.6000 1451.0000 1.0000
20.6100 1508.0000 1.0000
20.6200 1473.0000 1.0000
20.6300 1427.0000 1.0000
20.6400 1499.0000 1.0000
20.6500 1465.0000 1.0000
20.6600 1479.0000 1.0000
20.6700 1422.0000 1.0000
20.6800 1503.0000 1.0000
20.6900 1413.0000 1.0000
20.7000 1404.0000 1.0000
20.7100 1432.0000 1.0000
20.7200 1424.0000 1.0000
20.7300 1423.0000 1.0000
20.7400 1438.0000 1.0000
20.7500 1475.0000 1.0000
20.7600 1440.0000 1.0000
20.7700 1426.0000 1.0000
20.7800 1421.0000 1.0000
20.7900 1470.0000 1.0000
20.8000 1439.0000 1.0000
20.8100 1464.0000 1.0000
20.8200 1422.0000 1.0000
20.8300 1471.0000 1.0000
20.8400 1423.0000 1.0000
20.8500 1412.0000 1.0000
20.8600 1505.0000 1.0000
20.8700 1515.0000 1.0000
20.8800 1501.0000 1.0000
20.8900 1438.0000 1.0000
20.9000 1490.0000 1.0000
20.9100 1492.0000 1.0000
20.9200 1407.0000 1.0000
20.9300 1449.0000 1.0000
20.9400 1396.0000 1.0000
20.9500 1394.0000 1.0000
20.9600 1475.0000 1.0000
20.9700 1507.0000 1.0000
20.9800 1480.0000 1.0000
20.9900 1492.0000 1.0000
21.0000 1459.0000 1.0000
21.0100 1463.0000 1.0000
21.0200 1464.0000 1.0000
21.0300 1516.0000 1.0000
21.0400 1508.0000 1.0000
21.0500 1495.0000 1.0000
21.0600 1480.0000 1.0000
21.0700 1459.0000 1.0000
21.0800 1496.0000 1.0000
21.0900 1472.0000 1.0000
21.1000 1423.0000 1.0000
21.1100 1489.0000 1.0000
21.1200 1437.0000 1.0000
21.1300 1453.0000 1.0000
21.1400 1385.0000 1.0000
21.1500 1500.0000 1.0000
21.1600 1496.0000 1.0000
21.1700 1476.0000 1.0000
21.1800 1487.0000 1.0000
21.1900 1423.0000 1.0000
21.2000 1479.0000 1.0000
21.2100 1484.0000 1.0000
21.2200 1491.0000 1.0000
21.2300 1409.0000 1.0000
21.2400 1494.0000 1.0000
21.2500 1446.0000 1.0000
21.2600 1473.0000 1.0000
21.2700 1495.0000 1.0000
21.2800 1481.0000 1.0000
21.2900 1444.0000 1.0000
21.3000 1500.0000 1.0000
21.3100 1415.0000 1.0000
21.3200 1441.0000 1.0000
21.3300 1434.0000 1.0000
21.3400 1491.0000 1.0000
21.3500 1477.0000 1.0000
21.3600 1498.0000 1.0000
21.3700 1462.0000 1.0000
21.3800 1413.0000 1.0000
21.3900 1470.0000 1.0000
21.4000 1487.0000 1.0000
21.4100 1507.0000 1.0000
21.4200 1457.0000 1.0000
21.4300 1481.0000 1.0000
21.4400 1440.0000 1.0000
21.4500 1457.0000 1.0000
21.4600 1490.0000 1.0000
21.4700 1461.0000 1.0000
21.4800 1486.0000 1.0000
21.4900 1424.0000 1.0000
21.5000 1446.0000 1.0000
21.5100 1495.0000 1.0000
21.5200 1448.0000 1.0000
21.5300 1453.0000 1.0000
21.5400 1346.0000 1.0000
21.5500 1495.0000 1.0000
21.5600 1433.0000 1.0000
21.5700 1477.0000 1.0000
21.5800 1439.0000 1.0000
21.5900 1446.0000 1.0000
21.6000 1443.0000 1.0000
21.6100 1498.0000 1.0000
21.6200 1509.0000 1.0000
21.6300 1475.0000 1.0000
21.6400 1452.0000 1.0000
21.6500 1499.0000 1.0000
21.6600 1514.0000 1.0000
21.6700 1491.0000 1.0000
21.6800 1450.0000 1.0000
21.6900 1474.0000 1.0000
21.7000 1515.0000 1.0000
21.7100 1482.0000 1.0000
21.7200 1485.0000 1.0000
21.7300 1555.0000 1.0000
21.7400 1517.0000 1.0000
21.7500 1525.0000 1.0000
21.7600 1447.0000 1.0000
21.7700 1478.0000 1.0000
21.7800 1452.0000 1.0000
21.7900 1526.0000 1.0000
21.8000 1507.0000 1.0000
21.8100 1456.0000 1.0000
21.8200 1520.0000 1.0000
21.8300 1505.0000 1.0000
21.8400 1493.0000 1.0000
21.8500 1471.0000 1.0000
21.8600 1472.0000 1.0000
21.8700 1516.0000 1.0000
21.8800 1462.0000 1.0000
21.8900 1488.0000 1.0000
21.9000 1493.0000 1.0000
21.9100 1455.0000 1.0000
21.9200 1528.0000 1.0000
21.9300 1477.0000 1.0000
21.9400 1438.0000 1.0000
21.9500 1482.0000 1.0000
21.9600 1469.0000 1.0000
21.9700 1389.0000 1.0000
21.9800 1419.0000 1.0000
21.9900 1474.0000 1.0000
22.0000 1461.0000 1.0000
22.0100 1508.0000 1.0000
22.0200 1550.0000 1.0000
22.0300 1451.0000 1.0000
22.0400 1451.0000 1.0000
22.0500 1447.0000 1.0000
22.0600 1468.0000 1.0000
22.0700 1430.0000 1.0000
22.0800 1508.0000 1.0000
22.0900 1502.0000 1.0000
22.1000 1518.0000 1.0000
22.1100 1395.0000 1.0000
22.1200 1503.0000 1.0000
22.1300 1541.0000 1.0000
22.1400 1442.0000 1.0000
22.1500 1477.0000 1.0000
22.1600 1507.0000 1.0000
22.1700 1502.0000 1.0000
22.1800 1440.0000 1.0000
22.1900 1482.0000 1.0000
22.2000 1496.0000 1.0000
22.2100 1476.0000 1.0000
22.2200 1475.0000 1.0000
22.2300 1429.0000 1.0000
22.2400 1498.0000 1.0000
22.2500 1479.0000 1.0000
22.2600 1484.0000 1.0000
22.2700 1453.0000 1.0000
22.2800 1474.0000 1.0000
22.2900 1450.0000 1.0000
22.3000 1487.0000 1.0000
22.3100 1448.0000 1.0000
22.3200 1466.0000 1.0000
22.3300 1499.0000 1.0000
22.3400 1537.0000 1.0000
22.3500 1544.0000 1.0000
22.3600 1457.0000 1.0000
22.3700 1490.0000 1.0000
22.3800 1482.0000 1.0000
22.3900 1468.0000 1.0000
22.4000 1503.0000 1.0000
22.4100 1518.0000 1.0000
22.4200 1488.0000 1.0000
22.4300 1509.0000 1.0000
22.4400 1468.0000 1.0000
22.4500 1466.0000 1.0000
22.4600 1543.0000 1.0000
22.4700 1480.0000 1.0000
22.4800 1470.0000 1.0000
22.4900 1496.0000 1.0000
22.5000 1489.0000 1.0000
22.5100 1512.0000 1.0000
22.5200 1475.0000 1.0000
22.5300 1566.0000 1.0000
22.5400 1569.0000 1.0000
22.5500 1462.0000 1.0000
22.5600 1454.0000 1.0000
22.5700 1485.0000 1.0000
22.5800 1463.0000 1.0000
22.5900 1482.0000 1.0000
22.6000 1524.0000 1.0000
22.6100 1499.0000 1.0000
22.6200 1544.0000 1.0000
22.6300 1443.0000 1.0000
22.6400 1551.0000 1.0000
22.6500 1543.0000 1.0000
22.6600 1447.0000 1.0000
22.6700 1522.0000 1.0000
22.6800 1457.0000 1.0000
22.6900 1451.0000 1.0000
22.7000 1499.0000 1.0000
22.7100 1442.0000 1.0000
22.7200 1520.0000 1.0000
22.7300 1511.0000 1.0000
22.7400 1503.0000 1.0000
22.7500 1500.0000 1.0000
22.7600 1516.0000 1.0000
22.7700 1522.0000 1.0000
22.7800 1469.0000 1.0000
22.7900 1484.0000 1.0000
22.8000 1547.0000 1.0000
22.8100 1492.0000 1.0000
22.8200 1552.0000 1.0000
22.8300 1572.0000 1.0000
22.8400 1510.0000 1.0000
22.8500 1485.0000 1.0000
22.8600 1453.0000 1.0000
22.8700 1467.0000 1.0000
22.8800 1490.0000 1.0000
22.8900 1536.0000 1.0000
22.9000 1483.0000 1.0000
22.9100 1484.0000 1.0000
22.9200 1463.0000 1.0000
22.9300 1471.0000 1.0000
22.9400 1523.0000 1.0000
22.9500 1552.0000 1.0000
22.9600 1457.0000 1.0000
22.9700 1528.0000 1.0000
22.9800 1474.0000 1.0000
22.9900 1516.0000 1.0000
23.0000 1473.0000 1.0000
23.0100 1468.0000 1.0000
23.0200 1528.0000 1.0000
23.0300 1522.0000 1.0000
23.0400 1486.0000 1.0000
23.0500 1510.0000 1.0000
23.0600 1488.0000 1.0000
23.0700 1454.0000 1.0000
23.0800 1504.0000 1.0000
23.0900 1458.0000 1.0000
23.1000 1496.0000 1.0000
23.1100 1559.0000 1.0000
23.1200 1512.0000 1.0000
23.1300 1505.0000 1.0000
23.1400 1458.0000 1.0000
23.1500 1530.0000 1.0000
23.1600 1480.0000 1.0000
23.1700 1523.0000 1.0000
23.1800 1493.0000 1.0000
23.1900 1515.0000 1.0000
23.2000 1539.0000 1.0000
23.2100 1507.0000 1.0000
23.2200 1521.0000 1.0000
23.2300 1483.0000 1.0000
23.2400 1479.0000 1.0000
23.2500 1484.0000 1.0000
23.2600 1497.0000 1.0000
23.2700 1541.0000 1.0000
23.2800 1495.0000 1.0000
23.2900 1523.0000 1.0000
23.3000 1504.0000 1.0000
23.3100 1513.0000 1.0000
23.3200 1460.0000 1.0000
23.3300 1486.0000 1.0000
23.3400 1545.0000 1.0000
23.3500 1467.0000 1.0000
23.3600 1477.0000 1.0000
23.3700 1477.0000 1.0000
23.3800 1516.0000 1.0000
23.3900 1535.0000 1.0000
23.4000 1553.0000 1.0000
23.4100 1557.0000 1.0000
23.4200 1565.0000 1.0000
23.4300 1528.0000 1.0000
23.4400 1535.0000 1.0000
23.4500 1521.0000 1.0000
23.4600 1525.0000 1.0000
23.4700 1539.0000 1.0000
23.4800 1531.0000 1.0000
23.4900 1584.0000 1.0000
23.5000 1567.0000 1.0000
23.5100 1536.0000 1.0000
23.5200 1504.0000 1.0000
23.5300 1533.0000 1.0000
23.5400 1470.0000 1.0000
23.5500 1494.0000 1.0000
23.5600 1548.0000 1.0000
23.5700 1500.0000 1.0000
23.5800 1507.0000 1.0000
23.5900 1542.0000 1.0000
23.6000 1575.0000 1.0000
23.6100 1606.0000 1.0000
23.6200 1478.0000 1.0000
23.6300 1543.0000 1.0000
23.6400 1481.0000 1.0000
23.6500 1555.0000 1.0000
23.6600 1528.0000 1.0000
23.6700 1498.0000 1.0000
23.6800 1496.0000 1.0000
23.6900 1534.0000 1.0000
23.7000 1483.0000 1.0000
23.7100 1505.0000 1.0000
23.7200 1543.0000 1.0000
23.7300 1476.0000 1.0000
23.7400 1494.0000 1.0000
23.7500 1482.0000 1.0000
23.7600 1535.0000 1.0000
23.7700 1521.0000 1.0000
23.7800 1506.0000 1.0000
23.7900 1524.0000 1.0000
23.8000 1525.0000 1.0000
23.8100 1464.0000 1.0000
23.8200 1488.0000 1.0000
23.8300 1517.0000 1.0000
23.8400 1483.0000 1.0000
23.8500 1468.0000 1.0000
23.8600 1509.0000 1.0000
23.8700 1483.0000 1.0000
23.8800 1480.0000 1.0000
23.8900 1486.0000 1.0000
23.9000 1511.0000 1.0000
23.9100 1519.0000 1.0000
23.9200 1566.0000 1.0000
23.9300 1508.0000 1.0000
23.9400 1499.0000 1.0000
23.9500 1499.0000 1.0000
23.9600 1466.0000 1.0000
23.9700 1531.0000 1.0000
23.9800 1491.0000 1.0000
23.9900 1503.0000 1.0000
24.0000 1534.0000 1.0000
24.0100 1551.0000 1.0000
24.0200 1545.0000 1.0000
24.0300 1504.0000 1.0000
24.0400 1528.0000 1.0000
24.0500 1521.0000 1.0000
24.0600 1519.0000 1.0000
24.0700 1434.0000 1.0000
24.0800 1477.0000 1.0000
24.0900 1439.0000 1.0000
24.1000 1549.0000 1.0000
24.1100 1524.0000 1.0000
24.1200 1564.0000 1.0000
24.1300 1518.0000 1.0000
24.1400 1520.0000 1.0000
24.1500 1523.0000 1.0000
24.1600 1504.0000 1.0000
24.1700 1608.0000 1.0000
24.1800 1495.0000 1.0000
24.1900 1494.0000 1.0000
24.2000 1426.0000 1.0000
24.2100 1507.0000 1.0000
24.2200 1513.0000 1.0000
24.2300 1553.0000 1.0000
24.2400 1536.0000 1.0000
24.2500 1530.0000 1.0000
24.2600 1523.0000 1.0000
24.2700 1489.0000 1.0000
24.2800 1488.0000 1.0000
24.2900 1478.0000 1.0000
24.3000 1504.0000 1.0000
24.3100 1573.0000 1.0000
24.3200 1492.0000 1.0000
24.3300 1542.0000 1.0000
24.3400 1501.0000 1.0000
24.3500 1532.0000 1.0000
24.3600 1524.0000 1.0000
24.3700 1526.0000 1.0000
24.3800 1553.0000 1.0000
24.3900 1487.0000 1.0000
24.4000 1579.0000 1.0000
24.4100 1584.0000 1.0000
24.4200 1544.0000 1.0000
24.4300 1535.0000 1.0000
24.4400 1513.0000 1.0000
24.4500 1496.0000 1.0000
24.4600 1502.0000 1.0000
24.4700 1551.0000 1.0000
24.4800 1514.0000 1.0000
24.4900 1524.0000 1.0000
24.5000 1533.0000 1.0000
24.5100 1530.0000 1.0000
24.5200 1560.0000 1.0000
24.5300 1612.0000 1.0000
24.5400 1549.0000 1.0000
24.5500 1510.0000 1.0000
24.5600 1474.0000 1.0000
24.5700 1553.0000 1.0000
24.5800 1571.0000 1.0000
24.5900 1581.0000 1.0000
24.6000 1560.0000 1.0000
24.6100 1556.0000 1.0000
24.6200 1500.0000 1.0000
24.6300 1562.0000 1.0000
24.6400 1609.0000 1.0000
24.6500 1585.0000 1.0000
24.6600 1594.0000 1.0000
24.6700 1581.0000 1.0000
24.6800 1556.0000 1.0000
24.6900 1568.0000 1.0000
24.7000 1577.0000 1.0000
24.7100 1522.0000 1.0000
24.7200 1520.0000 1.0000
24.7300 1533.0000 1.0000
24.7400 1608.0000 1.0000
24.7500 1591.0000 1.0000
24.7600 1647.0000 1.0000
24.7700 1546.0000 1.0000
24.7800 1566.0000 1.0000
24.7900 1578.0000 1.0000
24.8000 1590.0000 1.0000
24.8100 1573.0000 1.0000
24.8200 1630.0000 1.0000
24.8300 1627.0000 1.0000
24.8400 1579.0000 1.0000
24.8500 1595.0000 1.0000
24.8600 1615.0000 1.0000
24.8700 1577.0000 1.0000
24.8800 1648.0000 1.0000
24.8900 1602.0000 1.0000
24.9000 1595.0000 1.0000
24.9100 1672.0000 1.0000
24.9200 1618.0000 1.0000
24.9300 1699.0000 1.0000
24.9400 1621.0000 1.0000
24.9500 1590.0000 1.0000
24.9600 1643.0000 1.0000
24.9700 1674.0000 1.0000
24.9800 1698.0000 1.0000
24.9900 1667.0000 1.0000
25.0000 1593.0000 1.0000
25.0100 1549.0000 1.0000
25.0200 1582.0000 1.0000
25.0300 1518.0000 1.0000
25.0400 1564.0000 1.0000
25.0500 1579.0000 1.0000
25.0600 1580.0000 1.0000
25.0700 1607.0000 1.0000
25.0800 1617.0000 1.0000
25.0900 1655.0000 1.0000
25.1000 1592.0000 1.0000
25.1100 1573.0000 1.0000
25.1200 1609.0000 1.0000
25.1300 1596.0000 1.0000
25.1400 1555.0000 1.0000
25.1500 1601.0000 1.0000
25.1600 1570.0000 1.0000
25.1700 1558.0000 1.0000
25.1800 1651.0000 1.0000
25.1900 1581.0000 1.0000
25.2000 1608.0000 1.0000
25.2100 1586.0000 1.0000
25.2200 1632.0000 1.0000
25.2300 1549.0000 1.0000
25.2400 1600.0000 1.0000
25.2500 1557.0000 1.0000
25.2600 1537.0000 1.0000
25.2700 1555.0000 1.0000
25.2800 1597.0000 1.0000
25.2900 1583.0000 1.0000
25.3000 1534.0000 1.0000
25.3100 1569.0000 1.0000
25.3200 1609.0000 1.0000
25.3300 1583.0000 1.0000
25.3400 1584.0000 1.0000
25.3500 1575.0000 1.0000
25.3600 1577.0000 1.0000
25.3700 1576.0000 1.0000
25.3800 1622.0000 1.0000
25.3900 1564.0000 1.0000
25.4000 1510.0000 1.0000
25.4100 1631.0000 1.0000
25.4200 1588.0000 1.0000
25.4300 1614.0000 1.0000
25.4400 1595.0000 1.0000
25.4500 1566.0000 1.0000
25.4600 1556.0000 1.0000
25.4700 1608.0000 1.0000
25.4800 1499.0000 1.0000
25.4900 1581.0000 1.0000
25.5000 1559.0000 1.0000
25.5100 1552.0000 1.0000
25.5200 1581.0000 1.0000
25.5300 1628.0000 1.0000
25.5400 1573.0000 1.0000
25.5500 1598.0000 1.0000
25.5600 1559.0000 1.0000
25.5700 1631.0000 1.0000
25.5800 1557.0000 1.0000
25.5900 1533.0000 1.0000
25.6000 1623.0000 1.0000
25.6100 1536.0000 1.0000
25.6200 1559.0000 1.0000
25.6300 1477.0000 1.0000
25.6400 1561.0000 1.0000
25.6500 1575.0000 1.0000
25.6600 1596.0000 1.0000
25.6700 1602.0000 1.0000
25.6800 1594.0000 1.0000
25.6900 1573.0000 1.0000
25.7000 1592.0000 1.0000
25.7100 1596.0000 1.0000
25.7200 1607.0000 1.0000
25.7300 1621.0000 1.0000
25.7400 1596.0000 1.0000
25.7500 1595.0000 1.0000
25.7600 1662.0000 1.0000
25.7700 1510.0000 1.0000
25.7800 1509.0000 1.0000
25.7900 1580.0000 1.0000
25.8000 1577.0000 1.0000
25.8100 1572.0000 1.0000
25.8200 1510.0000 1.0000
25.8300 1536.0000 1.0000
25.8400 1547.0000 1.0000
25.8500 1579.0000 1.0000
25.8600 1551.0000 1.0000
25.8700 1557.0000 1.0000
25.8800 1560.0000 1.0000
25.8900 1594.0000 1.0000
25.9000 1575.0000 1.0000
25.9100 1601.0000 1.0000
25.9200 1540.0000 1.0000
25.9300 1585.0000 1.0000
25.9400 1542.0000 1.0000
25.9500 1544.0000 1.0000
25.9600 1629.0000 1.0000
25.9700 1583.0000 1.0000
25.9800 1567.0000 1.0000
25.9900 1647.0000 1.0000
26.0000 1611.0000 1.0000
26.0100 1601.0000 1.0000
26.0200 1586.0000 1.0000
26.0300 1503.0000 1.0000
26.0400 1537.0000 1.0000
26.0500 1579.0000 1.0000
26.0600 1576.0000 1.0000
26.0700 1565.0000 1.0000
26.0800 1663.0000 1.0000
26.0900 1558.0000 1.0000
26.1000 1557.0000 1.0000
26.1100 1590.0000 1.0000
26.1200 1549.0000 1.0000
26.1300 1515.0000 1.0000
26.1400 1567.0000 1.0000
26.1500 1583.0000 1.0000
26.1600 1542.0000 1.0000
26.1700 1574.0000 1.0000
26.1800 1580.0000 1.0000
26.1900 1612.0000 1.0000
26.2000 1597.0000 1.0000
26.2100 1544.0000 1.0000
26.2200 1594.0000 1.0000
26.2300 1517.0000 1.0000
26.2400 1589.0000 1.0000
26.2500 1570.0000 1.0000
26.2600 1594.0000 1.0000
26.2700 1605.0000 1.0000
26.2800 1642.0000 1.0000
26.2900 1621.0000 1.0000
26.3000 1626.0000 1.0000
26.3100 1604.0000 1.0000
26.3200 1597.0000 1.0000
26.3300 1591.0000 1.0000
26.3400 1629.0000 1.0000
26.3500 1601.0000 1.0000
26.3600 1624.0000 1.0000
26.3700 1597.0000 1.0000
26.3800 1652.0000 1.0000
26.3900 1652.0000 1.0000
26.4000 1654.0000 1.0000
26.4100 1594.0000 1.0000
26.4200 1648.0000 1.0000
26.4300 1622.0000 1.0000
26.4400 1607.0000 1.0000
26.4500 1581.0000 1.0000
26.4600 1689.0000 1.0000
26.4700 1645.0000 1.0000
26.4800 1635.0000 1.0000
26.4900 1649.0000 1.0000
26.5000 1686.0000 1.0000
26.5100 1692.0000 1.0000
26.5200 1613.0000 1.0000
26.5300 1635.0000 1.0000
26.5400 1626.0000 1.0000
26.5500 1672.0000 1.0000
26.5600 1602.0000 1.0000
26.5700 1623.0000 1.0000
26.5800 1654.0000 1.0000
26.5900 1634.0000 1.0000
26.6000 1621.0000 1.0000
26.6100 1701.0000 1.0000
26.6200 1716.0000 1.0000
26.6300 1693.0000 1.0000
26.6400 1719.0000 1.0000
26.6500 1685.0000 1.0000
26.6600 1670.0000 1.0000
26.6700 1671.0000 1.0000
26.6800 1675.0000 1.0000
26.6900 1614.0000 1.0000
26.7000 1656.0000 1.0000
26.7100 1730.0000 1.0000
26.7200 1686.0000 1.0000
26.7300 1690.0000 1.0000
26.7400 1661.0000 1.0000
26.7500 1717.0000 1.0000
26.7600 1731.0000 1.0000
26.7700 1745.0000 1.0000
26.7800 1665.0000 1.0000
26.7900 1771.0000 1.0000
26.8000 1763.0000 1.0000
26.8100 1768.0000 1.0000
26.8200 1767.0000 1.0000
26.8300 1827.0000 1.0000
26.8400 1883.0000 1.0000
26.8500 1868.0000 1.0000
26.8600 1737.0000 1.0000
26.8700 1838.0000 1.0000
26.8800 1829.0000 1.0000
26.8900 1878.0000 1.0000
26.9000 1868.0000 1.0000
26.9100 1824.0000 1.0000
26.9200 1903.0000 1.0000
26.9300 1879.0000 1.0000
26.9400 1925.0000 1.0000
26.9500 1955.0000 1.0000
26.9600 1977.0000 1.0000
26.9700 1996.0000 1.0000
26.9800 2111.0000 1.0000
26.9900 2095.0000 1.0000
27.0000 2119.0000 1.0000
27.0100 2204.0000 1.0000
27.0200 2122.0000 1.0000
27.0300 2223.0000 1.0000
27.0400 2342.0000 1.0000
27.0500 2410.0000 1.0000
27.0600 2406.0000 1.0000
27.0700 2546.0000 1.0000
27.0800 2625.0000 1.0000
27.0900 2658.0000 1.0000
27.1000 2719.0000 1.0000
27.1100 2819.0000 1.0000
27.1200 2950.0000 1.0000
27.1300 3114.0000 1.0000
27.1400 3165.0000 1.0000
27.1500 3328.0000 1.0000
27.1600 3424.0000 1.0000
27.1700 3623.0000 1.0000
27.1800 3850.0000 1.0000
27.1900 4040.0000 1.0000
27.2000 4261.0000 1.0000
27.2100 4543.0000 1.0000
27.2200 4652.0000 1.0000
27.2300 4947.0000 1.0000
27.2400 5298.0000 1.0000
27.2500 5451.0000 1.0000
27.2600 5733.0000 1.0000
27.2700 5952.0000 1.0000
27.2800 6008.0000 1.0000
27.2900 6096.0000 1.0000
27.3000 6070.0000 1.0000
27.3100 6069.0000 1.0000
27.3200 6045.0000 1.0000
27.3300 6011.0000 1.0000
27.3400 5876.0000 1.0000
27.3500 5641.0000 1.0000
27.3600 5565.0000 1.0000
27.3700 5332.0000 1.0000
27.3800 5037.0000 1.0000
27.3900 4718.0000 1.0000
27.4000 4577.0000 1.0000
27.4100 4391.0000 1.0000
27.4200 4159.0000 1.0000
27.4300 3859.0000 1.0000
27.4400 3608.0000 1.0000
27.4500 3452.0000 1.0000
27.4600 3255.0000 1.0000
27.4700 3312.0000 1.0000
27.4800 3012.0000 1.0000
27.4900 2955.0000 1.0000
27.5000 2831.0000 1.0000
27.5100 2712.0000 1.0000
27.5200 2590.0000 1.0000
27.5300 2625.0000 1.0000
27.5400 2534.0000 1.0000
27.5500 2365.0000 1.0000
27.5600 2342.0000 1.0000
27.5700 2318.0000 1.0000
27.5800 2176.0000 1.0000
27.5900 2235.0000 1.0000
27.6000 2061.0000 1.0000
27.6100 2073.0000 1.0000
27.6200 2052.0000 1.0000
27.6300 2048.0000 1.0000
27.6400 2056.0000 1.0000
27.6500 1977.0000 1.0000
27.6600 1924.0000 1.0000
27.6700 1959.0000 1.0000
27.6800 1956.0000 1.0000
27.6900 1893.0000 1.0000
27.7000 1890.0000 1.0000
27.7100 1892.0000 1.0000
27.7200 1877.0000 1.0000
27.7300 1778.0000 1.0000
27.7400 1786.0000 1.0000
27.7500 1803.0000 1.0000
27.7600 1691.0000 1.0000
27.7700 1755.0000 1.0000
27.7800 1744.0000 1.0000
27.7900 1727.0000 1.0000
27.8000 1689.0000 1.0000
27.8100 1773.0000 1.0000
27.8200 1766.0000 1.0000
27.8300 1768.0000 1.0000
27.8400 1681.0000 1.0000
27.8500 1669.0000 1.0000
27.8600 1685.0000 1.0000
27.8700 1731.0000 1.0000
27.8800 1698.0000 1.0000
27.8900 1692.0000 1.0000
27.9000 1689.0000 1.0000
27.9100 1669.0000 1.0000
27.9200 1639.0000 1.0000
27.9300 1651.0000 1.0000
27.9400 1641.0000 1.0000
27.9500 1633.0000 1.0000
27.9600 1674.0000 1.0000
27.9700 1659.0000 1.0000
27.9800 1613.0000 1.0000
27.9900 1656.0000 1.0000
28.0000 1634.0000 1.0000
28.0100 1610.0000 1.0000
28.0200 1594.0000 1.0000
28.0300 1706.0000 1.0000
28.0400 1621.0000 1.0000
28.0500 1638.0000 1.0000
28.0600 1563.0000 1.0000
28.0700 1607.0000 1.0000
28.0800 1599.0000 1.0000
28.0900 1624.0000 1.0000
28.1000 1584.0000 1.0000
28.1100 1588.0000 1.0000
28.1200 1569.0000 1.0000
28.1300 1547.0000 1.0000
28.1400 1530.0000 1.0000
28.1500 1549.0000 1.0000
28.1600 1568.0000 1.0000
28.1700 1595.0000 1.0000
28.1800 1644.0000 1.0000
28.1900 1592.0000 1.0000
28.2000 1551.0000 1.0000
28.2100 1542.0000 1.0000
28.2200 1591.0000 1.0000
28.2300 1524.0000 1.0000
28.2400 1575.0000 1.0000
28.2500 1499.0000 1.0000
28.2600 1529.0000 1.0000
28.2700 1533.0000 1.0000
28.2800 1530.0000 1.0000
28.2900 1577.0000 1.0000
28.3000 1559.0000 1.0000
28.3100 1567.0000 1.0000
28.3200 1510.0000 1.0000
28.3300 1495.0000 1.0000
28.3400 1500.0000 1.0000
28.3500 1520.0000 1.0000
28.3600 1514.0000 1.0000
28.3700 1572.0000 1.0000
28.3800 1560.0000 1.0000
28.3900 1549.0000 1.0000
28.4000 1506.0000 1.0000
28.4100 1536.0000 1.0000
28.4200 1547.0000 1.0000
28.4300 1486.0000 1.0000
28.4400 1549.0000 1.0000
28.4500 1482.0000 1.0000
28.4600 1504.0000 1.0000
28.4700 1494.0000 1.0000
28.4800 1487.0000 1.0000
28.4900 1495.0000 1.0000
28.5000 1528.0000 1.0000
28.5100 1536.0000 1.0000
28.5200 1532.0000 1.0000
28.5300 1495.0000 1.0000
28.5400 1570.0000 1.0000
28.5500 1587.0000 1.0000
28.5600 1577.0000 1.0000
28.5700 1546.0000 1.0000
28.5800 1452.0000 1.0000
28.5900 1470.0000 1.0000
28.6000 1438.0000 1.0000
28.6100 1477.0000 1.0000
28.6200 1511.0000 1.0000
28.6300 1431.0000 1.0000
28.6400 1462.0000 1.0000
28.6500 1520.0000 1.0000
28.6600 1515.0000 1.0000
28.6700 1514.0000 1.0000
28.6800 1488.0000 1.0000
28.6900 1569.0000 1.0000
28.7000 1535.0000 1.0000
28.7100 1523.0000 1.0000
28.7200 1456.0000 1.0000
28.7300 1489.0000 1.0000
28.7400 1527.0000 1.0000
28.7500 1444.0000 1.0000
28.7600 1519.0000 1.0000
28.7700 1482.0000 1.0000
28.7800 1509.0000 1.0000
28.7900 1539.0000 1.0000
28.8000 1475.0000 1.0000
28.8100 1432.0000 1.0000
28.8200 1497.0000 1.0000
28.8300 1454.0000 1.0000
28.8400 1455.0000 1.0000
28.8500 1499.0000 1.0000
28.8600 1522.0000 1.0000
28.8700 1493.0000 1.0000
28.8800 1533.0000 1.0000
28.8900 1461.0000 1.0000
28.9000 1518.0000 1.0000
28.9100 1495.0000 1.0000
28.9200 1485.0000 1.0000
28.9300 1461.0000 1.0000
28.9400 1439.0000 1.0000
28.9500 1526.0000 1.0000
28.9600 1501.0000 1.0000
28.9700 1542.0000 1.0000
28.9800 1515.0000 1.0000
28.9900 1478.0000 1.0000
29.0000 1413.0000 1.0000
29.0100 1498.0000 1.0000
29.0200 1498.0000 1.0000
29.0300 1491.0000 1.0000
29.0400 1480.0000 1.0000
29.0500 1520.0000 1.0000
29.0600 1493.0000 1.0000
29.0700 1497.0000 1.0000
29.0800 1520.0000 1.0000
29.0900 1543.0000 1.0000
29.1000 1454.0000 1.0000
29.1100 1521.0000 1.0000
29.1200 1496.0000 1.0000
29.1300 1461.0000 1.0000
29.1400 1552.0000 1.0000
29.1500 1520.0000 1.0000
29.1600 1565.0000 1.0000
29.1700 1534.0000 1.0000
29.1800 1534.0000 1.0000
29.1900 1494.0000 1.0000
29.2000 1500.0000 1.0000
29.2100 1492.0000 1.0000
29.2200 1541.0000 1.0000
29.2300 1501.0000 1.0000
29.2400 1456.0000 1.0000
29.2500 1534.0000 1.0000
29.2600 1443.0000 1.0000
29.2700 1396.0000 1.0000
29.2800 1420.0000 1.0000
29.2900 1460.0000 1.0000
29.3000 1440.0000 1.0000
29.3100 1459.0000 1.0000
29.3200 1440.0000 1.0000
29.3300 1519.0000 1.0000
29.3400 1456.0000 1.0000
29.3500 1500.0000 1.0000
29.3600 1510.0000 1.0000
29.3700 1455.0000 1.0000
29.3800 1449.0000 1.0000
29.3900 1519.0000 1.0000
29.4000 1472.0000 1.0000
29.4100 1458.0000 1.0000
29.4200 1477.0000 1.0000
29.4300 1462.0000 1.0000
29.4400 1400.0000 1.0000
29.4500 1348.0000 1.0000
29.4600 1472.0000 1.0000
29.4700 1482.0000 1.0000
29.4800 1527.0000 1.0000
29.4900 1439.0000 1.0000
29.5000 1484.0000 1.0000
29.5100 1443.0000 1.0000
29.5200 1413.0000 1.0000
29.5300 1481.0000 1.0000
29.5400 1427.0000 1.0000
29.5500 1427.0000 1.0000
29.5600 1430.0000 1.0000
29.5700 1446.0000 1.0000
29.5800 1443.0000 1.0000
29.5900 1445.0000 1.0000
29.6000 1411.0000 1.0000
29.6100 1434.0000 1.0000
29.6200 1458.0000 1.0000
29.6300 1451.0000 1.0000
29.6400 1453.0000 1.0000
29.6500 1413.0000 1.0000
29.6600 1432.0000 1.0000
29.6700 1418.0000 1.0000
29.6800 1366.0000 1.0000
29.6900 1484.0000 1.0000
29.7000 1459.0000 1.0000
29.7100 1433.0000 1.0000
29.7200 1460.0000 1.0000
29.7300 1464.0000 1.0000
29.7400 1391.0000 1.0000
29.7500 1403.0000 1.0000
29.7600 1416.0000 1.0000
29.7700 1465.0000 1.0000
29.7800 1460.0000 1.0000
29.7900 1451.0000 1.0000
29.8000 1389.0000 1.0000
29.8100 1461.0000 1.0000
29.8200 1429.0000 1.0000
29.8300 1415.0000 1.0000
29.8400 1409.0000 1.0000
29.8500 1439.0000 1.0000
29.8600 1435.0000 1.0000
29.8700 1431.0000 1.0000
29.8800 1460.0000 1.0000
29.8900 1466.0000 1.0000
29.9000 1436.0000 1.0000
29.9100 1430.0000 1.0000
29.9200 1420.0000 1.0000
29.9300 1395.0000 1.0000
29.9400 1434.0000 1.0000
29.9500 1430.0000 1.0000
29.9600 1439.0000 1.0000
29.9700 1419.0000 1.0000
29.9800 1441.0000 1.0000
29.9900 1422.0000 1.0000
30.0000 1433.0000 1.0000
30.0100 1438.0000 1.0000
30.0200 1397.0000 1.0000
30.0300 1399.0000 1.0000
30.0400 1416.0000 1.0000
30.0500 1376.0000 1.0000
30.0600 1375.0000 1.0000
30.0700 1456.0000 1.0000
30.0800 1464.0000 1.0000
30.0900 1458.0000 1.0000
30.1000 1426.0000 1.0000
30.1100 1439.0000 1.0000
30.1200 1442.0000 1.0000
30.1300 1387.0000 1.0000
30.1400 1368.0000 1.0000
30.1500 1398.0000 1.0000
30.1600 1393.0000 1.0000
30.1700 1455.0000 1.0000
30.1800 1405.0000 1.0000
30.1900 1397.0000 1.0000
30.2000 1391.0000 1.0000
30.2100 1431.0000 1.0000
30.2200 1366.0000 1.0000
30.2300 1452.0000 1.0000
30.2400 1447.0000 1.0000
30.2500 1418.0000 1.0000
30.2600 1400.0000 1.0000
30.2700 1435.0000 1.0000
30.2800 1417.0000 1.0000
30.2900 1360.0000 1.0000
30.3000 1418.0000 1.0000
30.3100 1407.0000 1.0000
30.3200 1347.0000 1.0000
30.3300 1374.0000 1.0000
30.3400 1356.0000 1.0000
30.3500 1364.0000 1.0000
30.3600 1354.0000 1.0000
30.3700 1412.0000 1.0000
30.3800 1405.0000 1.0000
30.3900 1393.0000 1.0000
30.4000 1400.0000 1.0000
30.4100 1409.0000 1.0000
30.4200 1398.0000 1.0000
30.4300 1420.0000 1.0000
30.4400 1453.0000 1.0000
30.4500 1410.0000 1.0000
30.4600 1426.0000 1.0000
30.4700 1397.0000 1.0000
30.4800 1416.0000 1.0000
30.4900 1409.0000 1.0000
30.5000 1419.0000 1.0000
30.5100 1424.0000 1.0000
30.5200 1392.0000 1.0000
30.5300 1392.0000 1.0000
30.5400 1391.0000 1.0000
30.5500 1415.0000 1.0000
30.5600 1356.0000 1.0000
30.5700 1353.0000 1.0000
30.5800 1379.0000 1.0000
30.5900 1359.0000 1.0000
30.6000 1396.0000 1.0000
30.6100 1397.0000 1.0000
30.6200 1396.0000 1.0000
30.6300 1391.0000 1.0000
30.6400 1374.0000 1.0000
30.6500 1420.0000 1.0000
30.6600 1463.0000 1.0000
30.6700 1376.0000 1.0000
30.6800 1366.0000 1.0000
30.6900 1412.0000 1.0000
30.7000 1447.0000 1.0000
30.7100 1404.0000 1.0000
30.7200 1347.0000 1.0000
30.7300 1400.0000 1.0000
30.7400 1444.0000 1.0000
30.7500 1421.0000 1.0000
30.7600 1373.0000 1.0000
30.7700 1398.0000 1.0000
30.7800 1397.0000 1.0000
30.7900 1352.0000 1.0000
30.8000 1370.0000 1.0000
30.8100 1385.0000 1.0000
30.8200 1394.0000 1.0000
30.8300 1417.0000 1.0000
30.8400 1290.0000 1.0000
30.8500 1367.0000 1.0000
30.8600 1405.0000 1.0000
30.8700 1404.0000 1.0000
30.8800 1384.0000 1.0000
30.8900 1413.0000 1.0000
30.9000 1363.0000 1.0000
30.9100 1346.0000 1.0000
30.9200 1319.0000 1.0000
30.9300 1410.0000 1.0000
30.9400 1406.0000 1.0000
30.9500 1370.0000 1.0000
30.9600 1377.0000 1.0000
30.9700 1373.0000 1.0000
30.9800 1410.0000 1.0000
30.9900 1377.0000 1.0000
31.0000 1400.0000 1.0000
31.0100 1390.0000 1.0000
31.0200 1341.0000 1.0000
31.0300 1346.0000 1.0000
31.0400 1399.0000 1.0000
31.0500 1405.0000 1.0000
31.0600 1372.0000 1.0000
31.0700 1369.0000 1.0000
31.0800 1370.0000 1.0000
31.0900 1360.0000 1.0000
31.1000 1336.0000 1.0000
31.1100 1379.0000 1.0000
31.1200 1331.0000 1.0000
31.1300 1394.0000 1.0000
31.1400 1396.0000 1.0000
31.1500 1374.0000 1.0000
31.1600 1361.0000 1.0000
31.1700 1360.0000 1.0000
31.1800 1342.0000 1.0000
31.1900 1347.0000 1.0000
31.2000 1365.0000 1.0000
31.2100 1337.0000 1.0000
31.2200 1329.0000 1.0000
31.2300 1368.0000 1.0000
31.2400 1365.0000 1.0000
31.2500 1381.0000 1.0000
31.2600 1397.0000 1.0000
31.2700 1346.0000 1.0000
31.2800 1343.0000 1.0000
31.2900 1392.0000 1.0000
31.3000 1344.0000 1.0000
31.3100 1316.0000 1.0000
31.3200 1349.0000 1.0000
31.3300 1344.0000 1.0000
31.3400 1339.0000 1.0000
31.3500 1359.0000 1.0000
31.3600 1349.0000 1.0000
31.3700 1344.0000 1.0000
31.3800 1337.0000 1.0000
31.3900 1338.0000 1.0000
31.4000 1333.0000 1.0000
31.4100 1327.0000 1.0000
31.4200 1385.0000 1.0000
31.4300 1382.0000 1.0000
31.4400 1294.0000 1.0000
31.4500 1311.0000 1.0000
31.4600 1328.0000 1.0000
31.4700 1311.0000 1.0000
31.4800 1360.0000 1.0000
31.4900 1338.0000 1.0000
31.5000 1297.0000 1.0000
31.5100 1348.0000 1.0000
31.5200 1387.0000 1.0000
31.5300 1403.0000 1.0000
31.5400 1353.0000 1.0000
31.5500 1357.0000 1.0000
31.5600 1353.0000 1.0000
31.5700 1442.0000 1.0000
31.5800 1312.0000 1.0000
31.5900 1353.0000 1.0000
31.6000 1343.0000 1.0000
31.6100 1318.0000 1.0000
31.6200 1332.0000 1.0000
31.6300 1372.0000 1.0000
31.6400 1315.0000 1.0000
31.6500 1321.0000 1.0000
31.6600 1309.0000 1.0000
31.6700 1305.0000 1.0000
31.6800 1309.0000 1.0000
31.6900 1346.0000 1.0000
31.7000 1309.0000 1.0000
31.7100 1374.0000 1.0000
31.7200 1337.0000 1.0000
31.7300 1363.0000 1.0000
31.7400 1383.0000 1.0000
31.7500 1312.0000 1.0000
31.7600 1333.0000 1.0000
31.7700 1317.0000 1.0000
31.7800 1249.0000 1.0000
31.7900 1357.0000 1.0000
31.8000 1411.0000 1.0000
31.8100 1316.0000 1.0000
31.8200 1311.0000 1.0000
31.8300 1362.0000 1.0000
31.8400 1378.0000 1.0000
31.8500 1325.0000 1.0000
31.8600 1366.0000 1.0000
31.8700 1355.0000 1.0000
31.8800 1363.0000 1.0000
31.8900 1360.0000 1.0000
31.9000 1274.0000 1.0000
31.9100 1342.0000 1.0000
31.9200 1394.0000 1.0000
31.9300 1366.0000 1.0000
31.9400 1347.0000 1.0000
31.9500 1332.0000 1.0000
31.9600 1414.0000 1.0000
31.9700 1387.0000 1.0000
31.9800 1401.0000 1.0000
31.9900 1334.0000 1.0000
32.0000 1353.0000 1.0000
32.0100 1370.0000 1.0000
32.0200 1370.0000 1.0000
32.0300 1326.0000 1.0000
32.0400 1330.0000 1.0000
32.0500 1348.0000 1.0000
32.0600 1394.0000 1.0000
32.0700 1331.0000 1.0000
32.0800 1301.0000 1.0000
32.0900 1337.0000 1.0000
32.1000 1302.0000 1.0000
32.1100 1359.0000 1.0000
32.1200 1336.0000 1.0000
32.1300 1294.0000 1.0000
32.1400 1339.0000 1.0000
32.1500 1344.0000 1.0000
32.1600 1337.0000 1.0000
32.1700 1281.0000 1.0000
32.1800 1348.0000 1.0000
32.1900 1361.0000 1.0000
32.2000 1363.0000 1.0000
32.2100 1308.0000 1.0000
32.2200 1362.0000 1.0000
32.2300 1320.0000 1.0000
32.2400 1295.0000 1.0000
32.2500 1312.0000 1.0000
32.2600 1302.0000 1.0000
32.2700 1261.0000 1.0000
32.2800 1314.0000 1.0000
32.2900 1293.0000 1.0000
32.3000 1324.0000 1.0000
32.3100 1290.0000 1.0000
32.3200 1295.0000 1.0000
32.3300 1303.0000 1.0000
32.3400 1304.0000 1.0000
32.3500 1350.0000 1.0000
32.3600 1309.0000 1.0000
32.3700 1264.0000 1.0000
32.3800 1304.0000 1.0000
32.3900 1323.0000 1.0000
32.4000 1276.0000 1.0000
32.4100 1242.0000 1.0000
32.4200 1275.0000 1.0000
32.4300 1325.0000 1.0000
32.4400 1279.0000 1.0000
32.4500 1337.0000 1.0000
32.4600 1308.0000 1.0000
32.4700 1264.0000 1.0000
32.4800 1348.0000 1.0000
32.4900 1275.0000 1.0000
32.5000 1246.0000 1.0000
32.5100 1324.0000 1.0000
32.5200 1348.0000 1.0000
32.5300 1288.0000 1.0000
32.5400 1310.0000 1.0000
32.5500 1287.0000 1.0000
32.5600 1273.0000 1.0000
32.5700 1259.0000 1.0000
32.5800 1223.0000 1.0000
32.5900 1199.0000 1.0000
32.6000 1289.0000 1.0000
32.6100 1230.0000 1.0000
32.6200 1308.0000 1.0000
32.6300 1320.0000 1.0000
32.6400 1290.0000 1.0000
32.6500 1262.0000 1.0000
32.6600 1329.0000 1.0000
32.6700 1301.0000 1.0000
32.6800 1240.0000 1.0000
32.6900 1253.0000 1.0000
32.7000 1212.0000 1.0000
32.7100 1252.0000 1.0000
32.7200 1244.0000 1.0000
32.7300 1232.0000 1.0000
32.7400 1337.0000 1.0000
32.7500 1291.0000 1.0000
32.7600 1256.0000 1.0000
32.7700 1297.0000 1.0000
32.7800 1195.0000 1.0000
32.7900 1314.0000 1.0000
32.8000 1302.0000 1.0000
32.8100 1257.0000 1.0000
32.8200 1294.0000 1.0000
32.8300 1256.0000 1.0000
32.8400 1295.0000 1.0000
32.8500 1259.0000 1.0000
32.8600 1299.0000 1.0000
32.8700 1249.0000 1.0000
32.8800 1256.0000 1.0000
32.8900 1279.0000 1.0000
32.9000 1264.0000 1.0000
32.9100 1282.0000 1.0000
32.9200 1247.0000 1.0000
32.9300 1305.0000 1.0000
32.9400 1243.0000 1.0000
32.9500 1235.0000 1.0000
32.9600 1296.0000 1.0000
32.9700 1185.0000 1.0000
32.9800 1230.0000 1.0000
32.9900 1261.0000 1.0000
33.0000 1263.0000 1.0000
33.0100 1260.0000 1.0000
33.0200 1249.0000 1.0000
33.0300 1254.0000 1.0000
33.0400 1237.0000 1.0000
33.0500 1213.0000 1.0000
33.0600 1288.0000 1.0000
33.0700 1289.0000 1.0000
33.0800 1277.0000 1.0000
33.0900 1286.0000 1.0000
33.1000 1269.0000 1.0000
33.1100 1242.0000 1.0000
33.1200 1221.0000 1.0000
33.1300 1237.0000 1.0000
33.1400 1227.0000 1.0000
33.1500 1165.0000 1.0000
33.1600 1268.0000 1.0000
33.1700 1267.0000 1.0000
33.1800 1287.0000 1.0000
33.1900 1292.0000 1.0000
33.2000 1247.0000 1.0000
33.2100 1187.0000 1.0000
33.2200 1268.0000 1.0000
33.2300 1279.0000 1.0000
33.2400 1215.0000 1.0000
33.2500 1203.0000 1.0000
33.2600 1256.0000 1.0000
33.2700 1278.0000 1.0000
33.2800 1250.0000 1.0000
33.2900 1225.0000 1.0000
33.3000 1248.0000 1.0000
33.3100 1208.0000 1.0000
33.3200 1270.0000 1.0000
33.3300 1256.0000 1.0000
33.3400 1213.0000 1.0000
33.3500 1238.0000 1.0000
33.3600 1232.0000 1.0000
33.3700 1288.0000 1.0000
33.3800 1300.0000 1.0000
33.3900 1247.0000 1.0000
33.4000 1200.0000 1.0000
33.4100 1275.0000 1.0000
33.4200 1329.0000 1.0000
33.4300 1285.0000 1.0000
33.4400 1276.0000 1.0000
33.4500 1276.0000 1.0000
33.4600 1306.0000 1.0000
33.4700 1264.0000 1.0000
33.4800 1239.0000 1.0000
33.4900 1295.0000 1.0000
33.5000 1273.0000 1.0000
33.5100 1233.0000 1.0000
33.5200 1240.0000 1.0000
33.5300 1268.0000 1.0000
33.5400 1187.0000 1.0000
33.5500 1290.0000 1.0000
33.5600 1220.0000 1.0000
33.5700 1173.0000 1.0000
33.5800 1219.0000 1.0000
33.5900 1241.0000 1.0000
33.6000 1250.0000 1.0000
33.6100 1215.0000 1.0000
33.6200 1241.0000 1.0000
33.6300 1266.0000 1.0000
33.6400 1313.0000 1.0000
33.6500 1308.0000 1.0000
33.6600 1295.0000 1.0000
33.6700 1262.0000 1.0000
33.6800 1247.0000 1.0000
33.6900 1238.0000 1.0000
33.7000 1247.0000 1.0000
33.7100 1207.0000 1.0000
33.7200 1344.0000 1.0000
33.7300 1285.0000 1.0000
33.7400 1309.0000 1.0000
33.7500 1261.0000 1.0000
33.7600 1258.0000 1.0000
33.7700 1354.0000 1.0000
33.7800 1298.0000 1.0000
33.7900 1319.0000 1.0000
33.8000 1353.0000 1.0000
33.8100 1395.0000 1.0000
33.8200 1323.0000 1.0000
33.8300 1340.0000 1.0000
33.8400 1320.0000 1.0000
33.8500 1389.0000 1.0000
33.8600 1345.0000 1.0000
33.8700 1393.0000 1.0000
33.8800 1376.0000 1.0000
33.8900 1442.0000 1.0000
33.9000 1444.0000 1.0000
33.9100 1444.0000 1.0000
33.9200 1473.0000 1.0000
33.9300 1436.0000 1.0000
33.9400 1438.0000 1.0000
33.9500 1378.0000 1.0000
33.9600 1466.0000 1.0000
33.9700 1430.0000 1.0000
33.9800 1454.0000 1.0000
33.9900 1402.0000 1.0000
34.0000 1427.0000 1.0000
34.0100 1422.0000 1.0000
34.0200 1445.0000 1.0000
34.0300 1450.0000 1.0000
34.0400 1519.0000 1.0000
34.0500 1482.0000 1.0000
34.0600 1403.0000 1.0000
34.0700 1391.0000 1.0000
34.0800 1413.0000 1.0000
34.0900 1359.0000 1.0000
34.1000 1456.0000 1.0000
34.1100 1382.0000 1.0000
34.1200 1368.0000 1.0000
34.1300 1406.0000 1.0000
34.1400 1451.0000 1.0000
34.1500 1462.0000 1.0000
34.1600 1494.0000 1.0000
34.1700 1474.0000 1.0000
34.1800 1503.0000 1.0000
34.1900 1459.0000 1.0000
34.2000 1491.0000 1.0000
34.2100 1472.0000 1.0000
34.2200 1554.0000 1.0000
34.2300 1520.0000 1.0000
34.2400 1613.0000 1.0000
34.2500 1551.0000 1.0000
34.2600 1578.0000 1.0000
34.2700 1620.0000 1.0000
34.2800 1614.0000 1.0000
34.2900 1701.0000 1.0000
34.3000 1720.0000 1.0000
34.3100 1753.0000 1.0000
34.3200 1794.0000 1.0000
34.3300 1873.0000 1.0000
34.3400 1934.0000 1.0000
34.3500 1920.0000 1.0000
34.3600 1982.0000 1.0000
34.3700 2114.0000 1.0000
34.3800 2216.0000 1.0000
34.3900 2279.0000 1.0000
34.4000 2423.0000 1.0000
34.4100 2534.0000 1.0000
34.4200 2565.0000 1.0000
34.4300 2714.0000 1.0000
34.4400 2934.0000 1.0000
34.4500 2942.0000 1.0000
34.4600 3118.0000 1.0000
34.4700 3013.0000 1.0000
34.4800 3205.0000 1.0000
34.4900 3272.0000 1.0000
34.5000 3251.0000 1.0000
34.5100 3190.0000 1.0000
34.5200 3244.0000 1.0000
34.5300 3172.0000 1.0000
34.5400 3120.0000 1.0000
34.5500 3065.0000 1.0000
34.5600 2881.0000 1.0000
34.5700 2824.0000 1.0000
34.5800 2742.0000 1.0000
34.5900 2654.0000 1.0000
34.6000 2602.0000 1.0000
34.6100 2457.0000 1.0000
34.6200 2452.0000 1.0000
34.6300 2292.0000 1.0000
34.6400 2193.0000 1.0000
34.6500 2076.0000 1.0000
34.6600 2039.0000 1.0000
34.6700 1853.0000 1.0000
34.6800 1940.0000 1.0000
34.6900 1858.0000 1.0000
34.7000 1805.0000 1.0000
34.7100 1731.0000 1.0000
34.7200 1689.0000 1.0000
34.7300 1659.0000 1.0000
34.7400 1656.0000 1.0000
34.7500 1582.0000 1.0000
34.7600 1545.0000 1.0000
34.7700 1569.0000 1.0000
34.7800 1532.0000 1.0000
34.7900 1582.0000 1.0000
34.8000 1526.0000 1.0000
34.8100 1479.0000 1.0000
34.8200 1431.0000 1.0000
34.8300 1459.0000 1.0000
34.8400 1490.0000 1.0000
34.8500 1437.0000 1.0000
34.8600 1390.0000 1.0000
34.8700 1348.0000 1.0000
34.8800 1277.0000 1.0000
34.8900 1300.0000 1.0000
34.9000 1314.0000 1.0000
34.9100 1361.0000 1.0000
34.9200 1314.0000 1.0000
34.9300 1313.0000 1.0000
34.9400 1293.0000 1.0000
34.9500 1358.0000 1.0000
34.9600 1285.0000 1.0000
34.9700 1270.0000 1.0000
34.9800 1238.0000 1.0000
34.9900 1250.0000 1.0000
35.0000 1211.0000 1.0000
35.0100 1202.0000 1.0000
35.0200 1243.0000 1.0000
35.0300 1261.0000 1.0000
35.0400 1243.0000 1.0000
35.0500 1248.0000 1.0000
35.0600 1180.0000 1.0000
35.0700 1181.0000 1.0000
35.0800 1209.0000 1.0000
35.0900 1203.0000 1.0000
35.1000 1112.0000 1.0000
35.1100 1108.0000 1.0000
35.1200 1177.0000 1.0000
35.1300 1205.0000 1.0000
35.1400 1167.0000 1.0000
35.1500 1191.0000 1.0000
35.1600 1165.0000 1.0000
35.1700 1153.0000 1.0000
35.1800 1136.0000 1.0000
35.1900 1159.0000 1.0000
35.2000 1153.0000 1.0000
35.2100 1139.0000 1.0000
35.2200 1217.0000 1.0000
35.2300 1185.0000 1.0000
35.2400 1173.0000 1.0000
35.2500 1137.0000 1.0000
35.2600 1135.0000 1.0000
35.2700 1137.0000 1.0000
35.2800 1173.0000 1.0000
35.2900 1194.0000 1.0000
35.3000 1151.0000 1.0000
35.3100 1108.0000 1.0000
35.3200 1068.0000 1.0000
35.3300 1079.0000 1.0000
35.3400 1159.0000 1.0000
35.3500 1212.0000 1.0000
35.3600 1131.0000 1.0000
35.3700 1169.0000 1.0000
35.3800 1089.0000 1.0000
35.3900 1068.0000 1.0000
35.4000 1110.0000 1.0000
35.4100 1113.0000 1.0000
35.4200 1125.0000 1.0000
35.4300 1118.0000 1.0000
35.4400 1111.0000 1.0000
35.4500 1088.0000 1.0000
35.4600 1102.0000 1.0000
35.4700 1122.0000 1.0000
35.4800 1114.0000 1.0000
35.4900 1091.0000 1.0000
35.5000 1107.0000 1.0000
35.5100 1098.0000 1.0000
35.5200 1132.0000 1.0000
35.5300 1143.0000 1.0000
35.5400 1135.0000 1.0000
35.5500 1096.0000 1.0000
35.5600 1081.0000 1.0000
35.5700 1125.0000 1.0000
35.5800 1108.0000 1.0000
35.5900 1075.0000 1.0000
35.6000 1138.0000 1.0000
35.6100 1138.0000 1.0000
35.6200 1148.0000 1.0000
35.6300 1086.0000 1.0000
35.6400 1113.0000 1.0000
35.6500 1088.0000 1.0000
35.6600 1135.0000 1.0000
35.6700 1119.0000 1.0000
35.6800 1113.0000 1.0000
35.6900 1105.0000 1.0000
35.7000 1089.0000 1.0000
35.7100 1061.0000 1.0000
35.7200 1029.0000 1.0000
35.7300 1052.0000 1.0000
35.7400 1059.0000 1.0000
35.7500 1110.0000 1.0000
35.7600 1134.0000 1.0000
35.7700 1097.0000 1.0000
35.7800 1050.0000 1.0000
35.7900 1086.0000 1.0000
35.8000 1078.0000 1.0000
35.8100 1062.0000 1.0000
35.8200 1048.0000 1.0000
35.8300 1084.0000 1.0000
35.8400 1072.0000 1.0000
35.8500 1078.0000 1.0000
35.8600 1080.0000 1.0000
35.8700 1094.0000 1.0000
35.8800 1037.0000 1.0000
35.8900 1045.0000 1.0000
35.9000 1052.0000 1.0000
35.9100 1090.0000 1.0000
35.9200 1074.0000 1.0000
35.9300 1122.0000 1.0000
35.9400 1049.0000 1.0000
35.9500 1076.0000 1.0000
35.9600 1130.0000 1.0000
35.9700 1041.0000 1.0000
35.9800 1066.0000 1.0000
35.9900 1049.0000 1.0000
36.0000 1060.0000 1.0000
36.0100 1065.0000 1.0000
36.0200 1060.0000 1.0000
36.0300 1062.0000 1.0000
36.0400 1044.0000 1.0000
36.0500 1057.0000 1.0000
36.0600 1057.0000 1.0000
36.0700 1072.0000 1.0000
36.0800 1110.0000 1.0000
36.0900 1081.0000 1.0000
36.1000 1121.0000 1.0000
36.1100 1123.0000 1.0000
36.1200 1141.0000 1.0000
36.1300 1123.0000 1.0000
36.1400 1071.0000 1.0000
36.1500 1115.0000 1.0000
36.1600 1124.0000 1.0000
36.1700 1119.0000 1.0000
36.1800 1154.0000 1.0000
36.1900 1151.0000 1.0000
36.2000 1193.0000 1.0000
36.2100 1196.0000 1.0000
36.2200 1228.0000 1.0000
36.2300 1179.0000 1.0000
36.2400 1156.0000 1.0000
36.2500 1214.0000 1.0000
36.2600 1307.0000 1.0000
36.2700 1269.0000 1.0000
36.2800 1319.0000 1.0000
36.2900 1323.0000 1.0000
36.3000 1405.0000 1.0000
36.3100 1501.0000 1.0000
36.3200 1440.0000 1.0000
36.3300 1512.0000 1.0000
36.3400 1562.0000 1.0000
36.3500 1611.0000 1.0000
36.3600 1720.0000 1.0000
36.3700 1826.0000 1.0000
36.3800 1871.0000 1.0000
36.3900 1805.0000 1.0000
36.4000 1924.0000 1.0000
36.4100 1917.0000 1.0000
36.4200 2000.0000 1.0000
36.4300 1917.0000 1.0000
36.4400 1753.0000 1.0000
36.4500 1844.0000 1.0000
36.4600 1857.0000 1.0000
36.4700 1733.0000 1.0000
36.4800 1648.0000 1.0000
36.4900 1665.0000 1.0000
36.5000 1700.0000 1.0000
36.5100 1621.0000 1.0000
36.5200 1404.0000 1.0000
36.5300 1468.0000 1.0000
36.5400 1388.0000 1.0000
36.5500 1341.0000 1.0000
36.5600 1344.0000 1.0000
36.5700 1294.0000 1.0000
36.5800 1260.0000 1.0000
36.5900 1215.0000 1.0000
36.6000 1184.0000 1.0000
36.6100 1153.0000 1.0000
36.6200 1123.0000 1.0000
36.6300 1079.0000 1.0000
36.6400 1109.0000 1.0000
36.6500 1083.0000 1.0000
36.6600 1052.0000 1.0000
36.6700 1071.0000 1.0000
36.6800 1058.0000 1.0000
36.6900 1051.0000 1.0000
36.7000 1053.0000 1.0000
36.7100 1063.0000 1.0000
36.7200 1101.0000 1.0000
36.7300 1058.0000 1.0000
36.7400 1052.0000 1.0000
36.7500 1040.0000 1.0000
36.7600 1016.0000 1.0000
36.7700 1029.0000 1.0000
36.7800 1035.0000 1.0000
36.7900 1027.0000 1.0000
36.8000 1101.0000 1.0000
36.8100 1024.0000 1.0000
36.8200 1020.0000 1.0000
36.8300 964.0000 1.0000
36.8400 987.0000 1.0000
36.8500 996.0000 1.0000
36.8600 975.0000 1.0000
36.8700 1012.0000 1.0000
36.8800 1051.0000 1.0000
36.8900 1033.0000 1.0000
36.9000 980.0000 1.0000
36.9100 1008.0000 1.0000
36.9200 1015.0000 1.0000
36.9300 973.0000 1.0000
36.9400 1008.0000 1.0000
36.9500 985.0000 1.0000
36.9600 1030.0000 1.0000
36.9700 995.0000 1.0000
36.9800 949.0000 1.0000
36.9900 1022.0000 1.0000
37.0000 1007.0000 1.0000
37.0100 1029.0000 1.0000
37.0200 977.0000 1.0000
37.0300 1004.0000 1.0000
37.0400 1008.0000 1.0000
37.0500 1019.0000 1.0000
37.0600 1014.0000 1.0000
37.0700 983.0000 1.0000
37.0800 968.0000 1.0000
37.0900 995.0000 1.0000
37.1000 961.0000 1.0000
37.1100 1005.0000 1.0000
37.1200 999.0000 1.0000
37.1300 974.0000 1.0000
37.1400 995.0000 1.0000
37.1500 994.0000 1.0000
37.1600 1014.0000 1.0000
37.1700 989.0000 1.0000
37.1800 1050.0000 1.0000
37.1900 995.0000 1.0000
37.2000 978.0000 1.0000
37.2100 963.0000 1.0000
37.2200 962.0000 1.0000
37.2300 955.0000 1.0000
37.2400 971.0000 1.0000
37.2500 1012.0000 1.0000
37.2600 1007.0000 1.0000
37.2700 991.0000 1.0000
37.2800 1004.0000 1.0000
37.2900 1034.0000 1.0000
37.3000 973.0000 1.0000
37.3100 1030.0000 1.0000
37.3200 947.0000 1.0000
37.3300 963.0000 1.0000
37.3400 1025.0000 1.0000
37.3500 1024.0000 1.0000
37.3600 1041.0000 1.0000
37.3700 963.0000 1.0000
37.3800 1009.0000 1.0000
37.3900 1013.0000 1.0000
37.4000 1010.0000 1.0000
37.4100 979.0000 1.0000
37.4200 944.0000 1.0000
37.4300 1003.0000 1.0000
37.4400 1004.0000 1.0000
37.4500 977.0000 1.0000
37.4600 1002.0000 1.0000
37.4700 963.0000 1.0000
37.4800 1040.0000 1.0000
37.4900 973.0000 1.0000
37.5000 976.0000 1.0000
37.5100 953.0000 1.0000
37.5200 993.0000 1.0000
37.5300 1004.0000 1.0000
37.5400 1022.0000 1.0000
37.5500 1019.0000 1.0000
37.5600 1011.0000 1.0000
37.5700 973.0000 1.0000
37.5800 1027.0000 1.0000
37.5900 979.0000 1.0000
37.6000 998.0000 1.0000
37.6100 999.0000 1.0000
37.6200 1022.0000 1.0000
37.6300 1027.0000 1.0000
37.6400 958.0000 1.0000
37.6500 987.0000 1.0000
37.6600 997.0000 1.0000
37.6700 977.0000 1.0000
37.6800 997.0000 1.0000
37.6900 994.0000 1.0000
37.7000 990.0000 1.0000
37.7100 982.0000 1.0000
37.7200 1010.0000 1.0000
37.7300 989.0000 1.0000
37.7400 1030.0000 1.0000
37.7500 997.0000 1.0000
37.7600 971.0000 1.0000
37.7700 978.0000 1.0000
37.7800 973.0000 1.0000
37.7900 1001.0000 1.0000
37.8000 948.0000 1.0000
37.8100 1042.0000 1.0000
37.8200 1007.0000 1.0000
37.8300 997.0000 1.0000
37.8400 1042.0000 1.0000
37.8500 980.0000 1.0000
37.8600 1054.0000 1.0000
37.8700 1015.0000 1.0000
37.8800 1038.0000 1.0000
37.8900 1012.0000 1.0000
37.9000 1017.0000 1.0000
37.9100 1019.0000 1.0000
37.9200 1029.0000 1.0000
37.9300 1022.0000 1.0000
37.9400 1054.0000 1.0000
37.9500 1045.0000 1.0000
37.9600 1027.0000 1.0000
37.9700 976.0000 1.0000
37.9800 1014.0000 1.0000
37.9900 1102.0000 1.0000
38.0000 1075.0000 1.0000
38.0100 1039.0000 1.0000
38.0200 1022.0000 1.0000
38.0300 1061.0000 1.0000
38.0400 1100.0000 1.0000
38.0500 1089.0000 1.0000
38.0600 1076.0000 1.0000
38.0700 1128.0000 1.0000
38.0800 1095.0000 1.0000
38.0900 1085.0000 1.0000
38.1000 1108.0000 1.0000
38.1100 1112.0000 1.0000
38.1200 1151.0000 1.0000
38.1300 1189.0000 1.0000
38.1400 1226.0000 1.0000
38.1500 1260.0000 1.0000
38.1600 1249.0000 1.0000
38.1700 1280.0000 1.0000
38.1800 1237.0000 1.0000
38.1900 1324.0000 1.0000
38.2000 1409.0000 1.0000
38.2100 1384.0000 1.0000
38.2200 1396.0000 1.0000
38.2300 1505.0000 1.0000
38.2400 1514.0000 1.0000
38.2500 1531.0000 1.0000
38.2600 1552.0000 1.0000
38.2700 1612.0000 1.0000
38.2800 1680.0000 1.0000
38.2900 1756.0000 1.0000
38.3000 1816.0000 1.0000
38.3100 1854.0000 1.0000
38.3200 1942.0000 1.0000
38.3300 2052.0000 1.0000
38.3400 2187.0000 1.0000
38.3500 2229.0000 1.0000
38.3600 2375.0000 1.0000
38.3700 2470.0000 1.0000
38.3800 2699.0000 1.0000
38.3900 2797.0000 1.0000
38.4000 3139.0000 1.0000
38.4100 3312.0000 1.0000
38.4200 3514.0000 1.0000
38.4300 3738.0000 1.0000
38.4400 3993.0000 1.0000
38.4500 4283.0000 1.0000
38.4600 4442.0000 1.0000
38.4700 4821.0000 1.0000
38.4800 5001.0000 1.0000
38.4900 5390.0000 1.0000
38.5000 5658.0000 1.0000
38.5100 5850.0000 1.0000
38.5200 6055.0000 1.0000
38.5300 6007.0000 1.0000
38.5400 6134.0000 1.0000
38.5500 6139.0000 1.0000
38.5600 6125.0000 1.0000
38.5700 5998.0000 1.0000
38.5800 5846.0000 1.0000
38.5900 5741.0000 1.0000
38.6000 5648.0000 1.0000
38.6100 5443.0000 1.0000
38.6200 5123.0000 1.0000
38.6300 4917.0000 1.0000
38.6400 4834.0000 1.0000
38.6500 4496.0000 1.0000
38.6600 4224.0000 1.0000
38.6700 3933.0000 1.0000
38.6800 3638.0000 1.0000
38.6900 3508.0000 1.0000
38.7000 3295.0000 1.0000
38.7100 3154.0000 1.0000
38.7200 2936.0000 1.0000
38.7300 2725.0000 1.0000
38.7400 2549.0000 1.0000
38.7500 2437.0000 1.0000
38.7600 2226.0000 1.0000
38.7700 2118.0000 1.0000
38.7800 1955.0000 1.0000
38.7900 2029.0000 1.0000
38.8000 1846.0000 1.0000
38.8100 1729.0000 1.0000
38.8200 1616.0000 1.0000
38.8300 1563.0000 1.0000
38.8400 1562.0000 1.0000
38.8500 1498.0000 1.0000
38.8600 1381.0000 1.0000
38.8700 1342.0000 1.0000
38.8800 1305.0000 1.0000
38.8900 1336.0000 1.0000
38.9000 1257.0000 1.0000
38.9100 1216.0000 1.0000
38.9200 1234.0000 1.0000
38.9300 1195.0000 1.0000
38.9400 1184.0000 1.0000
38.9500 1127.0000 1.0000
38.9600 1201.0000 1.0000
38.9700 1171.0000 1.0000
38.9800 1071.0000 1.0000
38.9900 1089.0000 1.0000
39.0000 1120.0000 1.0000
39.0100 1061.0000 1.0000
39.0200 1021.0000 1.0000
39.0300 1022.0000 1.0000
39.0400 1037.0000 1.0000
39.0500 1033.0000 1.0000
39.0600 1021.0000 1.0000
39.0700 1014.0000 1.0000
39.0800 966.0000 1.0000
39.0900 1004.0000 1.0000
39.1000 965.0000 1.0000
39.1100 981.0000 1.0000
39.1200 924.0000 1.0000
39.1300 980.0000 1.0000
39.1400 972.0000 1.0000
39.1500 923.0000 1.0000
39.1600 953.0000 1.0000
39.1700 949.0000 1.0000
39.1800 953.0000 1.0000
39.1900 941.0000 1.0000
39.2000 985.0000 1.0000
39.2100 954.0000 1.0000
39.2200 931.0000 1.0000
39.2300 913.0000 1.0000
39.2400 896.0000 1.0000
39.2500 886.0000 1.0000
39.2600 885.0000 1.0000
39.2700 885.0000 1.0000
39.2800 909.0000 1.0000
39.2900 947.0000 1.0000
39.3000 919.0000 1.0000
39.3100 930.0000 1.0000
39.3200 906.0000 1.0000
39.3300 937.0000 1.0000
39.3400 907.0000 1.0000
39.3500 926.0000 1.0000
39.3600 919.0000 1.0000
39.3700 918.0000 1.0000
39.3800 913.0000 1.0000
39.3900 895.0000 1.0000
39.4000 887.0000 1.0000
39.4100 931.0000 1.0000
39.4200 877.0000 1.0000
39.4300 918.0000 1.0000
39.4400 895.0000 1.0000
39.4500 910.0000 1.0000
39.4600 948.0000 1.0000
39.4700 908.0000 1.0000
39.4800 958.0000 1.0000
39.4900 936.0000 1.0000
39.5000 917.0000 1.0000
39.5100 941.0000 1.0000
39.5200 932.0000 1.0000
39.5300 963.0000 1.0000
39.5400 970.0000 1.0000
39.5500 984.0000 1.0000
39.5600 912.0000 1.0000
39.5700 992.0000 1.0000
39.5800 908.0000 1.0000
39.5900 923.0000 1.0000
39.6000 931.0000 1.0000
39.6100 942.0000 1.0000
39.6200 916.0000 1.0000
39.6300 915.0000 1.0000
39.6400 954.0000 1.0000
39.6500 949.0000 1.0000
39.6600 970.0000 1.0000
39.6700 891.0000 1.0000
39.6800 946.0000 1.0000
39.6900 904.0000 1.0000
39.7000 950.0000 1.0000
39.7100 921.0000 1.0000
39.7200 930.0000 1.0000
39.7300 883.0000 1.0000
39.7400 908.0000 1.0000
39.7500 912.0000 1.0000
39.7600 908.0000 1.0000
39.7700 906.0000 1.0000
39.7800 872.0000 1.0000
39.7900 908.0000 1.0000
39.8000 900.0000 1.0000
39.8100 849.0000 1.0000
39.8200 833.0000 1.0000
39.8300 862.0000 1.0000
39.8400 865.0000 1.0000
39.8500 878.0000 1.0000
39.8600 886.0000 1.0000
39.8700 891.0000 1.0000
39.8800 839.0000 1.0000
39.8900 872.0000 1.0000
39.9000 817.0000 1.0000
39.9100 862.0000 1.0000
39.9200 907.0000 1.0000
39.9300 868.0000 1.0000
39.9400 891.0000 1.0000
39.9500 897.0000 1.0000
39.9600 850.0000 1.0000
39.9700 867.0000 1.0000
39.9800 839.0000 1.0000
39.9900 867.0000 1.0000
40.0000 915.0000 1.0000
40.0100 866.0000 1.0000
40.0200 882.0000 1.0000
40.0300 874.0000 1.0000
40.0400 845.0000 1.0000
40.0500 841.0000 1.0000
40.0600 836.0000 1.0000
40.0700 854.0000 1.0000
40.0800 872.0000 1.0000
40.0900 872.0000 1.0000
40.1000 859.0000 1.0000
40.1100 799.0000 1.0000
40.1200 832.0000 1.0000
40.1300 859.0000 1.0000
40.1400 849.0000 1.0000
40.1500 827.0000 1.0000
40.1600 853.0000 1.0000
40.1700 858.0000 1.0000
40.1800 829.0000 1.0000
40.1900 827.0000 1.0000
40.2000 862.0000 1.0000
40.2100 853.0000 1.0000
40.2200 834.0000 1.0000
40.2300 836.0000 1.0000
40.2400 835.0000 1.0000
40.2500 799.0000 1.0000
40.2600 890.0000 1.0000
40.2700 818.0000 1.0000
40.2800 791.0000 1.0000
40.2900 833.0000 1.0000
40.3000 808.0000 1.0000
40.3100 810.0000 1.0000
40.3200 866.0000 1.0000
40.3300 871.0000 1.0000
40.3400 870.0000 1.0000
40.3500 836.0000 1.0000
40.3600 825.0000 1.0000
40.3700 814.0000 1.0000
40.3800 821.0000 1.0000
40.3900 826.0000 1.0000
40.4000 848.0000 1.0000
40.4100 850.0000 1.0000
40.4200 825.0000 1.0000
40.4300 832.0000 1.0000
40.4400 829.0000 1.0000
40.4500 834.0000 1.0000
40.4600 820.0000 1.0000
40.4700 823.0000 1.0000
40.4800 844.0000 1.0000
40.4900 887.0000 1.0000
40.5000 859.0000 1.0000
40.5100 865.0000 1.0000
40.5200 837.0000 1.0000
40.5300 860.0000 1.0000
40.5400 836.0000 1.0000
40.5500 837.0000 1.0000
40.5600 854.0000 1.0000
40.5700 826.0000 1.0000
40.5800 821.0000 1.0000
40.5900 842.0000 1.0000
40.6000 848.0000 1.0000
40.6100 817.0000 1.0000
40.6200 846.0000 1.0000
40.6300 813.0000 1.0000
40.6400 862.0000 1.0000
40.6500 834.0000 1.0000
40.6600 822.0000 1.0000
40.6700 812.0000 1.0000
40.6800 823.0000 1.0000
40.6900 814.0000 1.0000
40.7000 820.0000 1.0000
40.7100 785.0000 1.0000
40.7200 803.0000 1.0000
40.7300 860.0000 1.0000
40.7400 815.0000 1.0000
40.7500 873.0000 1.0000
40.7600 857.0000 1.0000
40.7700 804.0000 1.0000
40.7800 826.0000 1.0000
40.7900 817.0000 1.0000
40.8000 847.0000 1.0000
40.8100 833.0000 1.0000
40.8200 803.0000 1.0000
40.8300 811.0000 1.0000
40.8400 821.0000 1.0000
40.8500 844.0000 1.0000
40.8600 863.0000 1.0000
40.8700 819.0000 1.0000
40.8800 796.0000 1.0000
40.8900 784.0000 1.0000
40.9000 816.0000 1.0000
40.9100 825.0000 1.0000
40.9200 854.0000 1.0000
40.9300 789.0000 1.0000
40.9400 818.0000 1.0000
40.9500 843.0000 1.0000
40.9600 839.0000 1.0000
40.9700 853.0000 1.0000
40.9800 816.0000 1.0000
40.9900 825.0000 1.0000
41.0000 814.0000 1.0000
41.0100 839.0000 1.0000
41.0200 812.0000 1.0000
41.0300 835.0000 1.0000
41.0400 838.0000 1.0000
41.0500 787.0000 1.0000
41.0600 790.0000 1.0000
41.0700 839.0000 1.0000
41.0800 840.0000 1.0000
41.0900 821.0000 1.0000
41.1000 791.0000 1.0000
41.1100 838.0000 1.0000
41.1200 793.0000 1.0000
41.1300 757.0000 1.0000
41.1400 816.0000 1.0000
41.1500 834.0000 1.0000
41.1600 820.0000 1.0000
41.1700 862.0000 1.0000
41.1800 796.0000 1.0000
41.1900 874.0000 1.0000
41.2000 827.0000 1.0000
41.2100 776.0000 1.0000
41.2200 812.0000 1.0000
41.2300 844.0000 1.0000
41.2400 788.0000 1.0000
41.2500 838.0000 1.0000
41.2600 827.0000 1.0000
41.2700 848.0000 1.0000
41.2800 803.0000 1.0000
41.2900 779.0000 1.0000
41.3000 805.0000 1.0000
41.3100 822.0000 1.0000
41.3200 842.0000 1.0000
41.3300 790.0000 1.0000
41.3400 798.0000 1.0000
41.3500 840.0000 1.0000
41.3600 825.0000 1.0000
41.3700 814.0000 1.0000
41.3800 826.0000 1.0000
41.3900 828.0000 1.0000
41.4000 808.0000 1.0000
41.4100 800.0000 1.0000
41.4200 829.0000 1.0000
41.4300 844.0000 1.0000
41.4400 794.0000 1.0000
41.4500 832.0000 1.0000
41.4600 831.0000 1.0000
41.4700 802.0000 1.0000
41.4800 793.0000 1.0000
41.4900 799.0000 1.0000
41.5000 835.0000 1.0000
41.5100 846.0000 1.0000
41.5200 798.0000 1.0000
41.5300 812.0000 1.0000
41.5400 811.0000 1.0000
41.5500 813.0000 1.0000
41.5600 779.0000 1.0000
41.5700 844.0000 1.0000
41.5800 830.0000 1.0000
41.5900 836.0000 1.0000
41.6000 818.0000 1.0000
41.6100 872.0000 1.0000
41.6200 832.0000 1.0000
41.6300 830.0000 1.0000
41.6400 849.0000 1.0000
41.6500 836.0000 1.0000
41.6600 866.0000 1.0000
41.6700 848.0000 1.0000
41.6800 845.0000 1.0000
41.6900 840.0000 1.0000
41.7000 814.0000 1.0000
41.7100 832.0000 1.0000
41.7200 818.0000 1.0000
41.7300 820.0000 1.0000
41.7400 863.0000 1.0000
41.7500 830.0000 1.0000
41.7600 838.0000 1.0000
41.7700 828.0000 1.0000
41.7800 837.0000 1.0000
41.7900 855.0000 1.0000
41.8000 833.0000 1.0000
41.8100 780.0000 1.0000
41.8200 809.0000 1.0000
41.8300 822.0000 1.0000
41.8400 805.0000 1.0000
41.8500 819.0000 1.0000
41.8600 803.0000 1.0000
41.8700 812.0000 1.0000
41.8800 808.0000 1.0000
41.8900 827.0000 1.0000
41.9000 836.0000 1.0000
41.9100 815.0000 1.0000
41.9200 812.0000 1.0000
41.9300 826.0000 1.0000
41.9400 835.0000 1.0000
41.9500 788.0000 1.0000
41.9600 799.0000 1.0000
41.9700 771.0000 1.0000
41.9800 789.0000 1.0000
41.9900 793.0000 1.0000
42.0000 777.0000 1.0000
42.0100 803.0000 1.0000
42.0200 811.0000 1.0000
42.0300 844.0000 1.0000
42.0400 836.0000 1.0000
42.0500 824.0000 1.0000
42.0600 796.0000 1.0000
42.0700 808.0000 1.0000
42.0800 813.0000 1.0000
42.0900 775.0000 1.0000
42.1000 801.0000 1.0000
42.1100 773.0000 1.0000
42.1200 847.0000 1.0000
42.1300 853.0000 1.0000
42.1400 775.0000 1.0000
42.1500 784.0000 1.0000
42.1600 842.0000 1.0000
42.1700 800.0000 1.0000
42.1800 805.0000 1.0000
42.1900 809.0000 1.0000
42.2000 790.0000 1.0000
42.2100 796.0000 1.0000
42.2200 789.0000 1.0000
42.2300 802.0000 1.0000
42.2400 782.0000 1.0000
42.2500 782.0000 1.0000
42.2600 791.0000 1.0000
42.2700 806.0000 1.0000
42.2800 823.0000 1.0000
42.2900 841.0000 1.0000
42.3000 854.0000 1.0000
42.3100 792.0000 1.0000
42.3200 791.0000 1.0000
42.3300 815.0000 1.0000
42.3400 789.0000 1.0000
42.3500 786.0000 1.0000
42.3600 789.0000 1.0000
42.3700 768.0000 1.0000
42.3800 796.0000 1.0000
42.3900 830.0000 1.0000
42.4000 803.0000 1.0000
42.4100 807.0000 1.0000
42.4200 760.0000 1.0000
42.4300 763.0000 1.0000
42.4400 741.0000 1.0000
42.4500 777.0000 1.0000
42.4600 814.0000 1.0000
42.4700 786.0000 1.0000
42.4800 811.0000 1.0000
42.4900 808.0000 1.0000
42.5000 804.0000 1.0000
42.5100 783.0000 1.0000
42.5200 822.0000 1.0000
42.5300 823.0000 1.0000
42.5400 834.0000 1.0000
42.5500 831.0000 1.0000
42.5600 803.0000 1.0000
42.5700 819.0000 1.0000
42.5800 837.0000 1.0000
42.5900 818.0000 1.0000
42.6000 802.0000 1.0000
42.6100 804.0000 1.0000
42.6200 804.0000 1.0000
42.6300 794.0000 1.0000
42.6400 757.0000 1.0000
42.6500 787.0000 1.0000
42.6600 795.0000 1.0000
42.6700 804.0000 1.0000
42.6800 815.0000 1.0000
42.6900 829.0000 1.0000
42.7000 791.0000 1.0000
42.7100 840.0000 1.0000
42.7200 812.0000 1.0000
42.7300 787.0000 1.0000
42.7400 793.0000 1.0000
42.7500 804.0000 1.0000
42.7600 824.0000 1.0000
42.7700 806.0000 1.0000
42.7800 780.0000 1.0000
42.7900 763.0000 1.0000
42.8000 806.0000 1.0000
42.8100 826.0000 1.0000
42.8200 837.0000 1.0000
42.8300 798.0000 1.0000
42.8400 823.0000 1.0000
42.8500 795.0000 1.0000
42.8600 802.0000 1.0000
42.8700 812.0000 1.0000
42.8800 855.0000 1.0000
42.8900 807.0000 1.0000
42.9000 774.0000 1.0000
42.9100 814.0000 1.0000
42.9200 820.0000 1.0000
42.9300 828.0000 1.0000
42.9400 860.0000 1.0000
42.9500 784.0000 1.0000
42.9600 830.0000 1.0000
42.9700 851.0000 1.0000
42.9800 853.0000 1.0000
42.9900 821.0000 1.0000
43.0000 827.0000 1.0000
43.0100 802.0000 1.0000
43.0200 809.0000 1.0000
43.0300 767.0000 1.0000
43.0400 813.0000 1.0000
43.0500 845.0000 1.0000
43.0600 841.0000 1.0000
43.0700 842.0000 1.0000
43.0800 836.0000 1.0000
43.0900 823.0000 1.0000
43.1000 837.0000 1.0000
43.1100 848.0000 1.0000
43.1200 865.0000 1.0000
43.1300 892.0000 1.0000
43.1400 873.0000 1.0000
43.1500 882.0000 1.0000
43.1600 866.0000 1.0000
43.1700 886.0000 1.0000
43.1800 923.0000 1.0000
43.1900 900.0000 1.0000
43.2000 929.0000 1.0000
43.2100 881.0000 1.0000
43.2200 857.0000 1.0000
43.2300 856.0000 1.0000
43.2400 941.0000 1.0000
43.2500 882.0000 1.0000
43.2600 879.0000 1.0000
43.2700 879.0000 1.0000
43.2800 862.0000 1.0000
43.2900 872.0000 1.0000
43.3000 847.0000 1.0000
43.3100 895.0000 1.0000
43.3200 869.0000 1.0000
43.3300 883.0000 1.0000
43.3400 858.0000 1.0000
43.3500 857.0000 1.0000
43.3600 879.0000 1.0000
43.3700 856.0000 1.0000
43.3800 848.0000 1.0000
43.3900 890.0000 1.0000
43.4000 869.0000 1.0000
43.4100 842.0000 1.0000
43.4200 858.0000 1.0000
43.4300 846.0000 1.0000
43.4400 826.0000 1.0000
43.4500 816.0000 1.0000
43.4600 815.0000 1.0000
43.4700 796.0000 1.0000
43.4800 810.0000 1.0000
43.4900 777.0000 1.0000
43.5000 753.0000 1.0000
43.5100 740.0000 1.0000
43.5200 840.0000 1.0000
43.5300 765.0000 1.0000
43.5400 838.0000 1.0000
43.5500 817.0000 1.0000
43.5600 765.0000 1.0000
43.5700 780.0000 1.0000
43.5800 804.0000 1.0000
43.5900 804.0000 1.0000
43.6000 787.0000 1.0000
43.6100 779.0000 1.0000
43.6200 790.0000 1.0000
43.6300 799.0000 1.0000
43.6400 751.0000 1.0000
43.6500 765.0000 1.0000
43.6600 787.0000 1.0000
43.6700 811.0000 1.0000
43.6800 814.0000 1.0000
43.6900 822.0000 1.0000
43.7000 798.0000 1.0000
43.7100 780.0000 1.0000
43.7200 779.0000 1.0000
43.7300 785.0000 1.0000
43.7400 790.0000 1.0000
43.7500 818.0000 1.0000
43.7600 813.0000 1.0000
43.7700 789.0000 1.0000
43.7800 773.0000 1.0000
43.7900 744.0000 1.0000
43.8000 794.0000 1.0000
43.8100 762.0000 1.0000
43.8200 779.0000 1.0000
43.8300 758.0000 1.0000
43.8400 806.0000 1.0000
43.8500 808.0000 1.0000
43.8600 798.0000 1.0000
43.8700 827.0000 1.0000
43.8800 830.0000 1.0000
43.8900 770.0000 1.0000
43.9000 825.0000 1.0000
43.9100 783.0000 1.0000
43.9200 753.0000 1.0000
43.9300 725.0000 1.0000
43.9400 745.0000 1.0000
43.9500 785.0000 1.0000
43.9600 785.0000 1.0000
43.9700 746.0000 1.0000
43.9800 778.0000 1.0000
43.9900 775.0000 1.0000
44.0000 801.0000 1.0000
44.0100 760.0000 1.0000
44.0200 765.0000 1.0000
44.0300 772.0000 1.0000
44.0400 834.0000 1.0000
44.0500 825.0000 1.0000
44.0600 742.0000 1.0000
44.0700 763.0000 1.0000
44.0800 803.0000 1.0000
44.0900 791.0000 1.0000
44.1000 771.0000 1.0000
44.1100 742.0000 1.0000
44.1200 747.0000 1.0000
44.1300 751.0000 1.0000
44.1400 788.0000 1.0000
44.1500 765.0000 1.0000
44.1600 728.0000 1.0000
44.1700 746.0000 1.0000
44.1800 807.0000 1.0000
44.1900 781.0000 1.0000
44.2000 779.0000 1.0000
44.2100 774.0000 1.0000
44.2200 779.0000 1.0000
44.2300 751.0000 1.0000
44.2400 785.0000 1.0000
44.2500 793.0000 1.0000
44.2600 798.0000 1.0000
44.2700 808.0000 1.0000
44.2800 798.0000 1.0000
44.2900 781.0000 1.0000
44.3000 768.0000 1.0000
44.3100 768.0000 1.0000
44.3200 774.0000 1.0000
44.3300 803.0000 1.0000
44.3400 802.0000 1.0000
44.3500 810.0000 1.0000
44.3600 807.0000 1.0000
44.3700 770.0000 1.0000
44.3800 768.0000 1.0000
44.3900 803.0000 1.0000
44.4000 805.0000 1.0000
44.4100 751.0000 1.0000
44.4200 774.0000 1.0000
44.4300 753.0000 1.0000
44.4400 779.0000 1.0000
44.4500 782.0000 1.0000
44.4600 784.0000 1.0000
44.4700 793.0000 1.0000
44.4800 835.0000 1.0000
44.4900 798.0000 1.0000
44.5000 778.0000 1.0000
44.5100 793.0000 1.0000
44.5200 763.0000 1.0000
44.5300 779.0000 1.0000
44.5400 755.0000 1.0000
44.5500 763.0000 1.0000
44.5600 766.0000 1.0000
44.5700 751.0000 1.0000
44.5800 860.0000 1.0000
44.5900 750.0000 1.0000
44.6000 790.0000 1.0000
44.6100 783.0000 1.0000
44.6200 683.0000 1.0000
44.6300 742.0000 1.0000
44.6400 761.0000 1.0000
44.6500 795.0000 1.0000
44.6600 768.0000 1.0000
44.6700 742.0000 1.0000
44.6800 806.0000 1.0000
44.6900 739.0000 1.0000
44.7000 790.0000 1.0000
44.7100 786.0000 1.0000
44.7200 810.0000 1.0000
44.7300 775.0000 1.0000
44.7400 816.0000 1.0000
44.7500 807.0000 1.0000
44.7600 749.0000 1.0000
44.7700 769.0000 1.0000
44.7800 788.0000 1.0000
44.7900 764.0000 1.0000
44.8000 768.0000 1.0000
44.8100 747.0000 1.0000
44.8200 747.0000 1.0000
44.8300 730.0000 1.0000
44.8400 770.0000 1.0000
44.8500 811.0000 1.0000
44.8600 764.0000 1.0000
44.8700 737.0000 1.0000
44.8800 743.0000 1.0000
44.8900 793.0000 1.0000
44.9000 753.0000 1.0000
44.9100 740.0000 1.0000
44.9200 732.0000 1.0000
44.9300 765.0000 1.0000
44.9400 766.0000 1.0000
44.9500 758.0000 1.0000
44.9600 814.0000 1.0000
44.9700 782.0000 1.0000
44.9800 750.0000 1.0000
44.9900 771.0000 1.0000
45.0000 731.0000 1.0000
45.0100 776.0000 1.0000
45.0200 763.0000 1.0000
45.0300 718.0000 1.0000
45.0400 775.0000 1.0000
45.0500 757.0000 1.0000
45.0600 772.0000 1.0000
45.0700 752.0000 1.0000
45.0800 718.0000 1.0000
45.0900 736.0000 1.0000
45.1000 786.0000 1.0000
45.1100 780.0000 1.0000
45.1200 765.0000 1.0000
45.1300 722.0000 1.0000
45.1400 769.0000 1.0000
45.1500 804.0000 1.0000
45.1600 773.0000 1.0000
45.1700 774.0000 1.0000
45.1800 776.0000 1.0000
45.1900 732.0000 1.0000
45.2000 792.0000 1.0000
45.2100 782.0000 1.0000
45.2200 796.0000 1.0000
45.2300 724.0000 1.0000
45.2400 752.0000 1.0000
45.2500 773.0000 1.0000
45.2600 778.0000 1.0000
45.2700 731.0000 1.0000
45.2800 722.0000 1.0000
45.2900 740.0000 1.0000
45.3000 792.0000 1.0000
45.3100 778.0000 1.0000
45.3200 768.0000 1.0000
45.3300 729.0000 1.0000
45.3400 779.0000 1.0000
45.3500 750.0000 1.0000
45.3600 723.0000 1.0000
45.3700 788.0000 1.0000
45.3800 762.0000 1.0000
45.3900 785.0000 1.0000
45.4000 778.0000 1.0000
45.4100 783.0000 1.0000
45.4200 768.0000 1.0000
45.4300 759.0000 1.0000
45.4400 771.0000 1.0000
45.4500 747.0000 1.0000
45.4600 719.0000 1.0000
45.4700 775.0000 1.0000
45.4800 754.0000 1.0000
45.4900 777.0000 1.0000
45.5000 781.0000 1.0000
45.5100 781.0000 1.0000
45.5200 760.0000 1.0000
45.5300 765.0000 1.0000
45.5400 782.0000 1.0000
45.5500 771.0000 1.0000
45.5600 755.0000 1.0000
45.5700 775.0000 1.0000
45.5800 747.0000 1.0000
45.5900 775.0000 1.0000
45.6000 726.0000 1.0000
45.6100 743.0000 1.0000
45.6200 747.0000 1.0000
45.6300 775.0000 1.0000
45.6400 761.0000 1.0000
45.6500 755.0000 1.0000
45.6600 746.0000 1.0000
45.6700 726.0000 1.0000
45.6800 769.0000 1.0000
45.6900 742.0000 1.0000
45.7000 741.0000 1.0000
45.7100 752.0000 1.0000
45.7200 744.0000 1.0000
45.7300 726.0000 1.0000
45.7400 727.0000 1.0000
45.7500 767.0000 1.0000
45.7600 731.0000 1.0000
45.7700 759.0000 1.0000
45.7800 759.0000 1.0000
45.7900 767.0000 1.0000
45.8000 714.0000 1.0000
45.8100 696.0000 1.0000
45.8200 743.0000 1.0000
45.8300 765.0000 1.0000
45.8400 738.0000 1.0000
45.8500 765.0000 1.0000
45.8600 799.0000 1.0000
45.8700 718.0000 1.0000
45.8800 754.0000 1.0000
45.8900 773.0000 1.0000
45.9000 717.0000 1.0000
45.9100 713.0000 1.0000
45.9200 734.0000 1.0000
45.9300 773.0000 1.0000
45.9400 726.0000 1.0000
45.9500 694.0000 1.0000
45.9600 683.0000 1.0000
45.9700 739.0000 1.0000
45.9800 753.0000 1.0000
45.9900 738.0000 1.0000
46.0000 751.0000 1.0000
46.0100 704.0000 1.0000
46.0200 722.0000 1.0000
46.0300 732.0000 1.0000
46.0400 731.0000 1.0000
46.0500 732.0000 1.0000
46.0600 710.0000 1.0000
46.0700 728.0000 1.0000
46.0800 725.0000 1.0000
46.0900 697.0000 1.0000
46.1000 727.0000 1.0000
46.1100 735.0000 1.0000
46.1200 711.0000 1.0000
46.1300 702.0000 1.0000
46.1400 704.0000 1.0000
46.1500 748.0000 1.0000
46.1600 727.0000 1.0000
46.1700 746.0000 1.0000
46.1800 702.0000 1.0000
46.1900 747.0000 1.0000
46.2000 724.0000 1.0000
46.2100 739.0000 1.0000
46.2200 759.0000 1.0000
46.2300 722.0000 1.0000
46.2400 729.0000 1.0000
46.2500 741.0000 1.0000
46.2600 734.0000 1.0000
46.2700 769.0000 1.0000
46.2800 739.0000 1.0000
46.2900 731.0000 1.0000
46.3000 720.0000 1.0000
46.3100 719.0000 1.0000
46.3200 768.0000 1.0000
46.3300 737.0000 1.0000
46.3400 710.0000 1.0000
46.3500 725.0000 1.0000
46.3600 737.0000 1.0000
46.3700 762.0000 1.0000
46.3800 741.0000 1.0000
46.3900 714.0000 1.0000
46.4000 743.0000 1.0000
46.4100 761.0000 1.0000
46.4200 755.0000 1.0000
46.4300 726.0000 1.0000
46.4400 748.0000 1.0000
46.4500 763.0000 1.0000
46.4600 718.0000 1.0000
46.4700 703.0000 1.0000
46.4800 734.0000 1.0000
46.4900 758.0000 1.0000
46.5000 762.0000 1.0000
46.5100 712.0000 1.0000
46.5200 784.0000 1.0000
46.5300 731.0000 1.0000
46.5400 728.0000 1.0000
46.5500 736.0000 1.0000
46.5600 729.0000 1.0000
46.5700 763.0000 1.0000
46.5800 755.0000 1.0000
46.5900 723.0000 1.0000
46.6000 714.0000 1.0000
46.6100 744.0000 1.0000
46.6200 725.0000 1.0000
46.6300 715.0000 1.0000
46.6400 756.0000 1.0000
46.6500 746.0000 1.0000
46.6600 717.0000 1.0000
46.6700 733.0000 1.0000
46.6800 745.0000 1.0000
46.6900 697.0000 1.0000
46.7000 716.0000 1.0000
46.7100 722.0000 1.0000
46.7200 719.0000 1.0000
46.7300 719.0000 1.0000
46.7400 710.0000 1.0000
46.7500 738.0000 1.0000
46.7600 715.0000 1.0000
46.7700 744.0000 1.0000
46.7800 751.0000 1.0000
46.7900 756.0000 1.0000
46.8000 738.0000 1.0000
46.8100 736.0000 1.0000
46.8200 763.0000 1.0000
46.8300 783.0000 1.0000
46.8400 750.0000 1.0000
46.8500 744.0000 1.0000
46.8600 748.0000 1.0000
46.8700 742.0000 1.0000
46.8800 720.0000 1.0000
46.8900 711.0000 1.0000
46.9000 731.0000 1.0000
46.9100 737.0000 1.0000
46.9200 726.0000 1.0000
46.9300 744.0000 1.0000
46.9400 778.0000 1.0000
46.9500 744.0000 1.0000
46.9600 748.0000 1.0000
46.9700 774.0000 1.0000
46.9800 759.0000 1.0000
46.9900 767.0000 1.0000
47.0000 729.0000 1.0000
47.0100 754.0000 1.0000
47.0200 775.0000 1.0000
47.0300 732.0000 1.0000
47.0400 770.0000 1.0000
47.0500 774.0000 1.0000
47.0600 782.0000 1.0000
47.0700 753.0000 1.0000
47.0800 734.0000 1.0000
47.0900 734.0000 1.0000
47.1000 723.0000 1.0000
47.1100 722.0000 1.0000
47.1200 737.0000 1.0000
47.1300 756.0000 1.0000
47.1400 745.0000 1.0000
47.1500 770.0000 1.0000
47.1600 681.0000 1.0000
47.1700 734.0000 1.0000
47.1800 706.0000 1.0000
47.1900 727.0000 1.0000
47.2000 697.0000 1.0000
47.2100 700.0000 1.0000
47.2200 730.0000 1.0000
47.2300 727.0000 1.0000
47.2400 710.0000 1.0000
47.2500 690.0000 1.0000
47.2600 716.0000 1.0000
47.2700 735.0000 1.0000
47.2800 740.0000 1.0000
47.2900 697.0000 1.0000
47.3000 713.0000 1.0000
47.3100 694.0000 1.0000
47.3200 722.0000 1.0000
47.3300 725.0000 1.0000
47.3400 704.0000 1.0000
47.3500 721.0000 1.0000
47.3600 745.0000 1.0000
47.3700 729.0000 1.0000
47.3800 746.0000 1.0000
47.3900 742.0000 1.0000
47.4000 715.0000 1.0000
47.4100 703.0000 1.0000
47.4200 695.0000 1.0000
47.4300 748.0000 1.0000
47.4400 719.0000 1.0000
47.4500 669.0000 1.0000
47.4600 758.0000 1.0000
47.4700 769.0000 1.0000
47.4800 698.0000 1.0000
47.4900 747.0000 1.0000
47.5000 723.0000 1.0000
47.5100 717.0000 1.0000
47.5200 715.0000 1.0000
47.5300 739.0000 1.0000
47.5400 751.0000 1.0000
47.5500 735.0000 1.0000
47.5600 718.0000 1.0000
47.5700 733.0000 1.0000
47.5800 727.0000 1.0000
47.5900 730.0000 1.0000
47.6000 735.0000 1.0000
47.6100 731.0000 1.0000
47.6200 756.0000 1.0000
47.6300 754.0000 1.0000
47.6400 725.0000 1.0000
47.6500 720.0000 1.0000
47.6600 711.0000 1.0000
47.6700 669.0000 1.0000
47.6800 726.0000 1.0000
47.6900 704.0000 1.0000
47.7000 703.0000 1.0000
47.7100 716.0000 1.0000
47.7200 689.0000 1.0000
47.7300 734.0000 1.0000
47.7400 736.0000 1.0000
47.7500 711.0000 1.0000
47.7600 693.0000 1.0000
47.7700 689.0000 1.0000
47.7800 740.0000 1.0000
47.7900 700.0000 1.0000
47.8000 727.0000 1.0000
47.8100 735.0000 1.0000
47.8200 681.0000 1.0000
47.8300 679.0000 1.0000
47.8400 728.0000 1.0000
47.8500 703.0000 1.0000
47.8600 745.0000 1.0000
47.8700 723.0000 1.0000
47.8800 689.0000 1.0000
47.8900 691.0000 1.0000
47.9000 682.0000 1.0000
47.9100 681.0000 1.0000
47.9200 705.0000 1.0000
47.9300 681.0000 1.0000
47.9400 678.0000 1.0000
47.9500 705.0000 1.0000
47.9600 689.0000 1.0000
47.9700 691.0000 1.0000
47.9800 678.0000 1.0000
47.9900 712.0000 1.0000
48.0000 707.0000 1.0000
48.0100 716.0000 1.0000
48.0200 682.0000 1.0000
48.0300 702.0000 1.0000
48.0400 731.0000 1.0000
48.0500 680.0000 1.0000
48.0600 736.0000 1.0000
48.0700 701.0000 1.0000
48.0800 669.0000 1.0000
48.0900 696.0000 1.0000
48.1000 668.0000 1.0000
48.1100 715.0000 1.0000
48.1200 774.0000 1.0000
48.1300 703.0000 1.0000
48.1400 678.0000 1.0000
48.1500 702.0000 1.0000
48.1600 738.0000 1.0000
48.1700 681.0000 1.0000
48.1800 663.0000 1.0000
48.1900 709.0000 1.0000
48.2000 742.0000 1.0000
48.2100 646.0000 1.0000
48.2200 693.0000 1.0000
48.2300 738.0000 1.0000
48.2400 755.0000 1.0000
48.2500 687.0000 1.0000
48.2600 712.0000 1.0000
48.2700 700.0000 1.0000
48.2800 716.0000 1.0000
48.2900 717.0000 1.0000
48.3000 707.0000 1.0000
48.3100 712.0000 1.0000
48.3200 695.0000 1.0000
48.3300 716.0000 1.0000
48.3400 623.0000 1.0000
48.3500 655.0000 1.0000
48.3600 667.0000 1.0000
48.3700 692.0000 1.0000
48.3800 675.0000 1.0000
48.3900 680.0000 1.0000
48.4000 729.0000 1.0000
48.4100 680.0000 1.0000
48.4200 685.0000 1.0000
48.4300 757.0000 1.0000
48.4400 730.0000 1.0000
48.4500 678.0000 1.0000
48.4600 666.0000 1.0000
48.4700 703.0000 1.0000
48.4800 751.0000 1.0000
48.4900 694.0000 1.0000
48.5000 713.0000 1.0000
48.5100 704.0000 1.0000
48.5200 681.0000 1.0000
48.5300 690.0000 1.0000
48.5400 728.0000 1.0000
48.5500 721.0000 1.0000
48.5600 734.0000 1.0000
48.5700 701.0000 1.0000
48.5800 681.0000 1.0000
48.5900 642.0000 1.0000
48.6000 668.0000 1.0000
48.6100 691.0000 1.0000
48.6200 712.0000 1.0000
48.6300 726.0000 1.0000
48.6400 671.0000 1.0000
48.6500 697.0000 1.0000
48.6600 660.0000 1.0000
48.6700 676.0000 1.0000
48.6800 629.0000 1.0000
48.6900 655.0000 1.0000
48.7000 740.0000 1.0000
48.7100 718.0000 1.0000
48.7200 686.0000 1.0000
48.7300 677.0000 1.0000
48.7400 683.0000 1.0000
48.7500 710.0000 1.0000
48.7600 681.0000 1.0000
48.7700 668.0000 1.0000
48.7800 673.0000 1.0000
48.7900 701.0000 1.0000
48.8000 680.0000 1.0000
48.8100 715.0000 1.0000
48.8200 682.0000 1.0000
48.8300 708.0000 1.0000
48.8400 678.0000 1.0000
48.8500 656.0000 1.0000
48.8600 697.0000 1.0000
48.8700 659.0000 1.0000
48.8800 753.0000 1.0000
48.8900 715.0000 1.0000
48.9000 647.0000 1.0000
48.9100 664.0000 1.0000
48.9200 744.0000 1.0000
48.9300 681.0000 1.0000
48.9400 708.0000 1.0000
48.9500 670.0000 1.0000
48.9600 693.0000 1.0000
48.9700 715.0000 1.0000
48.9800 711.0000 1.0000
48.9900 693.0000 1.0000
49.0000 735.0000 1.0000
49.0100 683.0000 1.0000
49.0200 646.0000 1.0000
49.0300 685.0000 1.0000
49.0400 681.0000 1.0000
49.0500 679.0000 1.0000
49.0600 686.0000 1.0000
49.0700 695.0000 1.0000
49.0800 700.0000 1.0000
49.0900 689.0000 1.0000
49.1000 681.0000 1.0000
49.1100 717.0000 1.0000
49.1200 733.0000 1.0000
49.1300 690.0000 1.0000
49.1400 699.0000 1.0000
49.1500 694.0000 1.0000
49.1600 709.0000 1.0000
49.1700 643.0000 1.0000
49.1800 686.0000 1.0000
49.1900 669.0000 1.0000
49.2000 692.0000 1.0000
49.2100 663.0000 1.0000
49.2200 707.0000 1.0000
49.2300 667.0000 1.0000
49.2400 664.0000 1.0000
49.2500 693.0000 1.0000
49.2600 689.0000 1.0000
49.2700 703.0000 1.0000
49.2800 712.0000 1.0000
49.2900 702.0000 1.0000
49.3000 670.0000 1.0000
49.3100 676.0000 1.0000
49.3200 666.0000 1.0000
49.3300 671.0000 1.0000
49.3400 653.0000 1.0000
49.3500 690.0000 1.0000
49.3600 691.0000 1.0000
49.3700 684.0000 1.0000
49.3800 696.0000 1.0000
49.3900 675.0000 1.0000
49.4000 685.0000 1.0000
49.4100 655.0000 1.0000
49.4200 692.0000 1.0000
49.4300 706.0000 1.0000
49.4400 743.0000 1.0000
49.4500 738.0000 1.0000
49.4600 721.0000 1.0000
49.4700 716.0000 1.0000
49.4800 714.0000 1.0000
49.4900 666.0000 1.0000
49.5000 694.0000 1.0000
49.5100 710.0000 1.0000
49.5200 717.0000 1.0000
49.5300 678.0000 1.0000
49.5400 668.0000 1.0000
49.5500 696.0000 1.0000
49.5600 658.0000 1.0000
49.5700 708.0000 1.0000
49.5800 712.0000 1.0000
49.5900 687.0000 1.0000
49.6000 685.0000 1.0000
49.6100 675.0000 1.0000
49.6200 699.0000 1.0000
49.6300 697.0000 1.0000
49.6400 736.0000 1.0000
49.6500 710.0000 1.0000
49.6600 683.0000 1.0000
49.6700 674.0000 1.0000
49.6800 713.0000 1.0000
49.6900 697.0000 1.0000
49.7000 696.0000 1.0000
49.7100 690.0000 1.0000
49.7200 713.0000 1.0000
49.7300 697.0000 1.0000
49.7400 689.0000 1.0000
49.7500 708.0000 1.0000
49.7600 702.0000 1.0000
49.7700 677.0000 1.0000
49.7800 662.0000 1.0000
49.7900 695.0000 1.0000
49.8000 708.0000 1.0000
49.8100 704.0000 1.0000
49.8200 730.0000 1.0000
49.8300 688.0000 1.0000
49.8400 688.0000 1.0000
49.8500 690.0000 1.0000
49.8600 675.0000 1.0000
49.8700 657.0000 1.0000
49.8800 643.0000 1.0000
49.8900 657.0000 1.0000
49.9000 703.0000 1.0000
49.9100 685.0000 1.0000
49.9200 703.0000 1.0000
49.9300 683.0000 1.0000
49.9400 682.0000 1.0000
49.9500 732.0000 1.0000
49.9600 719.0000 1.0000
49.9700 698.0000 1.0000
49.9800 716.0000 1.0000
49.9900 695.0000 1.0000
50.0000 681.0000 1.0000
50.0100 665.0000 1.0000
50.0200 685.0000 1.0000
50.0300 718.0000 1.0000
50.0400 718.0000 1.0000
50.0500 702.0000 1.0000
50.0600 708.0000 1.0000
50.0700 651.0000 1.0000
50.0800 702.0000 1.0000
50.0900 669.0000 1.0000
50.1000 715.0000 1.0000
50.1100 730.0000 1.0000
50.1200 714.0000 1.0000
50.1300 695.0000 1.0000
50.1400 722.0000 1.0000
50.1500 728.0000 1.0000
50.1600 738.0000 1.0000
50.1700 712.0000 1.0000
50.1800 706.0000 1.0000
50.1900 668.0000 1.0000
50.2000 740.0000 1.0000
50.2100 697.0000 1.0000
50.2200 712.0000 1.0000
50.2300 774.0000 1.0000
50.2400 701.0000 1.0000
50.2500 710.0000 1.0000
50.2600 717.0000 1.0000
50.2700 727.0000 1.0000
50.2800 689.0000 1.0000
50.2900 718.0000 1.0000
50.3000 749.0000 1.0000
50.3100 693.0000 1.0000
50.3200 707.0000 1.0000
50.3300 747.0000 1.0000
50.3400 717.0000 1.0000
50.3500 694.0000 1.0000
50.3600 700.0000 1.0000
50.3700 716.0000 1.0000
50.3800 721.0000 1.0000
50.3900 724.0000 1.0000
50.4000 712.0000 1.0000
50.4100 720.0000 1.0000
50.4200 669.0000 1.0000
50.4300 699.0000 1.0000
50.4400 697.0000 1.0000
50.4500 693.0000 1.0000
50.4600 688.0000 1.0000
50.4700 677.0000 1.0000
50.4800 680.0000 1.0000
50.4900 716.0000 1.0000
50.5000 730.0000 1.0000
50.5100 716.0000 1.0000
50.5200 696.0000 1.0000
50.5300 712.0000 1.0000
50.5400 708.0000 1.0000
50.5500 692.0000 1.0000
50.5600 730.0000 1.0000
50.5700 708.0000 1.0000
50.5800 707.0000 1.0000
50.5900 723.0000 1.0000
50.6000 721.0000 1.0000
50.6100 665.0000 1.0000
50.6200 696.0000 1.0000
50.6300 728.0000 1.0000
50.6400 709.0000 1.0000
50.6500 661.0000 1.0000
50.6600 710.0000 1.0000
50.6700 682.0000 1.0000
50.6800 673.0000 1.0000
50.6900 691.0000 1.0000
50.7000 683.0000 1.0000
50.7100 698.0000 1.0000
50.7200 672.0000 1.0000
50.7300 682.0000 1.0000
50.7400 728.0000 1.0000
50.7500 722.0000 1.0000
50.7600 692.0000 1.0000
50.7700 695.0000 1.0000
50.7800 685.0000 1.0000
50.7900 662.0000 1.0000
50.8000 714.0000 1.0000
50.8100 701.0000 1.0000
50.8200 732.0000 1.0000
50.8300 694.0000 1.0000
50.8400 675.0000 1.0000
50.8500 689.0000 1.0000
50.8600 697.0000 1.0000
50.8700 683.0000 1.0000
50.8800 662.0000 1.0000
50.8900 706.0000 1.0000
50.9000 728.0000 1.0000
50.9100 677.0000 1.0000
50.9200 704.0000 1.0000
50.9300 665.0000 1.0000
50.9400 648.0000 1.0000
50.9500 675.0000 1.0000
50.9600 706.0000 1.0000
50.9700 760.0000 1.0000
50.9800 698.0000 1.0000
50.9900 699.0000 1.0000
51.0000 675.0000 1.0000
51.0100 734.0000 1.0000
51.0200 697.0000 1.0000
51.0300 663.0000 1.0000
51.0400 690.0000 1.0000
51.0500 704.0000 1.0000
51.0600 675.0000 1.0000
51.0700 691.0000 1.0000
51.0800 722.0000 1.0000
51.0900 715.0000 1.0000
51.1000 680.0000 1.0000
51.1100 695.0000 1.0000
51.1200 688.0000 1.0000
51.1300 707.0000 1.0000
51.1400 704.0000 1.0000
51.1500 693.0000 1.0000
51.1600 646.0000 1.0000
51.1700 689.0000 1.0000
51.1800 715.0000 1.0000
51.1900 757.0000 1.0000
51.2000 694.0000 1.0000
51.2100 661.0000 1.0000
51.2200 699.0000 1.0000
51.2300 675.0000 1.0000
51.2400 727.0000 1.0000
51.2500 671.0000 1.0000
51.2600 748.0000 1.0000
51.2700 707.0000 1.0000
51.2800 697.0000 1.0000
51.2900 691.0000 1.0000
51.3000 730.0000 1.0000
51.3100 715.0000 1.0000
51.3200 707.0000 1.0000
51.3300 673.0000 1.0000
51.3400 714.0000 1.0000
51.3500 708.0000 1.0000
51.3600 760.0000 1.0000
51.3700 694.0000 1.0000
51.3800 667.0000 1.0000
51.3900 691.0000 1.0000
51.4000 717.0000 1.0000
51.4100 684.0000 1.0000
51.4200 662.0000 1.0000
51.4300 704.0000 1.0000
51.4400 676.0000 1.0000
51.4500 676.0000 1.0000
51.4600 677.0000 1.0000
51.4700 702.0000 1.0000
51.4800 740.0000 1.0000
51.4900 694.0000 1.0000
51.5000 698.0000 1.0000
51.5100 702.0000 1.0000
51.5200 682.0000 1.0000
51.5300 694.0000 1.0000
51.5400 696.0000 1.0000
51.5500 707.0000 1.0000
51.5600 731.0000 1.0000
51.5700 692.0000 1.0000
51.5800 692.0000 1.0000
51.5900 726.0000 1.0000
51.6000 761.0000 1.0000
51.6100 729.0000 1.0000
51.6200 737.0000 1.0000
51.6300 756.0000 1.0000
51.6400 726.0000 1.0000
51.6500 760.0000 1.0000
51.6600 768.0000 1.0000
51.6700 721.0000 1.0000
51.6800 736.0000 1.0000
51.6900 757.0000 1.0000
51.7000 718.0000 1.0000
51.7100 709.0000 1.0000
51.7200 709.0000 1.0000
51.7300 776.0000 1.0000
51.7400 764.0000 1.0000
51.7500 760.0000 1.0000
51.7600 771.0000 1.0000
51.7700 756.0000 1.0000
51.7800 742.0000 1.0000
51.7900 769.0000 1.0000
51.8000 784.0000 1.0000
51.8100 793.0000 1.0000
51.8200 770.0000 1.0000
51.8300 766.0000 1.0000
51.8400 755.0000 1.0000
51.8500 805.0000 1.0000
51.8600 814.0000 1.0000
51.8700 825.0000 1.0000
51.8800 831.0000 1.0000
51.8900 866.0000 1.0000
51.9000 908.0000 1.0000
51.9100 890.0000 1.0000
51.9200 897.0000 1.0000
51.9300 933.0000 1.0000
51.9400 930.0000 1.0000
51.9500 996.0000 1.0000
51.9600 998.0000 1.0000
51.9700 969.0000 1.0000
51.9800 1059.0000 1.0000
51.9900 1054.0000 1.0000
52.0000 1058.0000 1.0000
52.0100 1149.0000 1.0000
52.0200 1215.0000 1.0000
52.0300 1256.0000 1.0000
52.0400 1274.0000 1.0000
52.0500 1346.0000 1.0000
52.0600 1411.0000 1.0000
52.0700 1544.0000 1.0000
52.0800 1637.0000 1.0000
52.0900 1563.0000 1.0000
52.1000 1664.0000 1.0000
52.1100 1825.0000 1.0000
52.1200 1898.0000 1.0000
52.1300 1959.0000 1.0000
52.1400 2222.0000 1.0000
52.1500 2418.0000 1.0000
52.1600 2622.0000 1.0000
52.1700 2731.0000 1.0000
52.1800 3030.0000 1.0000
52.1900 3291.0000 1.0000
52.2000 3596.0000 1.0000
52.2100 4049.0000 1.0000
52.2200 4253.0000 1.0000
52.2300 4439.0000 1.0000
52.2400 4684.0000 1.0000
52.2500 4944.0000 1.0000
52.2600 5066.0000 1.0000
52.2700 5160.0000 1.0000
52.2800 5297.0000 1.0000
52.2900 5317.0000 1.0000
52.3000 5064.0000 1.0000
52.3100 5057.0000 1.0000
52.3200 4936.0000 1.0000
52.3300 4788.0000 1.0000
52.3400 4527.0000 1.0000
52.3500 4433.0000 1.0000
52.3600 4367.0000 1.0000
52.3700 4249.0000 1.0000
52.3800 4044.0000 1.0000
52.3900 3908.0000 1.0000
52.4000 3833.0000 1.0000
52.4100 3814.0000 1.0000
52.4200 3664.0000 1.0000
52.4300 3514.0000 1.0000
52.4400 3300.0000 1.0000
52.4500 3185.0000 1.0000
52.4600 2936.0000 1.0000
52.4700 2681.0000 1.0000
52.4800 2532.0000 1.0000
52.4900 2317.0000 1.0000
52.5000 2079.0000 1.0000
52.5100 2006.0000 1.0000
52.5200 1915.0000 1.0000
52.5300 1802.0000 1.0000
52.5400 1680.0000 1.0000
52.5500 1612.0000 1.0000
52.5600 1532.0000 1.0000
52.5700 1458.0000 1.0000
52.5800 1353.0000 1.0000
52.5900 1232.0000 1.0000
52.6000 1241.0000 1.0000
52.6100 1226.0000 1.0000
52.6200 1193.0000 1.0000
52.6300 1082.0000 1.0000
52.6400 1111.0000 1.0000
52.6500 1082.0000 1.0000
52.6600 981.0000 1.0000
52.6700 1014.0000 1.0000
52.6800 1038.0000 1.0000
52.6900 948.0000 1.0000
52.7000 965.0000 1.0000
52.7100 930.0000 1.0000
52.7200 926.0000 1.0000
52.7300 878.0000 1.0000
52.7400 901.0000 1.0000
52.7500 867.0000 1.0000
52.7600 857.0000 1.0000
52.7700 839.0000 1.0000
52.7800 822.0000 1.0000
52.7900 867.0000 1.0000
52.8000 828.0000 1.0000
52.8100 805.0000 1.0000
52.8200 797.0000 1.0000
52.8300 835.0000 1.0000
52.8400 824.0000 1.0000
52.8500 806.0000 1.0000
52.8600 799.0000 1.0000
52.8700 740.0000 1.0000
52.8800 776.0000 1.0000
52.8900 755.0000 1.0000
52.9000 807.0000 1.0000
52.9100 791.0000 1.0000
52.9200 778.0000 1.0000
52.9300 763.0000 1.0000
52.9400 749.0000 1.0000
52.9500 705.0000 1.0000
52.9600 763.0000 1.0000
52.9700 742.0000 1.0000
52.9800 770.0000 1.0000
52.9900 742.0000 1.0000
53.0000 767.0000 1.0000
53.0100 725.0000 1.0000
53.0200 695.0000 1.0000
53.0300 722.0000 1.0000
53.0400 746.0000 1.0000
53.0500 692.0000 1.0000
53.0600 745.0000 1.0000
53.0700 722.0000 1.0000
53.0800 721.0000 1.0000
53.0900 736.0000 1.0000
53.1000 708.0000 1.0000
53.1100 714.0000 1.0000
53.1200 684.0000 1.0000
53.1300 736.0000 1.0000
53.1400 669.0000 1.0000
53.1500 719.0000 1.0000
53.1600 677.0000 1.0000
53.1700 722.0000 1.0000
53.1800 717.0000 1.0000
53.1900 731.0000 1.0000
53.2000 748.0000 1.0000
53.2100 689.0000 1.0000
53.2200 708.0000 1.0000
53.2300 731.0000 1.0000
53.2400 690.0000 1.0000
53.2500 650.0000 1.0000
53.2600 698.0000 1.0000
53.2700 706.0000 1.0000
53.2800 745.0000 1.0000
53.2900 753.0000 1.0000
53.3000 703.0000 1.0000
53.3100 710.0000 1.0000
53.3200 717.0000 1.0000
53.3300 687.0000 1.0000
53.3400 689.0000 1.0000
53.3500 702.0000 1.0000
53.3600 723.0000 1.0000
53.3700 691.0000 1.0000
53.3800 680.0000 1.0000
53.3900 657.0000 1.0000
53.4000 685.0000 1.0000
53.4100 708.0000 1.0000
53.4200 704.0000 1.0000
53.4300 682.0000 1.0000
53.4400 716.0000 1.0000
53.4500 716.0000 1.0000
53.4600 686.0000 1.0000
53.4700 682.0000 1.0000
53.4800 679.0000 1.0000
53.4900 687.0000 1.0000
53.5000 709.0000 1.0000
53.5100 702.0000 1.0000
53.5200 669.0000 1.0000
53.5300 674.0000 1.0000
53.5400 690.0000 1.0000
53.5500 667.0000 1.0000
53.5600 675.0000 1.0000
53.5700 663.0000 1.0000
53.5800 667.0000 1.0000
53.5900 660.0000 1.0000
53.6000 679.0000 1.0000
53.6100 682.0000 1.0000
53.6200 691.0000 1.0000
53.6300 678.0000 1.0000
53.6400 703.0000 1.0000
53.6500 669.0000 1.0000
53.6600 724.0000 1.0000
53.6700 699.0000 1.0000
53.6800 663.0000 1.0000
53.6900 664.0000 1.0000
53.7000 640.0000 1.0000
53.7100 666.0000 1.0000
53.7200 675.0000 1.0000
53.7300 675.0000 1.0000
53.7400 688.0000 1.0000
53.7500 685.0000 1.0000
53.7600 678.0000 1.0000
53.7700 703.0000 1.0000
53.7800 668.0000 1.0000
53.7900 705.0000 1.0000
53.8000 685.0000 1.0000
53.8100 733.0000 1.0000
53.8200 705.0000 1.0000
53.8300 680.0000 1.0000
53.8400 640.0000 1.0000
53.8500 666.0000 1.0000
53.8600 681.0000 1.0000
53.8700 680.0000 1.0000
53.8800 667.0000 1.0000
53.8900 646.0000 1.0000
53.9000 643.0000 1.0000
53.9100 688.0000 1.0000
53.9200 714.0000 1.0000
53.9300 678.0000 1.0000
53.9400 680.0000 1.0000
53.9500 688.0000 1.0000
53.9600 701.0000 1.0000
53.9700 661.0000 1.0000
53.9800 664.0000 1.0000
53.9900 680.0000 1.0000
54.0000 698.0000 1.0000
54.0100 702.0000 1.0000
54.0200 676.0000 1.0000
54.0300 702.0000 1.0000
54.0400 689.0000 1.0000
54.0500 687.0000 1.0000
54.0600 656.0000 1.0000
54.0700 642.0000 1.0000
54.0800 633.0000 1.0000
54.0900 673.0000 1.0000
54.1000 711.0000 1.0000
54.1100 695.0000 1.0000
54.1200 665.0000 1.0000
54.1300 684.0000 1.0000
54.1400 699.0000 1.0000
54.1500 679.0000 1.0000
54.1600 674.0000 1.0000
54.1700 694.0000 1.0000
54.1800 702.0000 1.0000
54.1900 684.0000 1.0000
54.2000 694.0000 1.0000
54.2100 676.0000 1.0000
54.2200 666.0000 1.0000
54.2300 688.0000 1.0000
54.2400 672.0000 1.0000
54.2500 698.0000 1.0000
54.2600 654.0000 1.0000
54.2700 729.0000 1.0000
54.2800 676.0000 1.0000
54.2900 705.0000 1.0000
54.3000 675.0000 1.0000
54.3100 729.0000 1.0000
54.3200 708.0000 1.0000
54.3300 698.0000 1.0000
54.3400 698.0000 1.0000
54.3500 709.0000 1.0000
54.3600 719.0000 1.0000
54.3700 692.0000 1.0000
54.3800 645.0000 1.0000
54.3900 691.0000 1.0000
54.4000 694.0000 1.0000
54.4100 677.0000 1.0000
54.4200 678.0000 1.0000
54.4300 672.0000 1.0000
54.4400 693.0000 1.0000
54.4500 676.0000 1.0000
54.4600 700.0000 1.0000
54.4700 681.0000 1.0000
54.4800 693.0000 1.0000
54.4900 699.0000 1.0000
54.5000 656.0000 1.0000
54.5100 697.0000 1.0000
54.5200 683.0000 1.0000
54.5300 718.0000 1.0000
54.5400 684.0000 1.0000
54.5500 688.0000 1.0000
54.5600 680.0000 1.0000
54.5700 676.0000 1.0000
54.5800 675.0000 1.0000
54.5900 660.0000 1.0000
54.6000 686.0000 1.0000
54.6100 735.0000 1.0000
54.6200 711.0000 1.0000
54.6300 679.0000 1.0000
54.6400 653.0000 1.0000
54.6500 699.0000 1.0000
54.6600 705.0000 1.0000
54.6700 703.0000 1.0000
54.6800 722.0000 1.0000
54.6900 751.0000 1.0000
54.7000 692.0000 1.0000
54.7100 715.0000 1.0000
54.7200 713.0000 1.0000
54.7300 675.0000 1.0000
54.7400 716.0000 1.0000
54.7500 695.0000 1.0000
54.7600 750.0000 1.0000
54.7700 698.0000 1.0000
54.7800 720.0000 1.0000
54.7900 698.0000 1.0000
54.8000 758.0000 1.0000
54.8100 782.0000 1.0000
54.8200 748.0000 1.0000
54.8300 757.0000 1.0000
54.8400 711.0000 1.0000
54.8500 731.0000 1.0000
54.8600 711.0000 1.0000
54.8700 730.0000 1.0000
54.8800 760.0000 1.0000
54.8900 743.0000 1.0000
54.9000 687.0000 1.0000
54.9100 700.0000 1.0000
54.9200 787.0000 1.0000
54.9300 732.0000 1.0000
54.9400 751.0000 1.0000
54.9500 707.0000 1.0000
54.9600 726.0000 1.0000
54.9700 759.0000 1.0000
54.9800 743.0000 1.0000
54.9900 793.0000 1.0000
55.0000 797.0000 1.0000
55.0100 752.0000 1.0000
55.0200 768.0000 1.0000
55.0300 758.0000 1.0000
55.0400 727.0000 1.0000
55.0500 754.0000 1.0000
55.0600 792.0000 1.0000
55.0700 755.0000 1.0000
55.0800 756.0000 1.0000
55.0900 804.0000 1.0000
55.1000 806.0000 1.0000
55.1100 794.0000 1.0000
55.1200 851.0000 1.0000
55.1300 827.0000 1.0000
55.1400 869.0000 1.0000
55.1500 852.0000 1.0000
55.1600 858.0000 1.0000
55.1700 889.0000 1.0000
55.1800 915.0000 1.0000
55.1900 948.0000 1.0000
55.2000 929.0000 1.0000
55.2100 950.0000 1.0000
55.2200 1008.0000 1.0000
55.2300 961.0000 1.0000
55.2400 1015.0000 1.0000
55.2500 1013.0000 1.0000
55.2600 999.0000 1.0000
55.2700 1020.0000 1.0000
55.2800 1077.0000 1.0000
55.2900 1040.0000 1.0000
55.3000 1051.0000 1.0000
55.3100 1083.0000 1.0000
55.3200 1060.0000 1.0000
55.3300 1071.0000 1.0000
55.3400 989.0000 1.0000
55.3500 1002.0000 1.0000
55.3600 1007.0000 1.0000
55.3700 1014.0000 1.0000
55.3800 1039.0000 1.0000
55.3900 1012.0000 1.0000
55.4000 1004.0000 1.0000
55.4100 960.0000 1.0000
55.4200 975.0000 1.0000
55.4300 984.0000 1.0000
55.4400 886.0000 1.0000
55.4500 903.0000 1.0000
55.4600 951.0000 1.0000
55.4700 896.0000 1.0000
55.4800 885.0000 1.0000
55.4900 878.0000 1.0000
55.5000 884.0000 1.0000
55.5100 840.0000 1.0000
55.5200 835.0000 1.0000
55.5300 848.0000 1.0000
55.5400 790.0000 1.0000
55.5500 809.0000 1.0000
55.5600 808.0000 1.0000
55.5700 790.0000 1.0000
55.5800 818.0000 1.0000
55.5900 753.0000 1.0000
55.6000 778.0000 1.0000
55.6100 757.0000 1.0000
55.6200 765.0000 1.0000
55.6300 730.0000 1.0000
55.6400 774.0000 1.0000
55.6500 749.0000 1.0000
55.6600 719.0000 1.0000
55.6700 712.0000 1.0000
55.6800 721.0000 1.0000
55.6900 719.0000 1.0000
55.7000 695.0000 1.0000
55.7100 712.0000 1.0000
55.7200 694.0000 1.0000
55.7300 696.0000 1.0000
55.7400 699.0000 1.0000
55.7500 748.0000 1.0000
55.7600 737.0000 1.0000
55.7700 722.0000 1.0000
55.7800 683.0000 1.0000
55.7900 704.0000 1.0000
55.8000 645.0000 1.0000
55.8100 657.0000 1.0000
55.8200 664.0000 1.0000
55.8300 686.0000 1.0000
55.8400 661.0000 1.0000
55.8500 675.0000 1.0000
55.8600 688.0000 1.0000
55.8700 668.0000 1.0000
55.8800 683.0000 1.0000
55.8900 687.0000 1.0000
55.9000 677.0000 1.0000
55.9100 710.0000 1.0000
55.9200 668.0000 1.0000
55.9300 658.0000 1.0000
55.9400 676.0000 1.0000
55.9500 695.0000 1.0000
55.9600 673.0000 1.0000
55.9700 700.0000 1.0000
55.9800 691.0000 1.0000
55.9900 673.0000 1.0000
56.0000 688.0000 1.0000
56.0100 643.0000 1.0000
56.0200 707.0000 1.0000
56.0300 654.0000 1.0000
56.0400 656.0000 1.0000
56.0500 662.0000 1.0000
56.0600 646.0000 1.0000
56.0700 669.0000 1.0000
56.0800 657.0000 1.0000
56.0900 658.0000 1.0000
56.1000 642.0000 1.0000
56.1100 675.0000 1.0000
56.1200 690.0000 1.0000
56.1300 675.0000 1.0000
56.1400 701.0000 1.0000
56.1500 628.0000 1.0000
56.1600 694.0000 1.0000
56.1700 645.0000 1.0000
56.1800 629.0000 1.0000
56.1900 666.0000 1.0000
56.2000 634.0000 1.0000
56.2100 631.0000 1.0000
56.2200 696.0000 1.0000
56.2300 666.0000 1.0000
56.2400 686.0000 1.0000
56.2500 643.0000 1.0000
56.2600 657.0000 1.0000
56.2700 657.0000 1.0000
56.2800 671.0000 1.0000
56.2900 641.0000 1.0000
56.3000 650.0000 1.0000
56.3100 668.0000 1.0000
56.3200 634.0000 1.0000
56.3300 666.0000 1.0000
56.3400 637.0000 1.0000
56.3500 664.0000 1.0000
56.3600 679.0000 1.0000
56.3700 644.0000 1.0000
56.3800 651.0000 1.0000
56.3900 675.0000 1.0000
56.4000 699.0000 1.0000
56.4100 648.0000 1.0000
56.4200 679.0000 1.0000
56.4300 658.0000 1.0000
56.4400 675.0000 1.0000
56.4500 660.0000 1.0000
56.4600 613.0000 1.0000
56.4700 622.0000 1.0000
56.4800 610.0000 1.0000
56.4900 662.0000 1.0000
56.5000 677.0000 1.0000
56.5100 617.0000 1.0000
56.5200 655.0000 1.0000
56.5300 649.0000 1.0000
56.5400 666.0000 1.0000
56.5500 668.0000 1.0000
56.5600 679.0000 1.0000
56.5700 652.0000 1.0000
56.5800 679.0000 1.0000
56.5900 695.0000 1.0000
56.6000 670.0000 1.0000
56.6100 671.0000 1.0000
56.6200 668.0000 1.0000
56.6300 627.0000 1.0000
56.6400 653.0000 1.0000
56.6500 655.0000 1.0000
56.6600 636.0000 1.0000
56.6700 642.0000 1.0000
56.6800 647.0000 1.0000
56.6900 694.0000 1.0000
56.7000 675.0000 1.0000
56.7100 649.0000 1.0000
56.7200 693.0000 1.0000
56.7300 652.0000 1.0000
56.7400 665.0000 1.0000
56.7500 667.0000 1.0000
56.7600 709.0000 1.0000
56.7700 626.0000 1.0000
56.7800 692.0000 1.0000
56.7900 618.0000 1.0000
56.8000 638.0000 1.0000
56.8100 624.0000 1.0000
56.8200 681.0000 1.0000
56.8300 660.0000 1.0000
56.8400 628.0000 1.0000
56.8500 689.0000 1.0000
56.8600 671.0000 1.0000
56.8700 605.0000 1.0000
56.8800 665.0000 1.0000
56.8900 642.0000 1.0000
56.9000 655.0000 1.0000
56.9100 677.0000 1.0000
56.9200 648.0000 1.0000
56.9300 642.0000 1.0000
56.9400 684.0000 1.0000
56.9500 670.0000 1.0000
56.9600 653.0000 1.0000
56.9700 645.0000 1.0000
56.9800 681.0000 1.0000
56.9900 665.0000 1.0000
57.0000 643.0000 1.0000
57.0100 679.0000 1.0000
57.0200 639.0000 1.0000
57.0300 638.0000 1.0000
57.0400 674.0000 1.0000
57.0500 673.0000 1.0000
57.0600 663.0000 1.0000
57.0700 654.0000 1.0000
57.0800 625.0000 1.0000
57.0900 682.0000 1.0000
57.1000 662.0000 1.0000
57.1100 647.0000 1.0000
57.1200 653.0000 1.0000
57.1300 654.0000 1.0000
57.1400 606.0000 1.0000
57.1500 663.0000 1.0000
57.1600 641.0000 1.0000
57.1700 634.0000 1.0000
57.1800 645.0000 1.0000
57.1900 702.0000 1.0000
57.2000 643.0000 1.0000
57.2100 625.0000 1.0000
57.2200 655.0000 1.0000
57.2300 647.0000 1.0000
57.2400 643.0000 1.0000
57.2500 673.0000 1.0000
57.2600 625.0000 1.0000
57.2700 630.0000 1.0000
57.2800 662.0000 1.0000
57.2900 651.0000 1.0000
57.3000 665.0000 1.0000
57.3100 643.0000 1.0000
57.3200 652.0000 1.0000
57.3300 631.0000 1.0000
57.3400 658.0000 1.0000
57.3500 649.0000 1.0000
57.3600 592.0000 1.0000
57.3700 673.0000 1.0000
57.3800 673.0000 1.0000
57.3900 612.0000 1.0000
57.4000 646.0000 1.0000
57.4100 654.0000 1.0000
57.4200 633.0000 1.0000
57.4300 641.0000 1.0000
57.4400 631.0000 1.0000
57.4500 654.0000 1.0000
57.4600 677.0000 1.0000
57.4700 653.0000 1.0000
57.4800 656.0000 1.0000
57.4900 658.0000 1.0000
57.5000 636.0000 1.0000
57.5100 655.0000 1.0000
57.5200 652.0000 1.0000
57.5300 669.0000 1.0000
57.5400 683.0000 1.0000
57.5500 600.0000 1.0000
57.5600 619.0000 1.0000
57.5700 618.0000 1.0000
57.5800 628.0000 1.0000
57.5900 648.0000 1.0000
57.6000 710.0000 1.0000
57.6100 646.0000 1.0000
57.6200 678.0000 1.0000
57.6300 670.0000 1.0000
57.6400 667.0000 1.0000
57.6500 664.0000 1.0000
57.6600 635.0000 1.0000
57.6700 641.0000 1.0000
57.6800 668.0000 1.0000
57.6900 616.0000 1.0000
57.7000 646.0000 1.0000
57.7100 657.0000 1.0000
57.7200 654.0000 1.0000
57.7300 658.0000 1.0000
57.7400 661.0000 1.0000
57.7500 660.0000 1.0000
57.7600 641.0000 1.0000
57.7700 659.0000 1.0000
57.7800 638.0000 1.0000
57.7900 671.0000 1.0000
57.8000 647.0000 1.0000
57.8100 646.0000 1.0000
57.8200 606.0000 1.0000
57.8300 654.0000 1.0000
57.8400 624.0000 1.0000
57.8500 622.0000 1.0000
57.8600 631.0000 1.0000
57.8700 696.0000 1.0000
57.8800 690.0000 1.0000
57.8900 646.0000 1.0000
57.9000 683.0000 1.0000
57.9100 652.0000 1.0000
57.9200 651.0000 1.0000
57.9300 607.0000 1.0000
57.9400 659.0000 1.0000
57.9500 667.0000 1.0000
57.9600 682.0000 1.0000
57.9700 620.0000 1.0000
57.9800 616.0000 1.0000
57.9900 665.0000 1.0000
58.0000 679.0000 1.0000
58.0100 636.0000 1.0000
58.0200 664.0000 1.0000
58.0300 667.0000 1.0000
58.0400 666.0000 1.0000
58.0500 681.0000 1.0000
58.0600 648.0000 1.0000
58.0700 651.0000 1.0000
58.0800 673.0000 1.0000
58.0900 685.0000 1.0000
58.1000 654.0000 1.0000
58.1100 704.0000 1.0000
58.1200 645.0000 1.0000
58.1300 626.0000 1.0000
58.1400 675.0000 1.0000
58.1500 681.0000 1.0000
58.1600 657.0000 1.0000
58.1700 686.0000 1.0000
58.1800 694.0000 1.0000
58.1900 652.0000 1.0000
58.2000 657.0000 1.0000
58.2100 667.0000 1.0000
58.2200 678.0000 1.0000
58.2300 660.0000 1.0000
58.2400 656.0000 1.0000
58.2500 676.0000 1.0000
58.2600 658.0000 1.0000
58.2700 678.0000 1.0000
58.2800 713.0000 1.0000
58.2900 682.0000 1.0000
58.3000 676.0000 1.0000
58.3100 715.0000 1.0000
58.3200 702.0000 1.0000
58.3300 668.0000 1.0000
58.3400 667.0000 1.0000
58.3500 625.0000 1.0000
58.3600 684.0000 1.0000
58.3700 707.0000 1.0000
58.3800 688.0000 1.0000
58.3900 636.0000 1.0000
58.4000 673.0000 1.0000
58.4100 639.0000 1.0000
58.4200 634.0000 1.0000
58.4300 620.0000 1.0000
58.4400 654.0000 1.0000
58.4500 692.0000 1.0000
58.4600 643.0000 1.0000
58.4700 660.0000 1.0000
58.4800 670.0000 1.0000
58.4900 669.0000 1.0000
58.5000 667.0000 1.0000
58.5100 639.0000 1.0000
58.5200 629.0000 1.0000
58.5300 642.0000 1.0000
58.5400 630.0000 1.0000
58.5500 690.0000 1.0000
58.5600 646.0000 1.0000
58.5700 662.0000 1.0000
58.5800 645.0000 1.0000
58.5900 647.0000 1.0000
58.6000 633.0000 1.0000
58.6100 644.0000 1.0000
58.6200 665.0000 1.0000
58.6300 630.0000 1.0000
58.6400 644.0000 1.0000
58.6500 616.0000 1.0000
58.6600 648.0000 1.0000
58.6700 628.0000 1.0000
58.6800 663.0000 1.0000
58.6900 684.0000 1.0000
58.7000 661.0000 1.0000
58.7100 652.0000 1.0000
58.7200 619.0000 1.0000
58.7300 650.0000 1.0000
58.7400 649.0000 1.0000
58.7500 640.0000 1.0000
58.7600 640.0000 1.0000
58.7700 635.0000 1.0000
58.7800 625.0000 1.0000
58.7900 605.0000 1.0000
58.8000 643.0000 1.0000
58.8100 640.0000 1.0000
58.8200 631.0000 1.0000
58.8300 645.0000 1.0000
58.8400 665.0000 1.0000
58.8500 682.0000 1.0000
58.8600 634.0000 1.0000
58.8700 650.0000 1.0000
58.8800 657.0000 1.0000
58.8900 621.0000 1.0000
58.9000 642.0000 1.0000
58.9100 665.0000 1.0000
58.9200 642.0000 1.0000
58.9300 622.0000 1.0000
58.9400 628.0000 1.0000
58.9500 637.0000 1.0000
58.9600 644.0000 1.0000
58.9700 647.0000 1.0000
58.9800 670.0000 1.0000
58.9900 671.0000 1.0000
59.0000 685.0000 1.0000
59.0100 641.0000 1.0000
59.0200 635.0000 1.0000
59.0300 635.0000 1.0000
59.0400 623.0000 1.0000
59.0500 692.0000 1.0000
59.0600 678.0000 1.0000
59.0700 624.0000 1.0000
59.0800 615.0000 1.0000
59.0900 647.0000 1.0000
59.1000 637.0000 1.0000
59.1100 656.0000 1.0000
59.1200 676.0000 1.0000
59.1300 662.0000 1.0000
59.1400 653.0000 1.0000
59.1500 651.0000 1.0000
59.1600 609.0000 1.0000
59.1700 629.0000 1.0000
59.1800 650.0000 1.0000
59.1900 625.0000 1.0000
59.2000 653.0000 1.0000
59.2100 630.0000 1.0000
59.2200 660.0000 1.0000
59.2300 662.0000 1.0000
59.2400 627.0000 1.0000
59.2500 686.0000 1.0000
59.2600 660.0000 1.0000
59.2700 684.0000 1.0000
59.2800 679.0000 1.0000
59.2900 669.0000 1.0000
59.3000 625.0000 1.0000
59.3100 654.0000 1.0000
59.3200 658.0000 1.0000
59.3300 626.0000 1.0000
59.3400 675.0000 1.0000
59.3500 683.0000 1.0000
59.3600 661.0000 1.0000
59.3700 636.0000 1.0000
59.3800 654.0000 1.0000
59.3900 666.0000 1.0000
59.4000 656.0000 1.0000
59.4100 658.0000 1.0000
59.4200 658.0000 1.0000
59.4300 638.0000 1.0000
59.4400 641.0000 1.0000
59.4500 638.0000 1.0000
59.4600 709.0000 1.0000
59.4700 677.0000 1.0000
59.4800 652.0000 1.0000
59.4900 646.0000 1.0000
59.5000 621.0000 1.0000
59.5100 658.0000 1.0000
59.5200 621.0000 1.0000
59.5300 617.0000 1.0000
59.5400 633.0000 1.0000
59.5500 685.0000 1.0000
59.5600 643.0000 1.0000
59.5700 637.0000 1.0000
59.5800 648.0000 1.0000
59.5900 653.0000 1.0000
59.6000 622.0000 1.0000
59.6100 644.0000 1.0000
59.6200 624.0000 1.0000
59.6300 627.0000 1.0000
59.6400 642.0000 1.0000
59.6500 664.0000 1.0000
59.6600 655.0000 1.0000
59.6700 668.0000 1.0000
59.6800 607.0000 1.0000
59.6900 590.0000 1.0000
59.7000 618.0000 1.0000
59.7100 618.0000 1.0000
59.7200 647.0000 1.0000
59.7300 650.0000 1.0000
59.7400 679.0000 1.0000
59.7500 643.0000 1.0000
59.7600 624.0000 1.0000
59.7700 627.0000 1.0000
59.7800 678.0000 1.0000
59.7900 690.0000 1.0000
59.8000 648.0000 1.0000
59.8100 658.0000 1.0000
59.8200 655.0000 1.0000
59.8300 668.0000 1.0000
59.8400 637.0000 1.0000
59.8500 652.0000 1.0000
59.8600 654.0000 1.0000
59.8700 623.0000 1.0000
59.8800 630.0000 1.0000
59.8900 624.0000 1.0000
59.9000 659.0000 1.0000
59.9100 630.0000 1.0000
59.9200 677.0000 1.0000
59.9300 679.0000 1.0000
59.9400 641.0000 1.0000
59.9500 650.0000 1.0000
59.9600 675.0000 1.0000
59.9700 668.0000 1.0000
59.9800 626.0000 1.0000
59.9900 650.0000 1.0000
60.0000 665.0000 1.0000
60.0100 678.0000 1.0000
60.0200 640.0000 1.0000
60.0300 634.0000 1.0000
60.0400 662.0000 1.0000
60.0500 619.0000 1.0000
60.0600 634.0000 1.0000
60.0700 649.0000 1.0000
60.0800 632.0000 1.0000
60.0900 635.0000 1.0000
60.1000 630.0000 1.0000
60.1100 654.0000 1.0000
60.1200 664.0000 1.0000
60.1300 627.0000 1.0000
60.1400 676.0000 1.0000
60.1500 621.0000 1.0000
60.1600 620.0000 1.0000
60.1700 628.0000 1.0000
60.1800 663.0000 1.0000
60.1900 663.0000 1.0000
60.2000 661.0000 1.0000
60.2100 626.0000 1.0000
60.2200 636.0000 1.0000
60.2300 654.0000 1.0000
60.2400 661.0000 1.0000
60.2500 665.0000 1.0000
60.2600 660.0000 1.0000
60.2700 679.0000 1.0000
60.2800 629.0000 1.0000
60.2900 624.0000 1.0000
60.3000 614.0000 1.0000
60.3100 631.0000 1.0000
60.3200 619.0000 1.0000
60.3300 642.0000 1.0000
60.3400 664.0000 1.0000
60.3500 622.0000 1.0000
60.3600 678.0000 1.0000
60.3700 666.0000 1.0000
60.3800 626.0000 1.0000
60.3900 660.0000 1.0000
60.4000 652.0000 1.0000
60.4100 677.0000 1.0000
60.4200 616.0000 1.0000
60.4300 656.0000 1.0000
60.4400 633.0000 1.0000
60.4500 623.0000 1.0000
60.4600 662.0000 1.0000
60.4700 608.0000 1.0000
60.4800 694.0000 1.0000
60.4900 648.0000 1.0000
60.5000 638.0000 1.0000
60.5100 652.0000 1.0000
60.5200 636.0000 1.0000
60.5300 679.0000 1.0000
60.5400 692.0000 1.0000
60.5500 644.0000 1.0000
60.5600 655.0000 1.0000
60.5700 653.0000 1.0000
60.5800 653.0000 1.0000
60.5900 628.0000 1.0000
60.6000 665.0000 1.0000
60.6100 639.0000 1.0000
60.6200 660.0000 1.0000
60.6300 658.0000 1.0000
60.6400 634.0000 1.0000
60.6500 644.0000 1.0000
60.6600 619.0000 1.0000
60.6700 644.0000 1.0000
60.6800 639.0000 1.0000
60.6900 658.0000 1.0000
60.7000 646.0000 1.0000
60.7100 686.0000 1.0000
60.7200 628.0000 1.0000
60.7300 659.0000 1.0000
60.7400 654.0000 1.0000
60.7500 663.0000 1.0000
60.7600 623.0000 1.0000
60.7700 642.0000 1.0000
60.7800 669.0000 1.0000
60.7900 670.0000 1.0000
60.8000 632.0000 1.0000
60.8100 633.0000 1.0000
60.8200 610.0000 1.0000
60.8300 648.0000 1.0000
60.8400 649.0000 1.0000
60.8500 647.0000 1.0000
60.8600 684.0000 1.0000
60.8700 641.0000 1.0000
60.8800 672.0000 1.0000
60.8900 603.0000 1.0000
60.9000 623.0000 1.0000
60.9100 671.0000 1.0000
60.9200 686.0000 1.0000
60.9300 628.0000 1.0000
60.9400 664.0000 1.0000
60.9500 632.0000 1.0000
60.9600 652.0000 1.0000
60.9700 671.0000 1.0000
60.9800 663.0000 1.0000
60.9900 639.0000 1.0000
61.0000 628.0000 1.0000
61.0100 655.0000 1.0000
61.0200 633.0000 1.0000
61.0300 633.0000 1.0000
61.0400 632.0000 1.0000
61.0500 634.0000 1.0000
61.0600 603.0000 1.0000
61.0700 683.0000 1.0000
61.0800 616.0000 1.0000
61.0900 659.0000 1.0000
61.1000 652.0000 1.0000
61.1100 625.0000 1.0000
61.1200 646.0000 1.0000
61.1300 641.0000 1.0000
61.1400 657.0000 1.0000
61.1500 660.0000 1.0000
61.1600 628.0000 1.0000
61.1700 629.0000 1.0000
61.1800 635.0000 1.0000
61.1900 648.0000 1.0000
61.2000 657.0000 1.0000
61.2100 660.0000 1.0000
61.2200 641.0000 1.0000
61.2300 634.0000 1.0000
61.2400 618.0000 1.0000
61.2500 652.0000 1.0000
61.2600 651.0000 1.0000
61.2700 621.0000 1.0000
61.2800 634.0000 1.0000
61.2900 675.0000 1.0000
61.3000 648.0000 1.0000
61.3100 658.0000 1.0000
61.3200 621.0000 1.0000
61.3300 653.0000 1.0000
61.3400 651.0000 1.0000
61.3500 614.0000 1.0000
61.3600 694.0000 1.0000
61.3700 713.0000 1.0000
61.3800 690.0000 1.0000
61.3900 667.0000 1.0000
61.4000 659.0000 1.0000
61.4100 663.0000 1.0000
61.4200 665.0000 1.0000
61.4300 646.0000 1.0000
61.4400 706.0000 1.0000
61.4500 643.0000 1.0000
61.4600 636.0000 1.0000
61.4700 643.0000 1.0000
61.4800 674.0000 1.0000
61.4900 656.0000 1.0000
61.5000 677.0000 1.0000
61.5100 613.0000 1.0000
61.5200 646.0000 1.0000
61.5300 651.0000 1.0000
61.5400 671.0000 1.0000
61.5500 670.0000 1.0000
61.5600 670.0000 1.0000
61.5700 648.0000 1.0000
61.5800 665.0000 1.0000
61.5900 618.0000 1.0000
61.6000 627.0000 1.0000
61.6100 634.0000 1.0000
61.6200 661.0000 1.0000
61.6300 655.0000 1.0000
61.6400 664.0000 1.0000
61.6500 627.0000 1.0000
61.6600 694.0000 1.0000
61.6700 664.0000 1.0000
61.6800 705.0000 1.0000
61.6900 675.0000 1.0000
61.7000 652.0000 1.0000
61.7100 630.0000 1.0000
61.7200 655.0000 1.0000
61.7300 657.0000 1.0000
61.7400 626.0000 1.0000
61.7500 666.0000 1.0000
61.7600 704.0000 1.0000
61.7700 709.0000 1.0000
61.7800 692.0000 1.0000
61.7900 723.0000 1.0000
61.8000 706.0000 1.0000
61.8100 691.0000 1.0000
61.8200 724.0000 1.0000
61.8300 699.0000 1.0000
61.8400 731.0000 1.0000
61.8500 738.0000 1.0000
61.8600 726.0000 1.0000
61.8700 710.0000 1.0000
61.8800 728.0000 1.0000
61.8900 754.0000 1.0000
61.9000 719.0000 1.0000
61.9100 769.0000 1.0000
61.9200 753.0000 1.0000
61.9300 736.0000 1.0000
61.9400 775.0000 1.0000
61.9500 792.0000 1.0000
61.9600 743.0000 1.0000
61.9700 783.0000 1.0000
61.9800 775.0000 1.0000
61.9900 748.0000 1.0000
62.0000 812.0000 1.0000
62.0100 841.0000 1.0000
62.0200 856.0000 1.0000
62.0300 866.0000 1.0000
62.0400 852.0000 1.0000
62.0500 869.0000 1.0000
62.0600 964.0000 1.0000
62.0700 913.0000 1.0000
62.0800 981.0000 1.0000
62.0900 976.0000 1.0000
62.1000 992.0000 1.0000
62.1100 1010.0000 1.0000
62.1200 1010.0000 1.0000
62.1300 1080.0000 1.0000
62.1400 1122.0000 1.0000
62.1500 1151.0000 1.0000
62.1600 1132.0000 1.0000
62.1700 1171.0000 1.0000
62.1800 1187.0000 1.0000
62.1900 1202.0000 1.0000
62.2000 1296.0000 1.0000
62.2100 1356.0000 1.0000
62.2200 1375.0000 1.0000
62.2300 1417.0000 1.0000
62.2400 1394.0000 1.0000
62.2500 1497.0000 1.0000
62.2600 1543.0000 1.0000
62.2700 1463.0000 1.0000
62.2800 1437.0000 1.0000
62.2900 1515.0000 1.0000
62.3000 1437.0000 1.0000
62.3100 1413.0000 1.0000
62.3200 1458.0000 1.0000
62.3300 1460.0000 1.0000
62.3400 1431.0000 1.0000
62.3500 1478.0000 1.0000
62.3600 1473.0000 1.0000
62.3700 1465.0000 1.0000
62.3800 1496.0000 1.0000
62.3900 1412.0000 1.0000
62.4000 1439.0000 1.0000
62.4100 1377.0000 1.0000
62.4200 1387.0000 1.0000
62.4300 1375.0000 1.0000
62.4400 1333.0000 1.0000
62.4500 1369.0000 1.0000
62.4600 1299.0000 1.0000
62.4700 1262.0000 1.0000
62.4800 1337.0000 1.0000
62.4900 1243.0000 1.0000
62.5000 1185.0000 1.0000
62.5100 1158.0000 1.0000
62.5200 1182.0000 1.0000
62.5300 1154.0000 1.0000
62.5400 1148.0000 1.0000
62.5500 1103.0000 1.0000
62.5600 1065.0000 1.0000
62.5700 1022.0000 1.0000
62.5800 1006.0000 1.0000
62.5900 999.0000 1.0000
62.6000 971.0000 1.0000
62.6100 932.0000 1.0000
62.6200 947.0000 1.0000
62.6300 915.0000 1.0000
62.6400 902.0000 1.0000
62.6500 872.0000 1.0000
62.6600 811.0000 1.0000
62.6700 922.0000 1.0000
62.6800 899.0000 1.0000
62.6900 868.0000 1.0000
62.7000 844.0000 1.0000
62.7100 836.0000 1.0000
62.7200 839.0000 1.0000
62.7300 804.0000 1.0000
62.7400 827.0000 1.0000
62.7500 818.0000 1.0000
62.7600 790.0000 1.0000
62.7700 785.0000 1.0000
62.7800 776.0000 1.0000
62.7900 783.0000 1.0000
62.8000 791.0000 1.0000
62.8100 727.0000 1.0000
62.8200 700.0000 1.0000
62.8300 764.0000 1.0000
62.8400 746.0000 1.0000
62.8500 745.0000 1.0000
62.8600 805.0000 1.0000
62.8700 742.0000 1.0000
62.8800 760.0000 1.0000
62.8900 684.0000 1.0000
62.9000 757.0000 1.0000
62.9100 730.0000 1.0000
62.9200 710.0000 1.0000
62.9300 713.0000 1.0000
62.9400 748.0000 1.0000
62.9500 709.0000 1.0000
62.9600 691.0000 1.0000
62.9700 724.0000 1.0000
62.9800 740.0000 1.0000
62.9900 725.0000 1.0000
63.0000 762.0000 1.0000
63.0100 719.0000 1.0000
63.0200 725.0000 1.0000
63.0300 704.0000 1.0000
63.0400 668.0000 1.0000
63.0500 723.0000 1.0000
63.0600 721.0000 1.0000
63.0700 706.0000 1.0000
63.0800 725.0000 1.0000
63.0900 711.0000 1.0000
63.1000 698.0000 1.0000
63.1100 681.0000 1.0000
63.1200 696.0000 1.0000
63.1300 714.0000 1.0000
63.1400 715.0000 1.0000
63.1500 715.0000 1.0000
63.1600 718.0000 1.0000
63.1700 667.0000 1.0000
63.1800 694.0000 1.0000
63.1900 722.0000 1.0000
63.2000 678.0000 1.0000
63.2100 678.0000 1.0000
63.2200 699.0000 1.0000
63.2300 708.0000 1.0000
63.2400 675.0000 1.0000
63.2500 711.0000 1.0000
63.2600 699.0000 1.0000
63.2700 668.0000 1.0000
63.2800 664.0000 1.0000
63.2900 659.0000 1.0000
63.3000 679.0000 1.0000
63.3100 709.0000 1.0000
63.3200 697.0000 1.0000
63.3300 632.0000 1.0000
63.3400 660.0000 1.0000
63.3500 673.0000 1.0000
63.3600 684.0000 1.0000
63.3700 694.0000 1.0000
63.3800 719.0000 1.0000
63.3900 676.0000 1.0000
63.4000 651.0000 1.0000
63.4100 674.0000 1.0000
63.4200 703.0000 1.0000
63.4300 695.0000 1.0000
63.4400 671.0000 1.0000
63.4500 693.0000 1.0000
63.4600 676.0000 1.0000
63.4700 656.0000 1.0000
63.4800 706.0000 1.0000
63.4900 638.0000 1.0000
63.5000 624.0000 1.0000
63.5100 644.0000 1.0000
63.5200 659.0000 1.0000
63.5300 619.0000 1.0000
63.5400 639.0000 1.0000
63.5500 680.0000 1.0000
63.5600 638.0000 1.0000
63.5700 659.0000 1.0000
63.5800 662.0000 1.0000
63.5900 654.0000 1.0000
63.6000 622.0000 1.0000
63.6100 616.0000 1.0000
63.6200 642.0000 1.0000
63.6300 628.0000 1.0000
63.6400 636.0000 1.0000
63.6500 634.0000 1.0000
63.6600 661.0000 1.0000
63.6700 667.0000 1.0000
63.6800 648.0000 1.0000
63.6900 683.0000 1.0000
63.7000 659.0000 1.0000
63.7100 660.0000 1.0000
63.7200 634.0000 1.0000
63.7300 608.0000 1.0000
63.7400 642.0000 1.0000
63.7500 679.0000 1.0000
63.7600 634.0000 1.0000
63.7700 639.0000 1.0000
63.7800 648.0000 1.0000
63.7900 664.0000 1.0000
63.8000 637.0000 1.0000
63.8100 658.0000 1.0000
63.8200 664.0000 1.0000
63.8300 634.0000 1.0000
63.8400 639.0000 1.0000
63.8500 646.0000 1.0000
63.8600 624.0000 1.0000
63.8700 661.0000 1.0000
63.8800 657.0000 1.0000
63.8900 658.0000 1.0000
63.9000 678.0000 1.0000
63.9100 631.0000 1.0000
63.9200 645.0000 1.0000
63.9300 668.0000 1.0000
63.9400 654.0000 1.0000
63.9500 708.0000 1.0000
63.9600 654.0000 1.0000
63.9700 675.0000 1.0000
63.9800 649.0000 1.0000
63.9900 670.0000 1.0000
64.0000 634.0000 1.0000
64.0100 640.0000 1.0000
64.0200 680.0000 1.0000
64.0300 683.0000 1.0000
64.0400 660.0000 1.0000
64.0500 710.0000 1.0000
64.0600 656.0000 1.0000
64.0700 630.0000 1.0000
64.0800 646.0000 1.0000
64.0900 621.0000 1.0000
64.1000 653.0000 1.0000
64.1100 655.0000 1.0000
64.1200 673.0000 1.0000
64.1300 676.0000 1.0000
64.1400 675.0000 1.0000
64.1500 641.0000 1.0000
64.1600 642.0000 1.0000
64.1700 597.0000 1.0000
64.1800 610.0000 1.0000
64.1900 659.0000 1.0000
64.2000 666.0000 1.0000
64.2100 654.0000 1.0000
64.2200 671.0000 1.0000
64.2300 663.0000 1.0000
64.2400 669.0000 1.0000
64.2500 630.0000 1.0000
64.2600 673.0000 1.0000
64.2700 678.0000 1.0000
64.2800 668.0000 1.0000
64.2900 688.0000 1.0000
64.3000 653.0000 1.0000
64.3100 652.0000 1.0000
64.3200 659.0000 1.0000
64.3300 658.0000 1.0000
64.3400 633.0000 1.0000
64.3500 596.0000 1.0000
64.3600 606.0000 1.0000
64.3700 668.0000 1.0000
64.3800 637.0000 1.0000
64.3900 650.0000 1.0000
64.4000 652.0000 1.0000
64.4100 694.0000 1.0000
64.4200 688.0000 1.0000
64.4300 679.0000 1.0000
64.4400 676.0000 1.0000
64.4500 700.0000 1.0000
64.4600 697.0000 1.0000
64.4700 698.0000 1.0000
64.4800 656.0000 1.0000
64.4900 670.0000 1.0000
64.5000 726.0000 1.0000
64.5100 737.0000 1.0000
64.5200 704.0000 1.0000
64.5300 681.0000 1.0000
64.5400 730.0000 1.0000
64.5500 697.0000 1.0000
64.5600 721.0000 1.0000
64.5700 772.0000 1.0000
64.5800 775.0000 1.0000
64.5900 750.0000 1.0000
64.6000 787.0000 1.0000
64.6100 814.0000 1.0000
64.6200 782.0000 1.0000
64.6300 809.0000 1.0000
64.6400 822.0000 1.0000
64.6500 816.0000 1.0000
64.6600 829.0000 1.0000
64.6700 831.0000 1.0000
64.6800 869.0000 1.0000
64.6900 884.0000 1.0000
64.7000 880.0000 1.0000
64.7100 863.0000 1.0000
64.7200 852.0000 1.0000
64.7300 870.0000 1.0000
64.7400 837.0000 1.0000
64.7500 849.0000 1.0000
64.7600 799.0000 1.0000
64.7700 827.0000 1.0000
64.7800 779.0000 1.0000
64.7900 803.0000 1.0000
64.8000 805.0000 1.0000
64.8100 811.0000 1.0000
64.8200 809.0000 1.0000
64.8300 809.0000 1.0000
64.8400 817.0000 1.0000
64.8500 856.0000 1.0000
64.8600 815.0000 1.0000
64.8700 817.0000 1.0000
64.8800 798.0000 1.0000
64.8900 795.0000 1.0000
64.9000 799.0000 1.0000
64.9100 787.0000 1.0000
64.9200 785.0000 1.0000
64.9300 749.0000 1.0000
64.9400 743.0000 1.0000
64.9500 717.0000 1.0000
64.9600 712.0000 1.0000
64.9700 731.0000 1.0000
64.9800 710.0000 1.0000
64.9900 701.0000 1.0000
65.0000 671.0000 1.0000
65.0100 681.0000 1.0000
65.0200 712.0000 1.0000
65.0300 752.0000 1.0000
65.0400 710.0000 1.0000
65.0500 719.0000 1.0000
65.0600 712.0000 1.0000
65.0700 689.0000 1.0000
65.0800 683.0000 1.0000
65.0900 694.0000 1.0000
65.1000 679.0000 1.0000
65.1100 735.0000 1.0000
65.1200 706.0000 1.0000
65.1300 689.0000 1.0000
65.1400 684.0000 1.0000
65.1500 662.0000 1.0000
65.1600 690.0000 1.0000
65.1700 648.0000 1.0000
65.1800 686.0000 1.0000
65.1900 683.0000 1.0000
65.2000 690.0000 1.0000
65.2100 701.0000 1.0000
65.2200 699.0000 1.0000
65.2300 701.0000 1.0000
65.2400 698.0000 1.0000
65.2500 629.0000 1.0000
65.2600 673.0000 1.0000
65.2700 679.0000 1.0000
65.2800 683.0000 1.0000
65.2900 663.0000 1.0000
65.3000 649.0000 1.0000
65.3100 679.0000 1.0000
65.3200 652.0000 1.0000
65.3300 682.0000 1.0000
65.3400 657.0000 1.0000
65.3500 659.0000 1.0000
65.3600 718.0000 1.0000
65.3700 712.0000 1.0000
65.3800 689.0000 1.0000
65.3900 664.0000 1.0000
65.4000 681.0000 1.0000
65.4100 651.0000 1.0000
65.4200 649.0000 1.0000
65.4300 724.0000 1.0000
65.4400 665.0000 1.0000
65.4500 691.0000 1.0000
65.4600 691.0000 1.0000
65.4700 719.0000 1.0000
65.4800 674.0000 1.0000
65.4900 653.0000 1.0000
65.5000 687.0000 1.0000
65.5100 654.0000 1.0000
65.5200 682.0000 1.0000
65.5300 715.0000 1.0000
65.5400 714.0000 1.0000
65.5500 677.0000 1.0000
65.5600 702.0000 1.0000
65.5700 672.0000 1.0000
65.5800 675.0000 1.0000
65.5900 721.0000 1.0000
65.6000 720.0000 1.0000
65.6100 692.0000 1.0000
65.6200 701.0000 1.0000
65.6300 697.0000 1.0000
65.6400 666.0000 1.0000
65.6500 711.0000 1.0000
65.6600 747.0000 1.0000
65.6700 740.0000 1.0000
65.6800 697.0000 1.0000
65.6900 733.0000 1.0000
65.7000 706.0000 1.0000
65.7100 715.0000 1.0000
65.7200 714.0000 1.0000
65.7300 728.0000 1.0000
65.7400 702.0000 1.0000
65.7500 731.0000 1.0000
65.7600 728.0000 1.0000
65.7700 781.0000 1.0000
65.7800 671.0000 1.0000
65.7900 740.0000 1.0000
65.8000 738.0000 1.0000
65.8100 735.0000 1.0000
65.8200 788.0000 1.0000
65.8300 786.0000 1.0000
65.8400 743.0000 1.0000
65.8500 740.0000 1.0000
65.8600 806.0000 1.0000
65.8700 808.0000 1.0000
65.8800 802.0000 1.0000
65.8900 873.0000 1.0000
65.9000 816.0000 1.0000
65.9100 812.0000 1.0000
65.9200 861.0000 1.0000
65.9300 857.0000 1.0000
65.9400 926.0000 1.0000
65.9500 912.0000 1.0000
65.9600 920.0000 1.0000
65.9700 928.0000 1.0000
65.9800 965.0000 1.0000
65.9900 978.0000 1.0000
66.0000 994.0000 1.0000
66.0100 1044.0000 1.0000
66.0200 1041.0000 1.0000
66.0300 1111.0000 1.0000
66.0400 1100.0000 1.0000
66.0500 1152.0000 1.0000
66.0600 1195.0000 1.0000
66.0700 1228.0000 1.0000
66.0800 1270.0000 1.0000
66.0900 1323.0000 1.0000
66.1000 1355.0000 1.0000
66.1100 1395.0000 1.0000
66.1200 1503.0000 1.0000
66.1300 1582.0000 1.0000
66.1400 1690.0000 1.0000
66.1500 1767.0000 1.0000
66.1600 1859.0000 1.0000
66.1700 2038.0000 1.0000
66.1800 2131.0000 1.0000
66.1900 2237.0000 1.0000
66.2000 2299.0000 1.0000
66.2100 2399.0000 1.0000
66.2200 2527.0000 1.0000
66.2300 2542.0000 1.0000
66.2400 2601.0000 1.0000
66.2500 2616.0000 1.0000
66.2600 2690.0000 1.0000
66.2700 2765.0000 1.0000
66.2800 2784.0000 1.0000
66.2900 2703.0000 1.0000
66.3000 2715.0000 1.0000
66.3100 2628.0000 1.0000
66.3200 2597.0000 1.0000
66.3300 2572.0000 1.0000
66.3400 2548.0000 1.0000
66.3500 2430.0000 1.0000
66.3600 2455.0000 1.0000
66.3700 2393.0000 1.0000
66.3800 2344.0000 1.0000
66.3900 2298.0000 1.0000
66.4000 2323.0000 1.0000
66.4100 2260.0000 1.0000
66.4200 2226.0000 1.0000
66.4300 2177.0000 1.0000
66.4400 2097.0000 1.0000
66.4500 2109.0000 1.0000
66.4600 2090.0000 1.0000
66.4700 2000.0000 1.0000
66.4800 1924.0000 1.0000
66.4900 1892.0000 1.0000
66.5000 1774.0000 1.0000
66.5100 1712.0000 1.0000
66.5200 1684.0000 1.0000
66.5300 1516.0000 1.0000
66.5400 1553.0000 1.0000
66.5500 1439.0000 1.0000
66.5600 1398.0000 1.0000
66.5700 1330.0000 1.0000
66.5800 1291.0000 1.0000
66.5900 1261.0000 1.0000
66.6000 1175.0000 1.0000
66.6100 1147.0000 1.0000
66.6200 1144.0000 1.0000
66.6300 1114.0000 1.0000
66.6400 1080.0000 1.0000
66.6500 1058.0000 1.0000
66.6600 1014.0000 1.0000
66.6700 961.0000 1.0000
66.6800 967.0000 1.0000
66.6900 937.0000 1.0000
66.7000 932.0000 1.0000
66.7100 881.0000 1.0000
66.7200 939.0000 1.0000
66.7300 931.0000 1.0000
66.7400 893.0000 1.0000
66.7500 827.0000 1.0000
66.7600 855.0000 1.0000
66.7700 801.0000 1.0000
66.7800 798.0000 1.0000
66.7900 811.0000 1.0000
66.8000 778.0000 1.0000
66.8100 772.0000 1.0000
66.8200 743.0000 1.0000
66.8300 741.0000 1.0000
66.8400 736.0000 1.0000
66.8500 745.0000 1.0000
66.8600 752.0000 1.0000
66.8700 733.0000 1.0000
66.8800 736.0000 1.0000
66.8900 746.0000 1.0000
66.9000 685.0000 1.0000
66.9100 690.0000 1.0000
66.9200 679.0000 1.0000
66.9300 734.0000 1.0000
66.9400 712.0000 1.0000
66.9500 681.0000 1.0000
66.9600 705.0000 1.0000
66.9700 669.0000 1.0000
66.9800 706.0000 1.0000
66.9900 628.0000 1.0000
67.0000 688.0000 1.0000
67.0100 692.0000 1.0000
67.0200 692.0000 1.0000
67.0300 639.0000 1.0000
67.0400 646.0000 1.0000
67.0500 649.0000 1.0000
67.0600 650.0000 1.0000
67.0700 666.0000 1.0000
67.0800 644.0000 1.0000
67.0900 651.0000 1.0000
67.1000 703.0000 1.0000
67.1100 688.0000 1.0000
67.1200 705.0000 1.0000
67.1300 651.0000 1.0000
67.1400 627.0000 1.0000
67.1500 654.0000 1.0000
67.1600 660.0000 1.0000
67.1700 635.0000 1.0000
67.1800 655.0000 1.0000
67.1900 647.0000 1.0000
67.2000 634.0000 1.0000
67.2100 634.0000 1.0000
67.2200 657.0000 1.0000
67.2300 599.0000 1.0000
67.2400 633.0000 1.0000
67.2500 650.0000 1.0000
67.2600 687.0000 1.0000
67.2700 664.0000 1.0000
67.2800 624.0000 1.0000
67.2900 630.0000 1.0000
67.3000 638.0000 1.0000
67.3100 638.0000 1.0000
67.3200 616.0000 1.0000
67.3300 648.0000 1.0000
67.3400 637.0000 1.0000
67.3500 619.0000 1.0000
67.3600 648.0000 1.0000
67.3700 614.0000 1.0000
67.3800 618.0000 1.0000
67.3900 645.0000 1.0000
67.4000 631.0000 1.0000
67.4100 624.0000 1.0000
67.4200 621.0000 1.0000
67.4300 630.0000 1.0000
67.4400 622.0000 1.0000
67.4500 604.0000 1.0000
67.4600 641.0000 1.0000
67.4700 639.0000 1.0000
67.4800 648.0000 1.0000
67.4900 621.0000 1.0000
67.5000 625.0000 1.0000
67.5100 609.0000 1.0000
67.5200 603.0000 1.0000
67.5300 644.0000 1.0000
67.5400 622.0000 1.0000
67.5500 623.0000 1.0000
67.5600 619.0000 1.0000
67.5700 614.0000 1.0000
67.5800 604.0000 1.0000
67.5900 618.0000 1.0000
67.6000 642.0000 1.0000
67.6100 606.0000 1.0000
67.6200 621.0000 1.0000
67.6300 620.0000 1.0000
67.6400 635.0000 1.0000
67.6500 604.0000 1.0000
67.6600 607.0000 1.0000
67.6700 564.0000 1.0000
67.6800 621.0000 1.0000
67.6900 646.0000 1.0000
67.7000 569.0000 1.0000
67.7100 603.0000 1.0000
67.7200 586.0000 1.0000
67.7300 610.0000 1.0000
67.7400 623.0000 1.0000
67.7500 592.0000 1.0000
67.7600 650.0000 1.0000
67.7700 658.0000 1.0000
67.7800 620.0000 1.0000
67.7900 592.0000 1.0000
67.8000 572.0000 1.0000
67.8100 659.0000 1.0000
67.8200 624.0000 1.0000
67.8300 581.0000 1.0000
67.8400 605.0000 1.0000
67.8500 598.0000 1.0000
67.8600 650.0000 1.0000
67.8700 611.0000 1.0000
67.8800 625.0000 1.0000
67.8900 597.0000 1.0000
67.9000 566.0000 1.0000
67.9100 597.0000 1.0000
67.9200 591.0000 1.0000
67.9300 602.0000 1.0000
67.9400 609.0000 1.0000
67.9500 622.0000 1.0000
67.9600 609.0000 1.0000
67.9700 570.0000 1.0000
67.9800 586.0000 1.0000
67.9900 578.0000 1.0000
68.0000 589.0000 1.0000
68.0100 616.0000 1.0000
68.0200 598.0000 1.0000
68.0300 593.0000 1.0000
68.0400 623.0000 1.0000
68.0500 606.0000 1.0000
68.0600 633.0000 1.0000
68.0700 637.0000 1.0000
68.0800 575.0000 1.0000
68.0900 613.0000 1.0000
68.1000 621.0000 1.0000
68.1100 592.0000 1.0000
68.1200 611.0000 1.0000
68.1300 545.0000 1.0000
68.1400 576.0000 1.0000
68.1500 575.0000 1.0000
68.1600 570.0000 1.0000
68.1700 623.0000 1.0000
68.1800 613.0000 1.0000
68.1900 582.0000 1.0000
68.2000 633.0000 1.0000
68.2100 616.0000 1.0000
68.2200 602.0000 1.0000
68.2300 588.0000 1.0000
68.2400 590.0000 1.0000
68.2500 570.0000 1.0000
68.2600 581.0000 1.0000
68.2700 579.0000 1.0000
68.2800 637.0000 1.0000
68.2900 620.0000 1.0000
68.3000 620.0000 1.0000
68.3100 594.0000 1.0000
68.3200 593.0000 1.0000
68.3300 599.0000 1.0000
68.3400 590.0000 1.0000
68.3500 563.0000 1.0000
68.3600 599.0000 1.0000
68.3700 567.0000 1.0000
68.3800 619.0000 1.0000
68.3900 616.0000 1.0000
68.4000 573.0000 1.0000
68.4100 609.0000 1.0000
68.4200 611.0000 1.0000
68.4300 616.0000 1.0000
68.4400 621.0000 1.0000
68.4500 544.0000 1.0000
68.4600 615.0000 1.0000
68.4700 592.0000 1.0000
68.4800 594.0000 1.0000
68.4900 574.0000 1.0000
68.5000 621.0000 1.0000
68.5100 606.0000 1.0000
68.5200 583.0000 1.0000
68.5300 622.0000 1.0000
68.5400 596.0000 1.0000
68.5500 594.0000 1.0000
68.5600 602.0000 1.0000
68.5700 616.0000 1.0000
68.5800 556.0000 1.0000
68.5900 567.0000 1.0000
68.6000 593.0000 1.0000
68.6100 567.0000 1.0000
68.6200 591.0000 1.0000
68.6300 604.0000 1.0000
68.6400 552.0000 1.0000
68.6500 568.0000 1.0000
68.6600 612.0000 1.0000
68.6700 581.0000 1.0000
68.6800 594.0000 1.0000
68.6900 614.0000 1.0000
68.7000 615.0000 1.0000
68.7100 603.0000 1.0000
68.7200 574.0000 1.0000
68.7300 560.0000 1.0000
68.7400 589.0000 1.0000
68.7500 569.0000 1.0000
68.7600 603.0000 1.0000
68.7700 590.0000 1.0000
68.7800 589.0000 1.0000
68.7900 576.0000 1.0000
68.8000 586.0000 1.0000
68.8100 564.0000 1.0000
68.8200 563.0000 1.0000
68.8300 601.0000 1.0000
68.8400 610.0000 1.0000
68.8500 623.0000 1.0000
68.8600 583.0000 1.0000
68.8700 632.0000 1.0000
68.8800 579.0000 1.0000
68.8900 609.0000 1.0000
68.9000 584.0000 1.0000
68.9100 555.0000 1.0000
68.9200 557.0000 1.0000
68.9300 540.0000 1.0000
68.9400 599.0000 1.0000
68.9500 594.0000 1.0000
68.9600 622.0000 1.0000
68.9700 588.0000 1.0000
68.9800 560.0000 1.0000
68.9900 577.0000 1.0000
69.0000 600.0000 1.0000
69.0100 612.0000 1.0000
69.0200 579.0000 1.0000
69.0300 597.0000 1.0000
69.0400 531.0000 1.0000
69.0500 638.0000 1.0000
69.0600 611.0000 1.0000
69.0700 608.0000 1.0000
69.0800 593.0000 1.0000
69.0900 585.0000 1.0000
69.1000 591.0000 1.0000
69.1100 587.0000 1.0000
69.1200 581.0000 1.0000
69.1300 612.0000 1.0000
69.1400 602.0000 1.0000
69.1500 590.0000 1.0000
69.1600 598.0000 1.0000
69.1700 575.0000 1.0000
69.1800 562.0000 1.0000
69.1900 586.0000 1.0000
69.2000 593.0000 1.0000
69.2100 568.0000 1.0000
69.2200 568.0000 1.0000
69.2300 592.0000 1.0000
69.2400 596.0000 1.0000
69.2500 596.0000 1.0000
69.2600 585.0000 1.0000
69.2700 595.0000 1.0000
69.2800 589.0000 1.0000
69.2900 587.0000 1.0000
69.3000 551.0000 1.0000
69.3100 593.0000 1.0000
69.3200 629.0000 1.0000
69.3300 585.0000 1.0000
69.3400 569.0000 1.0000
69.3500 596.0000 1.0000
69.3600 563.0000 1.0000
69.3700 548.0000 1.0000
69.3800 561.0000 1.0000
69.3900 558.0000 1.0000
69.4000 565.0000 1.0000
69.4100 611.0000 1.0000
69.4200 583.0000 1.0000
69.4300 604.0000 1.0000
69.4400 563.0000 1.0000
69.4500 565.0000 1.0000
69.4600 577.0000 1.0000
69.4700 575.0000 1.0000
69.4800 588.0000 1.0000
69.4900 593.0000 1.0000
69.5000 571.0000 1.0000
69.5100 627.0000 1.0000
69.5200 593.0000 1.0000
69.5300 596.0000 1.0000
69.5400 581.0000 1.0000
69.5500 619.0000 1.0000
69.5600 611.0000 1.0000
69.5700 556.0000 1.0000
69.5800 623.0000 1.0000
69.5900 589.0000 1.0000
69.6000 597.0000 1.0000
69.6100 603.0000 1.0000
69.6200 620.0000 1.0000
69.6300 585.0000 1.0000
69.6400 576.0000 1.0000
69.6500 574.0000 1.0000
69.6600 586.0000 1.0000
69.6700 576.0000 1.0000
69.6800 556.0000 1.0000
69.6900 603.0000 1.0000
69.7000 626.0000 1.0000
69.7100 576.0000 1.0000
69.7200 593.0000 1.0000
69.7300 573.0000 1.0000
69.7400 605.0000 1.0000
69.7500 568.0000 1.0000
69.7600 609.0000 1.0000
69.7700 604.0000 1.0000
69.7800 568.0000 1.0000
69.7900 586.0000 1.0000
69.8000 562.0000 1.0000
69.8100 577.0000 1.0000
69.8200 567.0000 1.0000
69.8300 570.0000 1.0000
69.8400 598.0000 1.0000
69.8500 584.0000 1.0000
69.8600 552.0000 1.0000
69.8700 557.0000 1.0000
69.8800 532.0000 1.0000
69.8900 601.0000 1.0000
69.9000 565.0000 1.0000
69.9100 563.0000 1.0000
69.9200 566.0000 1.0000
69.9300 595.0000 1.0000
69.9400 583.0000 1.0000
69.9500 574.0000 1.0000
69.9600 540.0000 1.0000
69.9700 559.0000 1.0000
69.9800 581.0000 1.0000
69.9900 545.0000 1.0000
70.0000 577.0000 1.0000
*RAS_INT_END
*RAS_TEMPERATURE_START
*RAS_TEMPERATURE_END
*RAS_DATA_END
