*RAS_DATA_START
*RAS_HEADER_START
*DISP_FMT_X "%.2f"
*DISP_FMT_Y "%.0f"
*DISP_FULLSCALE "12890.0000000000"
*DISP_LINE_COLOR "255.0000000000"
*DISP_LINE_STYLE "0.0000000000"
*DISP_LINE_WIDTH "0.2500000000"
*DISP_NOTE "測定データ-6"
*DISP_OFFSET_Y "0.0000000000"
*DISP_PEAKSEARCH_UNIT_Y "cps"
*DISP_RANGE_BOTTOM "0.0000000000"
*DISP_RANGE_LEFT "20.0000000000"
*DISP_RANGE_LOGCUTOFF "0.0100000000"
*DISP_RANGE_RIGHT "70.0000000000"
*DISP_RANGE_TOP "12890.0000000000"
*DISP_SCALE_MODE_Y "0.0000000000"
*DISP_TAB_NAME "2θ/θ"
*DISP_TITLE_Y "強度"
*DISP_UNIT_Y "cps"
*DISP_WINDOW_NAME "MSG_MACROENGINE"
*FILE_COMMENT " "
*FILE_MD5 ""
*FILE_MEMO " "
*FILE_OPERATOR "Administrator"
*FILE_SAMPLE " "
*FILE_TYPE "RAS_RAW"
*FILE_USERGROUP "システムマネージャ"
*FILE_VERSION "1.0000000000"
*HW_ATTACHMENT_ID "ATT0025"
*HW_ATTACHMENT_NAME "標準|Standard"
*HW_COUNTER_ID-0 "CUT0025"
*HW_COUNTER_ID-1 "CUT0020"
*HW_COUNTER_ID-2 "CUT0020"
*HW_COUNTER_ID-3 "CSL0021"
*HW_COUNTER_ID-4 "CMC0021"
*HW_COUNTER_NAME-0 "D/teX Ultra|D/teX Ultra"
*HW_COUNTER_NAME-1 "None|None"
*HW_COUNTER_NAME-2 "None|None"
*HW_COUNTER_NAME-3 "BBM|BBM"
*HW_COUNTER_NAME-4 "検出器モノクロメータ|Detector monochromator"
*HW_COUNTER_SELECT_NAME "D/teX Ultra|D/teX Ultra"
*HW_GONIOMETER_ID "GON0023"
*HW_GONIOMETER_NAME "SmartLab|SmartLab"
*HW_GONIOMETER_RADIUS-0 "90.0"
*HW_GONIOMETER_RADIUS-1 "114.0"
*HW_GONIOMETER_RADIUS-2 "190.0"
*HW_GONIOMETER_RADIUS-3 "300.0"
*HW_GONIOMETER_RADIUS-4 "187.0"
*HW_GONIOMETER_RADIUS-5 "300.0"
*HW_GONIOMETER_RADIUS-6 "113.0"
*HW_GONIOMETER_RADIUS-7 "331.0"
*HW_I_OPT_ID-0 "CBO0021"
*HW_I_OPT_ID-1 "ICR0023"
*HW_I_OPT_ID-2 "ISL0021"
*HW_I_OPT_ID-3 "ISO0021"
*HW_I_OPT_ID-4 "IAD0021"
*HW_I_OPT_ID-5 "IPR0001"
*HW_I_OPT_NAME-0 "CBOユニット|CBO unit"
*HW_I_OPT_NAME-1 "標準入射光学ユニット|Standard incident optical unit"
*HW_I_OPT_NAME-2 "標準入射スリットボックス|Standard incident slit box"
*HW_I_OPT_NAME-3 "入射平行スリット|Incident parallel slit"
*HW_I_OPT_NAME-4 "長手制限スリット|Length limiting slit"
*HW_I_OPT_NAME-5 "None|None"
*HW_R_ATTENUATER_AUTOMODE "0"
*HW_R_OPT_ID-0 "RSS0021"
*HW_R_OPT_ID-1 "RCR0023"
*HW_R_OPT_ID-2 "RSO0021"
*HW_R_OPT_ID-3 "RRS0021"
*HW_R_OPT_ID-4 "ATN0021"
*HW_R_OPT_ID-5 "RFL0021"
*HW_R_OPT_ID-6 "RAD0021"
*HW_R_OPT_NAME-0 "標準受光スリットボックス1|Standard receiving slit box # 1"
*HW_R_OPT_NAME-1 "標準受光光学ユニット1|Standard receiving unit # 1"
*HW_R_OPT_NAME-2 "標準受光光学ユニット2|Standard receiving optical unit # 2"
*HW_R_OPT_NAME-3 "標準受光スリットボックス2|Standard receiving slit box # 2"
*HW_R_OPT_NAME-4 "標準アッテネータ|Standard Attenuator"
*HW_R_OPT_NAME-5 "Cu Kβ|Cu K-beta"
*HW_R_OPT_NAME-6 "調整用受光スリット|Alignment receiving slit"
*HW_SAMPLE_HOLDER_ID "SMP0023"
*HW_SAMPLE_HOLDER_NAME "標準Zステージ|Standard Z stage"
*HW_XG_CURRENT_MAX "50"
*HW_XG_CURRENT_MIN "2"
*HW_XG_CURRENT_RESOLUTION "1"
*HW_XG_CURRENT_UNIT "mA"
*HW_XG_FOCUS "1mm x 10mm"
*HW_XG_FOCUS_TYPE "Normal"
*HW_XG_ID ""
*HW_XG_NAME "3kW 封入管(ID:1200)|3kW Sealed tube(ID:1200)"
*HW_XG_TARGET_ATOMIC_NUMBER "29.0000000000"
*HW_XG_TARGET_NAME "Cu"
*HW_XG_TYPE "Hermetic"
*HW_XG_VOLTAGE_MAX "60"
*HW_XG_VOLTAGE_MIN "20"
*HW_XG_VOLTAGE_RESOLUTION "1"
*HW_XG_VOLTAGE_UNIT "kV"
*HW_XG_WATT_MAX "1.500"
*HW_XG_WATT_UNIT "kW"
*HW_XG_WAVE_LENGTH_ALPHA1 "1.540593"
*HW_XG_WAVE_LENGTH_ALPHA2 "1.544414"
*HW_XG_WAVE_LENGTH_BETA "1.392250"
*MEAS_COND_AXIS_NAME-0 "2θ/θ"
*MEAS_COND_AXIS_NAME-1 "2θ"
*MEAS_COND_AXIS_NAME-2 "ω"
*MEAS_COND_AXIS_NAME-3 "Z"
*MEAS_COND_AXIS_NAME-4 "2θ/ω"
*MEAS_COND_AXIS_NAME-5 "θs"
*MEAS_COND_AXIS_NAME-6 "θd"
*MEAS_COND_AXIS_NAME-7 "Ts"
*MEAS_COND_AXIS_NAME-8 "CBO選択スリット"
*MEAS_COND_AXIS_NAME-9 "M"
*MEAS_COND_AXIS_NAME-10 "入射平行スリット"
*MEAS_COND_AXIS_NAME-11 "入射スリット"
*MEAS_COND_AXIS_NAME-12 ""
*MEAS_COND_AXIS_NAME-13 "Zs"
*MEAS_COND_AXIS_NAME-14 "入射光学素子"
*MEAS_COND_AXIS_NAME-15 "長手制限スリット"
*MEAS_COND_AXIS_NAME-16 "センタースリット"
*MEAS_COND_AXIS_NAME-17 "フィルター"
*MEAS_COND_AXIS_NAME-18 "受光スリット1"
*MEAS_COND_AXIS_NAME-19 "受光スリット2"
*MEAS_COND_AXIS_NAME-20 "受光光学素子"
*MEAS_COND_AXIS_NAME-21 "受光平行スリット"
*MEAS_COND_AXIS_NAME-22 "調整用受光スリット"
*MEAS_COND_AXIS_NAME-23 ""
*MEAS_COND_AXIS_NAME-24 ""
*MEAS_COND_AXIS_NAME-25 "Zd"
*MEAS_COND_AXIS_NAME-26 "アッテネータ"
*MEAS_COND_AXIS_NAME-27 "検出器モノクロメータ"
*MEAS_COND_AXIS_NAME-28 "モノクロメータスリット"
*MEAS_COND_AXIS_NAME-29 "プライマリビーム"
*MEAS_COND_AXIS_NAME-30 "PHA"
*MEAS_COND_AXIS_NAME_INTERNAL-0 "TwoThetaTheta"
*MEAS_COND_AXIS_NAME_INTERNAL-1 "TwoTheta"
*MEAS_COND_AXIS_NAME_INTERNAL-2 "Omega"
*MEAS_COND_AXIS_NAME_INTERNAL-3 "Z"
*MEAS_COND_AXIS_NAME_INTERNAL-4 "TwoThetaOmega"
*MEAS_COND_AXIS_NAME_INTERNAL-5 "ThetaS"
*MEAS_COND_AXIS_NAME_INTERNAL-6 "ThetaD"
*MEAS_COND_AXIS_NAME_INTERNAL-7 "Ts"
*MEAS_COND_AXIS_NAME_INTERNAL-8 "CBO"
*MEAS_COND_AXIS_NAME_INTERNAL-9 "CBO-M"
*MEAS_COND_AXIS_NAME_INTERNAL-10 "IncidentSollerSlit"
*MEAS_COND_AXIS_NAME_INTERNAL-11 "IncidentSlitBox"
*MEAS_COND_AXIS_NAME_INTERNAL-12 "IncidentSlitBox-_Axis"
*MEAS_COND_AXIS_NAME_INTERNAL-13 "Zs"
*MEAS_COND_AXIS_NAME_INTERNAL-14 "IncidentMonochromator"
*MEAS_COND_AXIS_NAME_INTERNAL-15 "IncidentAxdSlit"
*MEAS_COND_AXIS_NAME_INTERNAL-16 "CenterSlit"
*MEAS_COND_AXIS_NAME_INTERNAL-17 "Filter"
*MEAS_COND_AXIS_NAME_INTERNAL-18 "ReceivingSlitBox1"
*MEAS_COND_AXIS_NAME_INTERNAL-19 "ReceivingSlitBox2"
*MEAS_COND_AXIS_NAME_INTERNAL-20 "ReceivingOptics"
*MEAS_COND_AXIS_NAME_INTERNAL-21 "ReceivingSollerSlit"
*MEAS_COND_AXIS_NAME_INTERNAL-22 "ReceivingAxdSlit"
*MEAS_COND_AXIS_NAME_INTERNAL-23 "ReceivingSlitBox1-_Axis"
*MEAS_COND_AXIS_NAME_INTERNAL-24 "ReceivingSlitBox2-_Axis"
*MEAS_COND_AXIS_NAME_INTERNAL-25 "ReceivingSlitBox2-Zd"
*MEAS_COND_AXIS_NAME_INTERNAL-26 "Attenuator"
*MEAS_COND_AXIS_NAME_INTERNAL-27 "CounterMonochromator"
*MEAS_COND_AXIS_NAME_INTERNAL-28 "CounterSlit"
*MEAS_COND_AXIS_NAME_INTERNAL-29 "IncidentPrimary"
*MEAS_COND_AXIS_NAME_INTERNAL-30 "PHA"
*MEAS_COND_AXIS_NAME_MAGICNO-0 "83951616.0000000000"
*MEAS_COND_AXIS_NAME_MAGICNO-1 "268632064.0000000000"
*MEAS_COND_AXIS_NAME_MAGICNO-2 "268500992.0000000000"
*MEAS_COND_AXIS_NAME_MAGICNO-3 "285278208.0000000000"
*MEAS_COND_AXIS_NAME_MAGICNO-4 "83951616.0000000000"
*MEAS_COND_AXIS_NAME_MAGICNO-5 "131072.0000000000"
*MEAS_COND_AXIS_NAME_MAGICNO-6 "131072.0000000000"
*MEAS_COND_AXIS_NAME_MAGICNO-7 "318898176.0000000000"
*MEAS_COND_AXIS_NAME_MAGICNO-8 "20971521.0000000000"
*MEAS_COND_AXIS_NAME_MAGICNO-9 "285343744.0000000000"
*MEAS_COND_AXIS_NAME_MAGICNO-10 "20971521.0000000000"
*MEAS_COND_AXIS_NAME_MAGICNO-11 "22020097.0000000000"
*MEAS_COND_AXIS_NAME_MAGICNO-12 "25165824.0000000000"
*MEAS_COND_AXIS_NAME_MAGICNO-13 "318898176.0000000000"
*MEAS_COND_AXIS_NAME_MAGICNO-14 "1.0000000000"
*MEAS_COND_AXIS_NAME_MAGICNO-15 "20971521.0000000000"
*MEAS_COND_AXIS_NAME_MAGICNO-16 "20971521.0000000000"
*MEAS_COND_AXIS_NAME_MAGICNO-17 "20971521.0000000000"
*MEAS_COND_AXIS_NAME_MAGICNO-18 "23068673.0000000000"
*MEAS_COND_AXIS_NAME_MAGICNO-19 "23068673.0000000000"
*MEAS_COND_AXIS_NAME_MAGICNO-20 "20971521.0000000000"
*MEAS_COND_AXIS_NAME_MAGICNO-21 "20971521.0000000000"
*MEAS_COND_AXIS_NAME_MAGICNO-22 "20971521.0000000000"
*MEAS_COND_AXIS_NAME_MAGICNO-23 "25165824.0000000000"
*MEAS_COND_AXIS_NAME_MAGICNO-24 "25165824.0000000000"
*MEAS_COND_AXIS_NAME_MAGICNO-25 "285343744.0000000000"
*MEAS_COND_AXIS_NAME_MAGICNO-26 "17301505.0000000000"
*MEAS_COND_AXIS_NAME_MAGICNO-27 "20971521.0000000000"
*MEAS_COND_AXIS_NAME_MAGICNO-28 "20971521.0000000000"
*MEAS_COND_AXIS_NAME_MAGICNO-29 "20971521.0000000000"
*MEAS_COND_AXIS_NAME_MAGICNO-30 "0.0000000000"
*MEAS_COND_AXIS_OFFSET-0 "-"
*MEAS_COND_AXIS_OFFSET-1 "-0.1081000000"
*MEAS_COND_AXIS_OFFSET-2 "0.3758000000"
*MEAS_COND_AXIS_OFFSET-3 "-"
*MEAS_COND_AXIS_OFFSET-4 "-"
*MEAS_COND_AXIS_OFFSET-5 "0.3758000000"
*MEAS_COND_AXIS_OFFSET-6 "-0.4839000000"
*MEAS_COND_AXIS_OFFSET-7 "-"
*MEAS_COND_AXIS_OFFSET-8 "-"
*MEAS_COND_AXIS_OFFSET-9 "-"
*MEAS_COND_AXIS_OFFSET-10 "-"
*MEAS_COND_AXIS_OFFSET-11 "-"
*MEAS_COND_AXIS_OFFSET-12 "-"
*MEAS_COND_AXIS_OFFSET-13 "-"
*MEAS_COND_AXIS_OFFSET-14 "-"
*MEAS_COND_AXIS_OFFSET-15 "-"
*MEAS_COND_AXIS_OFFSET-16 "-"
*MEAS_COND_AXIS_OFFSET-17 "-"
*MEAS_COND_AXIS_OFFSET-18 "-"
*MEAS_COND_AXIS_OFFSET-19 "-"
*MEAS_COND_AXIS_OFFSET-20 "-"
*MEAS_COND_AXIS_OFFSET-21 "-"
*MEAS_COND_AXIS_OFFSET-22 "-"
*MEAS_COND_AXIS_OFFSET-23 "-"
*MEAS_COND_AXIS_OFFSET-24 "-"
*MEAS_COND_AXIS_OFFSET-25 "-"
*MEAS_COND_AXIS_OFFSET-26 "-"
*MEAS_COND_AXIS_OFFSET-27 "-"
*MEAS_COND_AXIS_OFFSET-28 "-"
*MEAS_COND_AXIS_OFFSET-29 "-"
*MEAS_COND_AXIS_OFFSET-30 "-"
*MEAS_COND_AXIS_POSITION-0 "0.0000000000"
*MEAS_COND_AXIS_POSITION-1 "0.0000000000"
*MEAS_COND_AXIS_POSITION-2 "0.0000000000"
*MEAS_COND_AXIS_POSITION-3 "-0.5500000000"
*MEAS_COND_AXIS_POSITION-4 "0.0000000000"
*MEAS_COND_AXIS_POSITION-5 "0.0000000000"
*MEAS_COND_AXIS_POSITION-6 "0.0000000000"
*MEAS_COND_AXIS_POSITION-7 "-0.4278800000"
*MEAS_COND_AXIS_POSITION-8 "BB"
*MEAS_COND_AXIS_POSITION-9 "0.0000000000"
*MEAS_COND_AXIS_POSITION-10 "Soller_slit_5.0deg"
*MEAS_COND_AXIS_POSITION-11 "2/3deg"
*MEAS_COND_AXIS_POSITION-12 "2.2088000000"
*MEAS_COND_AXIS_POSITION-13 "-0.4140600000"
*MEAS_COND_AXIS_POSITION-14 "0.0000000000"
*MEAS_COND_AXIS_POSITION-15 "10.0mm"
*MEAS_COND_AXIS_POSITION-16 "None"
*MEAS_COND_AXIS_POSITION-17 "Cu_K-beta"
*MEAS_COND_AXIS_POSITION-18 "13.000mm"
*MEAS_COND_AXIS_POSITION-19 "13.000mm"
*MEAS_COND_AXIS_POSITION-20 "No_unit"
*MEAS_COND_AXIS_POSITION-21 "Soller_slit_5.0deg"
*MEAS_COND_AXIS_POSITION-22 "None"
*MEAS_COND_AXIS_POSITION-23 "13.0000000000"
*MEAS_COND_AXIS_POSITION-24 "13.0000000000"
*MEAS_COND_AXIS_POSITION-25 "0.0109400000"
*MEAS_COND_AXIS_POSITION-26 "Open"
*MEAS_COND_AXIS_POSITION-27 "None"
*MEAS_COND_AXIS_POSITION-28 "None"
*MEAS_COND_AXIS_POSITION-29 "None"
*MEAS_COND_AXIS_POSITION-30 "38.0000000000"
*MEAS_COND_AXIS_UNIT-0 "deg"
*MEAS_COND_AXIS_UNIT-1 "deg"
*MEAS_COND_AXIS_UNIT-2 "deg"
*MEAS_COND_AXIS_UNIT-3 "mm"
*MEAS_COND_AXIS_UNIT-4 "deg"
*MEAS_COND_AXIS_UNIT-5 "deg"
*MEAS_COND_AXIS_UNIT-6 "deg"
*MEAS_COND_AXIS_UNIT-7 "mm"
*MEAS_COND_AXIS_UNIT-8 ""
*MEAS_COND_AXIS_UNIT-9 "pulse"
*MEAS_COND_AXIS_UNIT-10 ""
*MEAS_COND_AXIS_UNIT-11 ""
*MEAS_COND_AXIS_UNIT-12 "mm"
*MEAS_COND_AXIS_UNIT-13 "mm"
*MEAS_COND_AXIS_UNIT-14 ""
*MEAS_COND_AXIS_UNIT-15 ""
*MEAS_COND_AXIS_UNIT-16 ""
*MEAS_COND_AXIS_UNIT-17 ""
*MEAS_COND_AXIS_UNIT-18 ""
*MEAS_COND_AXIS_UNIT-19 ""
*MEAS_COND_AXIS_UNIT-20 ""
*MEAS_COND_AXIS_UNIT-21 ""
*MEAS_COND_AXIS_UNIT-22 ""
*MEAS_COND_AXIS_UNIT-23 "mm"
*MEAS_COND_AXIS_UNIT-24 "mm"
*MEAS_COND_AXIS_UNIT-25 "mm"
*MEAS_COND_AXIS_UNIT-26 ""
*MEAS_COND_AXIS_UNIT-27 ""
*MEAS_COND_AXIS_UNIT-28 ""
*MEAS_COND_AXIS_UNIT-29 ""
*MEAS_COND_AXIS_UNIT-30 "div"
*MEAS_COND_COUNTER_CNTLOSS_CORR "0.0000000000"
*MEAS_COND_COUNTER_PHABASE "38.0000000000"
*MEAS_COND_COUNTER_PHAWINDOW "16.0000000000"
*MEAS_COND_COUNTER_PHA_UNIT "div"
*MEAS_COND_COUNTER_TAUDIFF "30.0000000000"
*MEAS_COND_COUNTER_TAUINT "0.0000000000"
*MEAS_COND_IRRADIATION_MODE "OFF"
*MEAS_COND_IRRADIATION_WIDTH ""
*MEAS_COND_OPT_ATTR "集中法"
*MEAS_COND_OPT_NAME "@集中法"
*MEAS_COND_UNSYMMETRIC_MODE "OFF"
*MEAS_COND_XG_CURRENT "30.0000000000"
*MEAS_COND_XG_VOLTAGE "40.0000000000"
*MEAS_COND_XG_WAVE_TYPE "Ka"
*MEAS_DATA_COUNT "5001.0000000000"
*MEAS_SCAN_AXIS_X "2θ/θ"
*MEAS_SCAN_AXIS_X_INTERNAL "TwoThetaTheta"
*MEAS_SCAN_END_TIME "07/14/21 16:44:32"
*MEAS_SCAN_MODE "CONTINUOUS"
*MEAS_SCAN_MONITOR "0"
*MEAS_SCAN_RESOLUTION_X "0.0002"
*MEAS_SCAN_SPEED "1.0"
*MEAS_SCAN_SPEED_UNIT "deg/min"
*MEAS_SCAN_START "20.0000000000"
*MEAS_SCAN_START_TIME "07/14/21 15:51:39"
*MEAS_SCAN_STEP "0.0100000000"
*MEAS_SCAN_STOP "70.0000000000"
*MEAS_SCAN_UNIT_X "deg"
*MEAS_SCAN_UNIT_Y "counts"
*RAS_HEADER_END
*RAS_INT_START
20.0000 1433.0000 1.0000
20.0100 1525.0000 1.0000
20.0200 1508.0000 1.0000
20.0300 1480.0000 1.0000
20.0400 1518.0000 1.0000
20.0500 1508.0000 1.0000
20.0600 1474.0000 1.0000
20.0700 1473.0000 1.0000
20.0800 1494.0000 1.0000
20.0900 1461.0000 1.0000
20.1000 1496.0000 1.0000
20.1100 1459.0000 1.0000
20.1200 1491.0000 1.0000
20.1300 1524.0000 1.0000
20.1400 1486.0000 1.0000
20.1500 1433.0000 1.0000
20.1600 1481.0000 1.0000
20.1700 1528.0000 1.0000
20.1800 1475.0000 1.0000
20.1900 1411.0000 1.0000
20.2000 1497.0000 1.0000
20.2100 1507.0000 1.0000
20.2200 1506.0000 1.0000
20.2300 1387.0000 1.0000
20.2400 1471.0000 1.0000
20.2500 1478.0000 1.0000
20.2600 1477.0000 1.0000
20.2700 1481.0000 1.0000
20.2800 1457.0000 1.0000
20.2900 1460.0000 1.0000
20.3000 1480.0000 1.0000
20.3100 1481.0000 1.0000
20.3200 1465.0000 1.0000
20.3300 1458.0000 1.0000
20.3400 1475.0000 1.0000
20.3500 1438.0000 1.0000
20.3600 1437.0000 1.0000
20.3700 1441.0000 1.0000
20.3800 1519.0000 1.0000
20.3900 1476.0000 1.0000
20.4000 1505.0000 1.0000
20.4100 1428.0000 1.0000
20.4200 1488.0000 1.0000
20.4300 1512.0000 1.0000
20.4400 1479.0000 1.0000
20.4500 1422.0000 1.0000
20.4600 1442.0000 1.0000
20.4700 1444.0000 1.0000
20.4800 1438.0000 1.0000
20.4900 1481.0000 1.0000
20.5000 1486.0000 1.0000
20.5100 1445.0000 1.0000
20.5200 1431.0000 1.0000
20.5300 1455.0000 1.0000
20.5400 1505.0000 1.0000
20.5500 1534.0000 1.0000
20.5600 1474.0000 1.0000
20.5700 1469.0000 1.0000
20.5800 1460.0000 1.0000
20.5900 1445.0000 1.0000
20.6000 1463.0000 1.0000
20.6100 1487.0000 1.0000
20.6200 1408.0000 1.0000
20.6300 1399.0000 1.0000
20.6400 1452.0000 1.0000
20.6500 1515.0000 1.0000
20.6600 1443.0000 1.0000
20.6700 1475.0000 1.0000
20.6800 1472.0000 1.0000
20.6900 1548.0000 1.0000
20.7000 1522.0000 1.0000
20.7100 1466.0000 1.0000
20.7200 1462.0000 1.0000
20.7300 1490.0000 1.0000
20.7400 1470.0000 1.0000
20.7500 1465.0000 1.0000
20.7600 1455.0000 1.0000
20.7700 1434.0000 1.0000
20.7800 1506.0000 1.0000
20.7900 1433.0000 1.0000
20.8000 1372.0000 1.0000
20.8100 1541.0000 1.0000
20.8200 1479.0000 1.0000
20.8300 1433.0000 1.0000
20.8400 1511.0000 1.0000
20.8500 1491.0000 1.0000
20.8600 1520.0000 1.0000
20.8700 1505.0000 1.0000
20.8800 1472.0000 1.0000
20.8900 1486.0000 1.0000
20.9000 1471.0000 1.0000
20.9100 1443.0000 1.0000
20.9200 1460.0000 1.0000
20.9300 1469.0000 1.0000
20.9400 1458.0000 1.0000
20.9500 1430.0000 1.0000
20.9600 1435.0000 1.0000
20.9700 1472.0000 1.0000
20.9800 1446.0000 1.0000
20.9900 1500.0000 1.0000
21.0000 1546.0000 1.0000
21.0100 1526.0000 1.0000
21.0200 1436.0000 1.0000
21.0300 1477.0000 1.0000
21.0400 1461.0000 1.0000
21.0500 1411.0000 1.0000
21.0600 1448.0000 1.0000
21.0700 1504.0000 1.0000
21.0800 1497.0000 1.0000
21.0900 1438.0000 1.0000
21.1000 1463.0000 1.0000
21.1100 1506.0000 1.0000
21.1200 1464.0000 1.0000
21.1300 1476.0000 1.0000
21.1400 1473.0000 1.0000
21.1500 1439.0000 1.0000
21.1600 1464.0000 1.0000
21.1700 1472.0000 1.0000
21.1800 1524.0000 1.0000
21.1900 1438.0000 1.0000
21.2000 1458.0000 1.0000
21.2100 1531.0000 1.0000
21.2200 1495.0000 1.0000
21.2300 1478.0000 1.0000
21.2400 1473.0000 1.0000
21.2500 1493.0000 1.0000
21.2600 1469.0000 1.0000
21.2700 1407.0000 1.0000
21.2800 1438.0000 1.0000
21.2900 1551.0000 1.0000
21.3000 1534.0000 1.0000
21.3100 1428.0000 1.0000
21.3200 1494.0000 1.0000
21.3300 1487.0000 1.0000
21.3400 1516.0000 1.0000
21.3500 1531.0000 1.0000
21.3600 1452.0000 1.0000
21.3700 1514.0000 1.0000
21.3800 1478.0000 1.0000
21.3900 1467.0000 1.0000
21.4000 1500.0000 1.0000
21.4100 1443.0000 1.0000
21.4200 1455.0000 1.0000
21.4300 1438.0000 1.0000
21.4400 1475.0000 1.0000
21.4500 1415.0000 1.0000
21.4600 1531.0000 1.0000
21.4700 1490.0000 1.0000
21.4800 1519.0000 1.0000
21.4900 1512.0000 1.0000
21.5000 1505.0000 1.0000
21.5100 1497.0000 1.0000
21.5200 1444.0000 1.0000
21.5300 1507.0000 1.0000
21.5400 1476.0000 1.0000
21.5500 1430.0000 1.0000
21.5600 1501.0000 1.0000
21.5700 1506.0000 1.0000
21.5800 1467.0000 1.0000
21.5900 1457.0000 1.0000
21.6000 1400.0000 1.0000
21.6100 1431.0000 1.0000
21.6200 1478.0000 1.0000
21.6300 1486.0000 1.0000
21.6400 1476.0000 1.0000
21.6500 1456.0000 1.0000
21.6600 1477.0000 1.0000
21.6700 1421.0000 1.0000
21.6800 1467.0000 1.0000
21.6900 1503.0000 1.0000
21.7000 1452.0000 1.0000
21.7100 1480.0000 1.0000
21.7200 1493.0000 1.0000
21.7300 1509.0000 1.0000
21.7400 1492.0000 1.0000
21.7500 1497.0000 1.0000
21.7600 1489.0000 1.0000
21.7700 1460.0000 1.0000
21.7800 1456.0000 1.0000
21.7900 1417.0000 1.0000
21.8000 1475.0000 1.0000
21.8100 1529.0000 1.0000
21.8200 1486.0000 1.0000
21.8300 1445.0000 1.0000
21.8400 1475.0000 1.0000
21.8500 1502.0000 1.0000
21.8600 1499.0000 1.0000
21.8700 1431.0000 1.0000
21.8800 1511.0000 1.0000
21.8900 1510.0000 1.0000
21.9000 1480.0000 1.0000
21.9100 1508.0000 1.0000
21.9200 1512.0000 1.0000
21.9300 1442.0000 1.0000
21.9400 1459.0000 1.0000
21.9500 1501.0000 1.0000
21.9600 1519.0000 1.0000
21.9700 1463.0000 1.0000
21.9800 1447.0000 1.0000
21.9900 1475.0000 1.0000
22.0000 1437.0000 1.0000
22.0100 1497.0000 1.0000
22.0200 1510.0000 1.0000
22.0300 1502.0000 1.0000
22.0400 1531.0000 1.0000
22.0500 1456.0000 1.0000
22.0600 1498.0000 1.0000
22.0700 1472.0000 1.0000
22.0800 1545.0000 1.0000
22.0900 1496.0000 1.0000
22.1000 1472.0000 1.0000
22.1100 1474.0000 1.0000
22.1200 1457.0000 1.0000
22.1300 1460.0000 1.0000
22.1400 1497.0000 1.0000
22.1500 1524.0000 1.0000
22.1600 1534.0000 1.0000
22.1700 1463.0000 1.0000
22.1800 1482.0000 1.0000
22.1900 1520.0000 1.0000
22.2000 1451.0000 1.0000
22.2100 1443.0000 1.0000
22.2200 1461.0000 1.0000
22.2300 1474.0000 1.0000
22.2400 1523.0000 1.0000
22.2500 1526.0000 1.0000
22.2600 1443.0000 1.0000
22.2700 1522.0000 1.0000
22.2800 1485.0000 1.0000
22.2900 1444.0000 1.0000
22.3000 1482.0000 1.0000
22.3100 1489.0000 1.0000
22.3200 1493.0000 1.0000
22.3300 1469.0000 1.0000
22.3400 1443.0000 1.0000
22.3500 1498.0000 1.0000
22.3600 1459.0000 1.0000
22.3700 1491.0000 1.0000
22.3800 1493.0000 1.0000
22.3900 1487.0000 1.0000
22.4000 1459.0000 1.0000
22.4100 1504.0000 1.0000
22.4200 1471.0000 1.0000
22.4300 1527.0000 1.0000
22.4400 1490.0000 1.0000
22.4500 1506.0000 1.0000
22.4600 1553.0000 1.0000
22.4700 1537.0000 1.0000
22.4800 1480.0000 1.0000
22.4900 1491.0000 1.0000
22.5000 1556.0000 1.0000
22.5100 1472.0000 1.0000
22.5200 1471.0000 1.0000
22.5300 1385.0000 1.0000
22.5400 1394.0000 1.0000
22.5500 1451.0000 1.0000
22.5600 1460.0000 1.0000
22.5700 1464.0000 1.0000
22.5800 1472.0000 1.0000
22.5900 1440.0000 1.0000
22.6000 1511.0000 1.0000
22.6100 1473.0000 1.0000
22.6200 1540.0000 1.0000
22.6300 1503.0000 1.0000
22.6400 1520.0000 1.0000
22.6500 1420.0000 1.0000
22.6600 1494.0000 1.0000
22.6700 1487.0000 1.0000
22.6800 1453.0000 1.0000
22.6900 1459.0000 1.0000
22.7000 1517.0000 1.0000
22.7100 1478.0000 1.0000
22.7200 1455.0000 1.0000
22.7300 1515.0000 1.0000
22.7400 1491.0000 1.0000
22.7500 1501.0000 1.0000
22.7600 1528.0000 1.0000
22.7700 1511.0000 1.0000
22.7800 1532.0000 1.0000
22.7900 1500.0000 1.0000
22.8000 1526.0000 1.0000
22.8100 1504.0000 1.0000
22.8200 1529.0000 1.0000
22.8300 1519.0000 1.0000
22.8400 1515.0000 1.0000
22.8500 1487.0000 1.0000
22.8600 1517.0000 1.0000
22.8700 1460.0000 1.0000
22.8800 1488.0000 1.0000
22.8900 1479.0000 1.0000
22.9000 1460.0000 1.0000
22.9100 1424.0000 1.0000
22.9200 1540.0000 1.0000
22.9300 1502.0000 1.0000
22.9400 1424.0000 1.0000
22.9500 1519.0000 1.0000
22.9600 1502.0000 1.0000
22.9700 1519.0000 1.0000
22.9800 1507.0000 1.0000
22.9900 1510.0000 1.0000
23.0000 1475.0000 1.0000
23.0100 1500.0000 1.0000
23.0200 1493.0000 1.0000
23.0300 1484.0000 1.0000
23.0400 1497.0000 1.0000
23.0500 1518.0000 1.0000
23.0600 1521.0000 1.0000
23.0700 1457.0000 1.0000
23.0800 1467.0000 1.0000
23.0900 1479.0000 1.0000
23.1000 1440.0000 1.0000
23.1100 1465.0000 1.0000
23.1200 1481.0000 1.0000
23.1300 1498.0000 1.0000
23.1400 1513.0000 1.0000
23.1500 1515.0000 1.0000
23.1600 1510.0000 1.0000
23.1700 1522.0000 1.0000
23.1800 1492.0000 1.0000
23.1900 1515.0000 1.0000
23.2000 1497.0000 1.0000
23.2100 1494.0000 1.0000
23.2200 1557.0000 1.0000
23.2300 1472.0000 1.0000
23.2400 1500.0000 1.0000
23.2500 1499.0000 1.0000
23.2600 1531.0000 1.0000
23.2700 1455.0000 1.0000
23.2800 1535.0000 1.0000
23.2900 1474.0000 1.0000
23.3000 1501.0000 1.0000
23.3100 1493.0000 1.0000
23.3200 1489.0000 1.0000
23.3300 1488.0000 1.0000
23.3400 1509.0000 1.0000
23.3500 1457.0000 1.0000
23.3600 1549.0000 1.0000
23.3700 1554.0000 1.0000
23.3800 1507.0000 1.0000
23.3900 1495.0000 1.0000
23.4000 1510.0000 1.0000
23.4100 1458.0000 1.0000
23.4200 1454.0000 1.0000
23.4300 1475.0000 1.0000
23.4400 1535.0000 1.0000
23.4500 1492.0000 1.0000
23.4600 1525.0000 1.0000
23.4700 1471.0000 1.0000
23.4800 1514.0000 1.0000
23.4900 1507.0000 1.0000
23.5000 1441.0000 1.0000
23.5100 1508.0000 1.0000
23.5200 1516.0000 1.0000
23.5300 1549.0000 1.0000
23.5400 1540.0000 1.0000
23.5500 1504.0000 1.0000
23.5600 1527.0000 1.0000
23.5700 1481.0000 1.0000
23.5800 1489.0000 1.0000
23.5900 1482.0000 1.0000
23.6000 1516.0000 1.0000
23.6100 1533.0000 1.0000
23.6200 1510.0000 1.0000
23.6300 1462.0000 1.0000
23.6400 1518.0000 1.0000
23.6500 1488.0000 1.0000
23.6600 1520.0000 1.0000
23.6700 1499.0000 1.0000
23.6800 1494.0000 1.0000
23.6900 1448.0000 1.0000
23.7000 1466.0000 1.0000
23.7100 1538.0000 1.0000
23.7200 1547.0000 1.0000
23.7300 1547.0000 1.0000
23.7400 1486.0000 1.0000
23.7500 1488.0000 1.0000
23.7600 1495.0000 1.0000
23.7700 1535.0000 1.0000
23.7800 1527.0000 1.0000
23.7900 1538.0000 1.0000
23.8000 1478.0000 1.0000
23.8100 1525.0000 1.0000
23.8200 1522.0000 1.0000
23.8300 1477.0000 1.0000
23.8400 1570.0000 1.0000
23.8500 1543.0000 1.0000
23.8600 1592.0000 1.0000
23.8700 1623.0000 1.0000
23.8800 1525.0000 1.0000
23.8900 1514.0000 1.0000
23.9000 1514.0000 1.0000
23.9100 1499.0000 1.0000
23.9200 1534.0000 1.0000
23.9300 1510.0000 1.0000
23.9400 1514.0000 1.0000
23.9500 1554.0000 1.0000
23.9600 1469.0000 1.0000
23.9700 1547.0000 1.0000
23.9800 1507.0000 1.0000
23.9900 1536.0000 1.0000
24.0000 1446.0000 1.0000
24.0100 1564.0000 1.0000
24.0200 1498.0000 1.0000
24.0300 1521.0000 1.0000
24.0400 1558.0000 1.0000
24.0500 1443.0000 1.0000
24.0600 1445.0000 1.0000
24.0700 1509.0000 1.0000
24.0800 1502.0000 1.0000
24.0900 1556.0000 1.0000
24.1000 1447.0000 1.0000
24.1100 1454.0000 1.0000
24.1200 1534.0000 1.0000
24.1300 1532.0000 1.0000
24.1400 1500.0000 1.0000
24.1500 1505.0000 1.0000
24.1600 1537.0000 1.0000
24.1700 1597.0000 1.0000
24.1800 1548.0000 1.0000
24.1900 1493.0000 1.0000
24.2000 1542.0000 1.0000
24.2100 1544.0000 1.0000
24.2200 1460.0000 1.0000
24.2300 1482.0000 1.0000
24.2400 1467.0000 1.0000
24.2500 1508.0000 1.0000
24.2600 1469.0000 1.0000
24.2700 1482.0000 1.0000
24.2800 1519.0000 1.0000
24.2900 1537.0000 1.0000
24.3000 1491.0000 1.0000
24.3100 1490.0000 1.0000
24.3200 1464.0000 1.0000
24.3300 1494.0000 1.0000
24.3400 1560.0000 1.0000
24.3500 1557.0000 1.0000
24.3600 1468.0000 1.0000
24.3700 1521.0000 1.0000
24.3800 1560.0000 1.0000
24.3900 1501.0000 1.0000
24.4000 1521.0000 1.0000
24.4100 1525.0000 1.0000
24.4200 1500.0000 1.0000
24.4300 1563.0000 1.0000
24.4400 1505.0000 1.0000
24.4500 1484.0000 1.0000
24.4600 1511.0000 1.0000
24.4700 1471.0000 1.0000
24.4800 1529.0000 1.0000
24.4900 1479.0000 1.0000
24.5000 1561.0000 1.0000
24.5100 1555.0000 1.0000
24.5200 1576.0000 1.0000
24.5300 1544.0000 1.0000
24.5400 1547.0000 1.0000
24.5500 1530.0000 1.0000
24.5600 1596.0000 1.0000
24.5700 1480.0000 1.0000
24.5800 1542.0000 1.0000
24.5900 1521.0000 1.0000
24.6000 1592.0000 1.0000
24.6100 1600.0000 1.0000
24.6200 1554.0000 1.0000
24.6300 1539.0000 1.0000
24.6400 1554.0000 1.0000
24.6500 1608.0000 1.0000
24.6600 1550.0000 1.0000
24.6700 1592.0000 1.0000
24.6800 1544.0000 1.0000
24.6900 1593.0000 1.0000
24.7000 1534.0000 1.0000
24.7100 1514.0000 1.0000
24.7200 1509.0000 1.0000
24.7300 1529.0000 1.0000
24.7400 1524.0000 1.0000
24.7500 1520.0000 1.0000
24.7600 1513.0000 1.0000
24.7700 1540.0000 1.0000
24.7800 1531.0000 1.0000
24.7900 1566.0000 1.0000
24.8000 1544.0000 1.0000
24.8100 1458.0000 1.0000
24.8200 1548.0000 1.0000
24.8300 1525.0000 1.0000
24.8400 1574.0000 1.0000
24.8500 1552.0000 1.0000
24.8600 1551.0000 1.0000
24.8700 1575.0000 1.0000
24.8800 1547.0000 1.0000
24.8900 1535.0000 1.0000
24.9000 1528.0000 1.0000
24.9100 1584.0000 1.0000
24.9200 1539.0000 1.0000
24.9300 1540.0000 1.0000
24.9400 1541.0000 1.0000
24.9500 1472.0000 1.0000
24.9600 1601.0000 1.0000
24.9700 1575.0000 1.0000
24.9800 1551.0000 1.0000
24.9900 1583.0000 1.0000
25.0000 1534.0000 1.0000
25.0100 1643.0000 1.0000
25.0200 1570.0000 1.0000
25.0300 1525.0000 1.0000
25.0400 1550.0000 1.0000
25.0500 1607.0000 1.0000
25.0600 1558.0000 1.0000
25.0700 1511.0000 1.0000
25.0800 1517.0000 1.0000
25.0900 1537.0000 1.0000
25.1000 1591.0000 1.0000
25.1100 1584.0000 1.0000
25.1200 1540.0000 1.0000
25.1300 1573.0000 1.0000
25.1400 1648.0000 1.0000
25.1500 1635.0000 1.0000
25.1600 1534.0000 1.0000
25.1700 1494.0000 1.0000
25.1800 1465.0000 1.0000
25.1900 1556.0000 1.0000
25.2000 1551.0000 1.0000
25.2100 1578.0000 1.0000
25.2200 1529.0000 1.0000
25.2300 1550.0000 1.0000
25.2400 1570.0000 1.0000
25.2500 1555.0000 1.0000
25.2600 1532.0000 1.0000
25.2700 1567.0000 1.0000
25.2800 1521.0000 1.0000
25.2900 1529.0000 1.0000
25.3000 1541.0000 1.0000
25.3100 1533.0000 1.0000
25.3200 1544.0000 1.0000
25.3300 1555.0000 1.0000
25.3400 1586.0000 1.0000
25.3500 1595.0000 1.0000
25.3600 1585.0000 1.0000
25.3700 1577.0000 1.0000
25.3800 1571.0000 1.0000
25.3900 1524.0000 1.0000
25.4000 1544.0000 1.0000
25.4100 1586.0000 1.0000
25.4200 1510.0000 1.0000
25.4300 1557.0000 1.0000
25.4400 1554.0000 1.0000
25.4500 1550.0000 1.0000
25.4600 1497.0000 1.0000
25.4700 1550.0000 1.0000
25.4800 1541.0000 1.0000
25.4900 1514.0000 1.0000
25.5000 1523.0000 1.0000
25.5100 1515.0000 1.0000
25.5200 1495.0000 1.0000
25.5300 1560.0000 1.0000
25.5400 1557.0000 1.0000
25.5500 1475.0000 1.0000
25.5600 1529.0000 1.0000
25.5700 1536.0000 1.0000
25.5800 1482.0000 1.0000
25.5900 1507.0000 1.0000
25.6000 1493.0000 1.0000
25.6100 1521.0000 1.0000
25.6200 1542.0000 1.0000
25.6300 1582.0000 1.0000
25.6400 1544.0000 1.0000
25.6500 1530.0000 1.0000
25.6600 1522.0000 1.0000
25.6700 1508.0000 1.0000
25.6800 1577.0000 1.0000
25.6900 1534.0000 1.0000
25.7000 1537.0000 1.0000
25.7100 1561.0000 1.0000
25.7200 1556.0000 1.0000
25.7300 1509.0000 1.0000
25.7400 1501.0000 1.0000
25.7500 1559.0000 1.0000
25.7600 1562.0000 1.0000
25.7700 1500.0000 1.0000
25.7800 1513.0000 1.0000
25.7900 1485.0000 1.0000
25.8000 1499.0000 1.0000
25.8100 1535.0000 1.0000
25.8200 1553.0000 1.0000
25.8300 1565.0000 1.0000
25.8400 1528.0000 1.0000
25.8500 1551.0000 1.0000
25.8600 1575.0000 1.0000
25.8700 1564.0000 1.0000
25.8800 1540.0000 1.0000
25.8900 1532.0000 1.0000
25.9000 1642.0000 1.0000
25.9100 1568.0000 1.0000
25.9200 1538.0000 1.0000
25.9300 1581.0000 1.0000
25.9400 1553.0000 1.0000
25.9500 1594.0000 1.0000
25.9600 1523.0000 1.0000
25.9700 1521.0000 1.0000
25.9800 1466.0000 1.0000
25.9900 1565.0000 1.0000
26.0000 1547.0000 1.0000
26.0100 1513.0000 1.0000
26.0200 1512.0000 1.0000
26.0300 1503.0000 1.0000
26.0400 1507.0000 1.0000
26.0500 1539.0000 1.0000
26.0600 1513.0000 1.0000
26.0700 1534.0000 1.0000
26.0800 1548.0000 1.0000
26.0900 1614.0000 1.0000
26.1000 1528.0000 1.0000
26.1100 1562.0000 1.0000
26.1200 1566.0000 1.0000
26.1300 1511.0000 1.0000
26.1400 1579.0000 1.0000
26.1500 1567.0000 1.0000
26.1600 1566.0000 1.0000
26.1700 1532.0000 1.0000
26.1800 1587.0000 1.0000
26.1900 1606.0000 1.0000
26.2000 1578.0000 1.0000
26.2100 1543.0000 1.0000
26.2200 1549.0000 1.0000
26.2300 1605.0000 1.0000
26.2400 1536.0000 1.0000
26.2500 1518.0000 1.0000
26.2600 1529.0000 1.0000
26.2700 1608.0000 1.0000
26.2800 1622.0000 1.0000
26.2900 1589.0000 1.0000
26.3000 1517.0000 1.0000
26.3100 1586.0000 1.0000
26.3200 1564.0000 1.0000
26.3300 1589.0000 1.0000
26.3400 1609.0000 1.0000
26.3500 1575.0000 1.0000
26.3600 1593.0000 1.0000
26.3700 1565.0000 1.0000
26.3800 1657.0000 1.0000
26.3900 1644.0000 1.0000
26.4000 1656.0000 1.0000
26.4100 1563.0000 1.0000
26.4200 1600.0000 1.0000
26.4300 1574.0000 1.0000
26.4400 1554.0000 1.0000
26.4500 1568.0000 1.0000
26.4600 1647.0000 1.0000
26.4700 1628.0000 1.0000
26.4800 1633.0000 1.0000
26.4900 1579.0000 1.0000
26.5000 1636.0000 1.0000
26.5100 1655.0000 1.0000
26.5200 1696.0000 1.0000
26.5300 1628.0000 1.0000
26.5400 1673.0000 1.0000
26.5500 1613.0000 1.0000
26.5600 1639.0000 1.0000
26.5700 1615.0000 1.0000
26.5800 1592.0000 1.0000
26.5900 1628.0000 1.0000
26.6000 1622.0000 1.0000
26.6100 1647.0000 1.0000
26.6200 1611.0000 1.0000
26.6300 1638.0000 1.0000
26.6400 1630.0000 1.0000
26.6500 1660.0000 1.0000
26.6600 1649.0000 1.0000
26.6700 1629.0000 1.0000
26.6800 1643.0000 1.0000
26.6900 1686.0000 1.0000
26.7000 1661.0000 1.0000
26.7100 1636.0000 1.0000
26.7200 1710.0000 1.0000
26.7300 1688.0000 1.0000
26.7400 1675.0000 1.0000
26.7500 1669.0000 1.0000
26.7600 1686.0000 1.0000
26.7700 1683.0000 1.0000
26.7800 1709.0000 1.0000
26.7900 1690.0000 1.0000
26.8000 1703.0000 1.0000
26.8100 1746.0000 1.0000
26.8200 1751.0000 1.0000
26.8300 1739.0000 1.0000
26.8400 1800.0000 1.0000
26.8500 1756.0000 1.0000
26.8600 1746.0000 1.0000
26.8700 1689.0000 1.0000
26.8800 1764.0000 1.0000
26.8900 1817.0000 1.0000
26.9000 1837.0000 1.0000
26.9100 1843.0000 1.0000
26.9200 1897.0000 1.0000
26.9300 1883.0000 1.0000
26.9400 1928.0000 1.0000
26.9500 1939.0000 1.0000
26.9600 1995.0000 1.0000
26.9700 1998.0000 1.0000
26.9800 2032.0000 1.0000
26.9900 2027.0000 1.0000
27.0000 2027.0000 1.0000
27.0100 2104.0000 1.0000
27.0200 2111.0000 1.0000
27.0300 2272.0000 1.0000
27.0400 2246.0000 1.0000
27.0500 2358.0000 1.0000
27.0600 2408.0000 1.0000
27.0700 2528.0000 1.0000
27.0800 2557.0000 1.0000
27.0900 2639.0000 1.0000
27.1000 2734.0000 1.0000
27.1100 2826.0000 1.0000
27.1200 2832.0000 1.0000
27.1300 3067.0000 1.0000
27.1400 3072.0000 1.0000
27.1500 3269.0000 1.0000
27.1600 3417.0000 1.0000
27.1700 3521.0000 1.0000
27.1800 3812.0000 1.0000
27.1900 3866.0000 1.0000
27.2000 4174.0000 1.0000
27.2100 4389.0000 1.0000
27.2200 4761.0000 1.0000
27.2300 5015.0000 1.0000
27.2400 5198.0000 1.0000
27.2500 5487.0000 1.0000
27.2600 5736.0000 1.0000
27.2700 5912.0000 1.0000
27.2800 6191.0000 1.0000
27.2900 6406.0000 1.0000
27.3000 6445.0000 1.0000
27.3100 6269.0000 1.0000
27.3200 6223.0000 1.0000
27.3300 6171.0000 1.0000
27.3400 6001.0000 1.0000
27.3500 5761.0000 1.0000
27.3600 5560.0000 1.0000
27.3700 5325.0000 1.0000
27.3800 5109.0000 1.0000
27.3900 4890.0000 1.0000
27.4000 4528.0000 1.0000
27.4100 4316.0000 1.0000
27.4200 4079.0000 1.0000
27.4300 3810.0000 1.0000
27.4400 3668.0000 1.0000
27.4500 3457.0000 1.0000
27.4600 3289.0000 1.0000
27.4700 3200.0000 1.0000
27.4800 2980.0000 1.0000
27.4900 2882.0000 1.0000
27.5000 2804.0000 1.0000
27.5100 2730.0000 1.0000
27.5200 2573.0000 1.0000
27.5300 2613.0000 1.0000
27.5400 2453.0000 1.0000
27.5500 2421.0000 1.0000
27.5600 2352.0000 1.0000
27.5700 2247.0000 1.0000
27.5800 2263.0000 1.0000
27.5900 2241.0000 1.0000
27.6000 2124.0000 1.0000
27.6100 2134.0000 1.0000
27.6200 2107.0000 1.0000
27.6300 2023.0000 1.0000
27.6400 2017.0000 1.0000
27.6500 2032.0000 1.0000
27.6600 1971.0000 1.0000
27.6700 2006.0000 1.0000
27.6800 1969.0000 1.0000
27.6900 1913.0000 1.0000
27.7000 1877.0000 1.0000
27.7100 1867.0000 1.0000
27.7200 1846.0000 1.0000
27.7300 1840.0000 1.0000
27.7400 1701.0000 1.0000
27.7500 1815.0000 1.0000
27.7600 1728.0000 1.0000
27.7700 1742.0000 1.0000
27.7800 1777.0000 1.0000
27.7900 1751.0000 1.0000
27.8000 1730.0000 1.0000
27.8100 1748.0000 1.0000
27.8200 1768.0000 1.0000
27.8300 1726.0000 1.0000
27.8400 1767.0000 1.0000
27.8500 1656.0000 1.0000
27.8600 1726.0000 1.0000
27.8700 1684.0000 1.0000
27.8800 1688.0000 1.0000
27.8900 1646.0000 1.0000
27.9000 1599.0000 1.0000
27.9100 1640.0000 1.0000
27.9200 1614.0000 1.0000
27.9300 1606.0000 1.0000
27.9400 1622.0000 1.0000
27.9500 1678.0000 1.0000
27.9600 1698.0000 1.0000
27.9700 1637.0000 1.0000
27.9800 1665.0000 1.0000
27.9900 1660.0000 1.0000
28.0000 1639.0000 1.0000
28.0100 1618.0000 1.0000
28.0200 1660.0000 1.0000
28.0300 1599.0000 1.0000
28.0400 1567.0000 1.0000
28.0500 1572.0000 1.0000
28.0600 1528.0000 1.0000
28.0700 1511.0000 1.0000
28.0800 1557.0000 1.0000
28.0900 1556.0000 1.0000
28.1000 1549.0000 1.0000
28.1100 1595.0000 1.0000
28.1200 1543.0000 1.0000
28.1300 1554.0000 1.0000
28.1400 1589.0000 1.0000
28.1500 1580.0000 1.0000
28.1600 1585.0000 1.0000
28.1700 1596.0000 1.0000
28.1800 1583.0000 1.0000
28.1900 1565.0000 1.0000
28.2000 1483.0000 1.0000
28.2100 1516.0000 1.0000
28.2200 1567.0000 1.0000
28.2300 1479.0000 1.0000
28.2400 1478.0000 1.0000
28.2500 1554.0000 1.0000
28.2600 1579.0000 1.0000
28.2700 1561.0000 1.0000
28.2800 1526.0000 1.0000
28.2900 1552.0000 1.0000
28.3000 1534.0000 1.0000
28.3100 1547.0000 1.0000
28.3200 1587.0000 1.0000
28.3300 1511.0000 1.0000
28.3400 1596.0000 1.0000
28.3500 1514.0000 1.0000
28.3600 1565.0000 1.0000
28.3700 1559.0000 1.0000
28.3800 1575.0000 1.0000
28.3900 1538.0000 1.0000
28.4000 1547.0000 1.0000
28.4100 1523.0000 1.0000
28.4200 1493.0000 1.0000
28.4300 1475.0000 1.0000
28.4400 1515.0000 1.0000
28.4500 1541.0000 1.0000
28.4600 1498.0000 1.0000
28.4700 1518.0000 1.0000
28.4800 1500.0000 1.0000
28.4900 1567.0000 1.0000
28.5000 1503.0000 1.0000
28.5100 1485.0000 1.0000
28.5200 1505.0000 1.0000
28.5300 1459.0000 1.0000
28.5400 1480.0000 1.0000
28.5500 1550.0000 1.0000
28.5600 1528.0000 1.0000
28.5700 1560.0000 1.0000
28.5800 1497.0000 1.0000
28.5900 1485.0000 1.0000
28.6000 1477.0000 1.0000
28.6100 1428.0000 1.0000
28.6200 1525.0000 1.0000
28.6300 1487.0000 1.0000
28.6400 1547.0000 1.0000
28.6500 1518.0000 1.0000
28.6600 1479.0000 1.0000
28.6700 1520.0000 1.0000
28.6800 1532.0000 1.0000
28.6900 1455.0000 1.0000
28.7000 1536.0000 1.0000
28.7100 1510.0000 1.0000
28.7200 1518.0000 1.0000
28.7300 1496.0000 1.0000
28.7400 1496.0000 1.0000
28.7500 1566.0000 1.0000
28.7600 1553.0000 1.0000
28.7700 1472.0000 1.0000
28.7800 1488.0000 1.0000
28.7900 1435.0000 1.0000
28.8000 1457.0000 1.0000
28.8100 1466.0000 1.0000
28.8200 1470.0000 1.0000
28.8300 1509.0000 1.0000
28.8400 1438.0000 1.0000
28.8500 1496.0000 1.0000
28.8600 1473.0000 1.0000
28.8700 1490.0000 1.0000
28.8800 1521.0000 1.0000
28.8900 1421.0000 1.0000
28.9000 1418.0000 1.0000
28.9100 1446.0000 1.0000
28.9200 1501.0000 1.0000
28.9300 1431.0000 1.0000
28.9400 1484.0000 1.0000
28.9500 1501.0000 1.0000
28.9600 1498.0000 1.0000
28.9700 1458.0000 1.0000
28.9800 1510.0000 1.0000
28.9900 1470.0000 1.0000
29.0000 1472.0000 1.0000
29.0100 1481.0000 1.0000
29.0200 1509.0000 1.0000
29.0300 1610.0000 1.0000
29.0400 1462.0000 1.0000
29.0500 1518.0000 1.0000
29.0600 1466.0000 1.0000
29.0700 1433.0000 1.0000
29.0800 1438.0000 1.0000
29.0900 1472.0000 1.0000
29.1000 1491.0000 1.0000
29.1100 1435.0000 1.0000
29.1200 1446.0000 1.0000
29.1300 1506.0000 1.0000
29.1400 1492.0000 1.0000
29.1500 1472.0000 1.0000
29.1600 1507.0000 1.0000
29.1700 1464.0000 1.0000
29.1800 1460.0000 1.0000
29.1900 1482.0000 1.0000
29.2000 1425.0000 1.0000
29.2100 1509.0000 1.0000
29.2200 1502.0000 1.0000
29.2300 1453.0000 1.0000
29.2400 1430.0000 1.0000
29.2500 1468.0000 1.0000
29.2600 1446.0000 1.0000
29.2700 1491.0000 1.0000
29.2800 1472.0000 1.0000
29.2900 1388.0000 1.0000
29.3000 1494.0000 1.0000
29.3100 1460.0000 1.0000
29.3200 1540.0000 1.0000
29.3300 1487.0000 1.0000
29.3400 1491.0000 1.0000
29.3500 1476.0000 1.0000
29.3600 1516.0000 1.0000
29.3700 1462.0000 1.0000
29.3800 1406.0000 1.0000
29.3900 1462.0000 1.0000
29.4000 1501.0000 1.0000
29.4100 1452.0000 1.0000
29.4200 1424.0000 1.0000
29.4300 1492.0000 1.0000
29.4400 1480.0000 1.0000
29.4500 1492.0000 1.0000
29.4600 1428.0000 1.0000
29.4700 1459.0000 1.0000
29.4800 1459.0000 1.0000
29.4900 1484.0000 1.0000
29.5000 1501.0000 1.0000
29.5100 1487.0000 1.0000
29.5200 1486.0000 1.0000
29.5300 1438.0000 1.0000
29.5400 1530.0000 1.0000
29.5500 1486.0000 1.0000
29.5600 1457.0000 1.0000
29.5700 1469.0000 1.0000
29.5800 1473.0000 1.0000
29.5900 1461.0000 1.0000
29.6000 1411.0000 1.0000
29.6100 1509.0000 1.0000
29.6200 1442.0000 1.0000
29.6300 1429.0000 1.0000
29.6400 1485.0000 1.0000
29.6500 1438.0000 1.0000
29.6600 1347.0000 1.0000
29.6700 1396.0000 1.0000
29.6800 1514.0000 1.0000
29.6900 1439.0000 1.0000
29.7000 1406.0000 1.0000
29.7100 1461.0000 1.0000
29.7200 1433.0000 1.0000
29.7300 1463.0000 1.0000
29.7400 1506.0000 1.0000
29.7500 1454.0000 1.0000
29.7600 1392.0000 1.0000
29.7700 1426.0000 1.0000
29.7800 1427.0000 1.0000
29.7900 1471.0000 1.0000
29.8000 1462.0000 1.0000
29.8100 1445.0000 1.0000
29.8200 1436.0000 1.0000
29.8300 1398.0000 1.0000
29.8400 1420.0000 1.0000
29.8500 1443.0000 1.0000
29.8600 1443.0000 1.0000
29.8700 1444.0000 1.0000
29.8800 1410.0000 1.0000
29.8900 1439.0000 1.0000
29.9000 1469.0000 1.0000
29.9100 1410.0000 1.0000
29.9200 1471.0000 1.0000
29.9300 1459.0000 1.0000
29.9400 1486.0000 1.0000
29.9500 1385.0000 1.0000
29.9600 1448.0000 1.0000
29.9700 1441.0000 1.0000
29.9800 1394.0000 1.0000
29.9900 1408.0000 1.0000
30.0000 1422.0000 1.0000
30.0100 1444.0000 1.0000
30.0200 1398.0000 1.0000
30.0300 1412.0000 1.0000
30.0400 1373.0000 1.0000
30.0500 1487.0000 1.0000
30.0600 1445.0000 1.0000
30.0700 1411.0000 1.0000
30.0800 1432.0000 1.0000
30.0900 1383.0000 1.0000
30.1000 1389.0000 1.0000
30.1100 1446.0000 1.0000
30.1200 1355.0000 1.0000
30.1300 1409.0000 1.0000
30.1400 1376.0000 1.0000
30.1500 1437.0000 1.0000
30.1600 1407.0000 1.0000
30.1700 1363.0000 1.0000
30.1800 1410.0000 1.0000
30.1900 1418.0000 1.0000
30.2000 1394.0000 1.0000
30.2100 1438.0000 1.0000
30.2200 1387.0000 1.0000
30.2300 1388.0000 1.0000
30.2400 1410.0000 1.0000
30.2500 1419.0000 1.0000
30.2600 1377.0000 1.0000
30.2700 1422.0000 1.0000
30.2800 1363.0000 1.0000
30.2900 1380.0000 1.0000
30.3000 1392.0000 1.0000
30.3100 1397.0000 1.0000
30.3200 1412.0000 1.0000
30.3300 1427.0000 1.0000
30.3400 1413.0000 1.0000
30.3500 1443.0000 1.0000
30.3600 1442.0000 1.0000
30.3700 1397.0000 1.0000
30.3800 1369.0000 1.0000
30.3900 1380.0000 1.0000
30.4000 1386.0000 1.0000
30.4100 1404.0000 1.0000
30.4200 1448.0000 1.0000
30.4300 1381.0000 1.0000
30.4400 1383.0000 1.0000
30.4500 1411.0000 1.0000
30.4600 1379.0000 1.0000
30.4700 1392.0000 1.0000
30.4800 1380.0000 1.0000
30.4900 1327.0000 1.0000
30.5000 1360.0000 1.0000
30.5100 1386.0000 1.0000
30.5200 1424.0000 1.0000
30.5300 1386.0000 1.0000
30.5400 1407.0000 1.0000
30.5500 1441.0000 1.0000
30.5600 1413.0000 1.0000
30.5700 1425.0000 1.0000
30.5800 1393.0000 1.0000
30.5900 1332.0000 1.0000
30.6000 1291.0000 1.0000
30.6100 1375.0000 1.0000
30.6200 1379.0000 1.0000
30.6300 1435.0000 1.0000
30.6400 1347.0000 1.0000
30.6500 1419.0000 1.0000
30.6600 1426.0000 1.0000
30.6700 1411.0000 1.0000
30.6800 1401.0000 1.0000
30.6900 1416.0000 1.0000
30.7000 1319.0000 1.0000
30.7100 1384.0000 1.0000
30.7200 1384.0000 1.0000
30.7300 1367.0000 1.0000
30.7400 1362.0000 1.0000
30.7500 1392.0000 1.0000
30.7600 1360.0000 1.0000
30.7700 1353.0000 1.0000
30.7800 1336.0000 1.0000
30.7900 1346.0000 1.0000
30.8000 1399.0000 1.0000
30.8100 1339.0000 1.0000
30.8200 1321.0000 1.0000
30.8300 1287.0000 1.0000
30.8400 1362.0000 1.0000
30.8500 1356.0000 1.0000
30.8600 1375.0000 1.0000
30.8700 1398.0000 1.0000
30.8800 1427.0000 1.0000
30.8900 1365.0000 1.0000
30.9000 1348.0000 1.0000
30.9100 1334.0000 1.0000
30.9200 1343.0000 1.0000
30.9300 1431.0000 1.0000
30.9400 1429.0000 1.0000
30.9500 1340.0000 1.0000
30.9600 1408.0000 1.0000
30.9700 1374.0000 1.0000
30.9800 1394.0000 1.0000
30.9900 1380.0000 1.0000
31.0000 1368.0000 1.0000
31.0100 1403.0000 1.0000
31.0200 1414.0000 1.0000
31.0300 1415.0000 1.0000
31.0400 1330.0000 1.0000
31.0500 1406.0000 1.0000
31.0600 1322.0000 1.0000
31.0700 1355.0000 1.0000
31.0800 1335.0000 1.0000
31.0900 1375.0000 1.0000
31.1000 1439.0000 1.0000
31.1100 1376.0000 1.0000
31.1200 1413.0000 1.0000
31.1300 1378.0000 1.0000
31.1400 1376.0000 1.0000
31.1500 1380.0000 1.0000
31.1600 1376.0000 1.0000
31.1700 1344.0000 1.0000
31.1800 1399.0000 1.0000
31.1900 1435.0000 1.0000
31.2000 1313.0000 1.0000
31.2100 1360.0000 1.0000
31.2200 1347.0000 1.0000
31.2300 1440.0000 1.0000
31.2400 1352.0000 1.0000
31.2500 1351.0000 1.0000
31.2600 1354.0000 1.0000
31.2700 1354.0000 1.0000
31.2800 1332.0000 1.0000
31.2900 1362.0000 1.0000
31.3000 1347.0000 1.0000
31.3100 1371.0000 1.0000
31.3200 1305.0000 1.0000
31.3300 1350.0000 1.0000
31.3400 1355.0000 1.0000
31.3500 1398.0000 1.0000
31.3600 1388.0000 1.0000
31.3700 1424.0000 1.0000
31.3800 1341.0000 1.0000
31.3900 1316.0000 1.0000
31.4000 1313.0000 1.0000
31.4100 1382.0000 1.0000
31.4200 1308.0000 1.0000
31.4300 1379.0000 1.0000
31.4400 1348.0000 1.0000
31.4500 1325.0000 1.0000
31.4600 1394.0000 1.0000
31.4700 1317.0000 1.0000
31.4800 1329.0000 1.0000
31.4900 1358.0000 1.0000
31.5000 1374.0000 1.0000
31.5100 1367.0000 1.0000
31.5200 1406.0000 1.0000
31.5300 1354.0000 1.0000
31.5400 1276.0000 1.0000
31.5500 1363.0000 1.0000
31.5600 1328.0000 1.0000
31.5700 1357.0000 1.0000
31.5800 1362.0000 1.0000
31.5900 1351.0000 1.0000
31.6000 1324.0000 1.0000
31.6100 1324.0000 1.0000
31.6200 1335.0000 1.0000
31.6300 1396.0000 1.0000
31.6400 1385.0000 1.0000
31.6500 1387.0000 1.0000
31.6600 1363.0000 1.0000
31.6700 1304.0000 1.0000
31.6800 1335.0000 1.0000
31.6900 1285.0000 1.0000
31.7000 1317.0000 1.0000
31.7100 1382.0000 1.0000
31.7200 1356.0000 1.0000
31.7300 1394.0000 1.0000
31.7400 1318.0000 1.0000
31.7500 1297.0000 1.0000
31.7600 1400.0000 1.0000
31.7700 1351.0000 1.0000
31.7800 1242.0000 1.0000
31.7900 1325.0000 1.0000
31.8000 1320.0000 1.0000
31.8100 1283.0000 1.0000
31.8200 1315.0000 1.0000
31.8300 1344.0000 1.0000
31.8400 1386.0000 1.0000
31.8500 1334.0000 1.0000
31.8600 1370.0000 1.0000
31.8700 1327.0000 1.0000
31.8800 1360.0000 1.0000
31.8900 1359.0000 1.0000
31.9000 1380.0000 1.0000
31.9100 1370.0000 1.0000
31.9200 1410.0000 1.0000
31.9300 1378.0000 1.0000
31.9400 1348.0000 1.0000
31.9500 1375.0000 1.0000
31.9600 1389.0000 1.0000
31.9700 1364.0000 1.0000
31.9800 1370.0000 1.0000
31.9900 1403.0000 1.0000
32.0000 1386.0000 1.0000
32.0100 1385.0000 1.0000
32.0200 1332.0000 1.0000
32.0300 1336.0000 1.0000
32.0400 1328.0000 1.0000
32.0500 1374.0000 1.0000
32.0600 1347.0000 1.0000
32.0700 1325.0000 1.0000
32.0800 1345.0000 1.0000
32.0900 1287.0000 1.0000
32.1000 1319.0000 1.0000
32.1100 1356.0000 1.0000
32.1200 1372.0000 1.0000
32.1300 1360.0000 1.0000
32.1400 1348.0000 1.0000
32.1500 1322.0000 1.0000
32.1600 1331.0000 1.0000
32.1700 1369.0000 1.0000
32.1800 1294.0000 1.0000
32.1900 1300.0000 1.0000
32.2000 1307.0000 1.0000
32.2100 1265.0000 1.0000
32.2200 1324.0000 1.0000
32.2300 1303.0000 1.0000
32.2400 1341.0000 1.0000
32.2500 1326.0000 1.0000
32.2600 1339.0000 1.0000
32.2700 1313.0000 1.0000
32.2800 1302.0000 1.0000
32.2900 1283.0000 1.0000
32.3000 1269.0000 1.0000
32.3100 1306.0000 1.0000
32.3200 1280.0000 1.0000
32.3300 1279.0000 1.0000
32.3400 1286.0000 1.0000
32.3500 1284.0000 1.0000
32.3600 1302.0000 1.0000
32.3700 1327.0000 1.0000
32.3800 1334.0000 1.0000
32.3900 1368.0000 1.0000
32.4000 1371.0000 1.0000
32.4100 1257.0000 1.0000
32.4200 1268.0000 1.0000
32.4300 1293.0000 1.0000
32.4400 1313.0000 1.0000
32.4500 1284.0000 1.0000
32.4600 1262.0000 1.0000
32.4700 1301.0000 1.0000
32.4800 1330.0000 1.0000
32.4900 1306.0000 1.0000
32.5000 1280.0000 1.0000
32.5100 1294.0000 1.0000
32.5200 1339.0000 1.0000
32.5300 1292.0000 1.0000
32.5400 1312.0000 1.0000
32.5500 1303.0000 1.0000
32.5600 1335.0000 1.0000
32.5700 1288.0000 1.0000
32.5800 1329.0000 1.0000
32.5900 1348.0000 1.0000
32.6000 1302.0000 1.0000
32.6100 1267.0000 1.0000
32.6200 1344.0000 1.0000
32.6300 1262.0000 1.0000
32.6400 1293.0000 1.0000
32.6500 1288.0000 1.0000
32.6600 1293.0000 1.0000
32.6700 1270.0000 1.0000
32.6800 1279.0000 1.0000
32.6900 1236.0000 1.0000
32.7000 1243.0000 1.0000
32.7100 1347.0000 1.0000
32.7200 1302.0000 1.0000
32.7300 1249.0000 1.0000
32.7400 1229.0000 1.0000
32.7500 1280.0000 1.0000
32.7600 1242.0000 1.0000
32.7700 1237.0000 1.0000
32.7800 1208.0000 1.0000
32.7900 1288.0000 1.0000
32.8000 1252.0000 1.0000
32.8100 1295.0000 1.0000
32.8200 1307.0000 1.0000
32.8300 1281.0000 1.0000
32.8400 1255.0000 1.0000
32.8500 1274.0000 1.0000
32.8600 1312.0000 1.0000
32.8700 1330.0000 1.0000
32.8800 1237.0000 1.0000
32.8900 1197.0000 1.0000
32.9000 1228.0000 1.0000
32.9100 1266.0000 1.0000
32.9200 1330.0000 1.0000
32.9300 1242.0000 1.0000
32.9400 1226.0000 1.0000
32.9500 1250.0000 1.0000
32.9600 1232.0000 1.0000
32.9700 1229.0000 1.0000
32.9800 1285.0000 1.0000
32.9900 1263.0000 1.0000
33.0000 1220.0000 1.0000
33.0100 1236.0000 1.0000
33.0200 1246.0000 1.0000
33.0300 1247.0000 1.0000
33.0400 1231.0000 1.0000
33.0500 1215.0000 1.0000
33.0600 1229.0000 1.0000
33.0700 1283.0000 1.0000
33.0800 1247.0000 1.0000
33.0900 1229.0000 1.0000
33.1000 1212.0000 1.0000
33.1100 1257.0000 1.0000
33.1200 1239.0000 1.0000
33.1300 1242.0000 1.0000
33.1400 1306.0000 1.0000
33.1500 1244.0000 1.0000
33.1600 1283.0000 1.0000
33.1700 1289.0000 1.0000
33.1800 1254.0000 1.0000
33.1900 1232.0000 1.0000
33.2000 1260.0000 1.0000
33.2100 1240.0000 1.0000
33.2200 1294.0000 1.0000
33.2300 1236.0000 1.0000
33.2400 1312.0000 1.0000
33.2500 1265.0000 1.0000
33.2600 1219.0000 1.0000
33.2700 1295.0000 1.0000
33.2800 1233.0000 1.0000
33.2900 1322.0000 1.0000
33.3000 1200.0000 1.0000
33.3100 1241.0000 1.0000
33.3200 1259.0000 1.0000
33.3300 1264.0000 1.0000
33.3400 1223.0000 1.0000
33.3500 1245.0000 1.0000
33.3600 1216.0000 1.0000
33.3700 1262.0000 1.0000
33.3800 1260.0000 1.0000
33.3900 1260.0000 1.0000
33.4000 1278.0000 1.0000
33.4100 1251.0000 1.0000
33.4200 1288.0000 1.0000
33.4300 1260.0000 1.0000
33.4400 1225.0000 1.0000
33.4500 1264.0000 1.0000
33.4600 1244.0000 1.0000
33.4700 1263.0000 1.0000
33.4800 1243.0000 1.0000
33.4900 1251.0000 1.0000
33.5000 1258.0000 1.0000
33.5100 1244.0000 1.0000
33.5200 1272.0000 1.0000
33.5300 1265.0000 1.0000
33.5400 1254.0000 1.0000
33.5500 1236.0000 1.0000
33.5600 1260.0000 1.0000
33.5700 1240.0000 1.0000
33.5800 1280.0000 1.0000
33.5900 1226.0000 1.0000
33.6000 1284.0000 1.0000
33.6100 1286.0000 1.0000
33.6200 1288.0000 1.0000
33.6300 1280.0000 1.0000
33.6400 1280.0000 1.0000
33.6500 1277.0000 1.0000
33.6600 1276.0000 1.0000
33.6700 1267.0000 1.0000
33.6800 1284.0000 1.0000
33.6900 1304.0000 1.0000
33.7000 1294.0000 1.0000
33.7100 1310.0000 1.0000
33.7200 1254.0000 1.0000
33.7300 1311.0000 1.0000
33.7400 1275.0000 1.0000
33.7500 1307.0000 1.0000
33.7600 1218.0000 1.0000
33.7700 1348.0000 1.0000
33.7800 1300.0000 1.0000
33.7900 1300.0000 1.0000
33.8000 1298.0000 1.0000
33.8100 1292.0000 1.0000
33.8200 1312.0000 1.0000
33.8300 1317.0000 1.0000
33.8400 1377.0000 1.0000
33.8500 1357.0000 1.0000
33.8600 1339.0000 1.0000
33.8700 1358.0000 1.0000
33.8800 1321.0000 1.0000
33.8900 1352.0000 1.0000
33.9000 1389.0000 1.0000
33.9100 1339.0000 1.0000
33.9200 1390.0000 1.0000
33.9300 1349.0000 1.0000
33.9400 1300.0000 1.0000
33.9500 1323.0000 1.0000
33.9600 1411.0000 1.0000
33.9700 1381.0000 1.0000
33.9800 1340.0000 1.0000
33.9900 1397.0000 1.0000
34.0000 1358.0000 1.0000
34.0100 1388.0000 1.0000
34.0200 1405.0000 1.0000
34.0300 1358.0000 1.0000
34.0400 1329.0000 1.0000
34.0500 1352.0000 1.0000
34.0600 1399.0000 1.0000
34.0700 1412.0000 1.0000
34.0800 1312.0000 1.0000
34.0900 1435.0000 1.0000
34.1000 1352.0000 1.0000
34.1100 1360.0000 1.0000
34.1200 1414.0000 1.0000
34.1300 1439.0000 1.0000
34.1400 1387.0000 1.0000
34.1500 1441.0000 1.0000
34.1600 1454.0000 1.0000
34.1700 1455.0000 1.0000
34.1800 1452.0000 1.0000
34.1900 1468.0000 1.0000
34.2000 1544.0000 1.0000
34.2100 1536.0000 1.0000
34.2200 1541.0000 1.0000
34.2300 1557.0000 1.0000
34.2400 1513.0000 1.0000
34.2500 1668.0000 1.0000
34.2600 1625.0000 1.0000
34.2700 1705.0000 1.0000
34.2800 1704.0000 1.0000
34.2900 1735.0000 1.0000
34.3000 1755.0000 1.0000
34.3100 1783.0000 1.0000
34.3200 1875.0000 1.0000
34.3300 1945.0000 1.0000
34.3400 2031.0000 1.0000
34.3500 2114.0000 1.0000
34.3600 2256.0000 1.0000
34.3700 2277.0000 1.0000
34.3800 2364.0000 1.0000
34.3900 2512.0000 1.0000
34.4000 2617.0000 1.0000
34.4100 2790.0000 1.0000
34.4200 2872.0000 1.0000
34.4300 2988.0000 1.0000
34.4400 3087.0000 1.0000
34.4500 3285.0000 1.0000
34.4600 3438.0000 1.0000
34.4700 3470.0000 1.0000
34.4800 3443.0000 1.0000
34.4900 3421.0000 1.0000
34.5000 3514.0000 1.0000
34.5100 3525.0000 1.0000
34.5200 3351.0000 1.0000
34.5300 3355.0000 1.0000
34.5400 3200.0000 1.0000
34.5500 3232.0000 1.0000
34.5600 3077.0000 1.0000
34.5700 3028.0000 1.0000
34.5800 2857.0000 1.0000
34.5900 2713.0000 1.0000
34.6000 2640.0000 1.0000
34.6100 2541.0000 1.0000
34.6200 2474.0000 1.0000
34.6300 2322.0000 1.0000
34.6400 2338.0000 1.0000
34.6500 2102.0000 1.0000
34.6600 2044.0000 1.0000
34.6700 1961.0000 1.0000
34.6800 1943.0000 1.0000
34.6900 1848.0000 1.0000
34.7000 1862.0000 1.0000
34.7100 1810.0000 1.0000
34.7200 1720.0000 1.0000
34.7300 1727.0000 1.0000
34.7400 1679.0000 1.0000
34.7500 1620.0000 1.0000
34.7600 1603.0000 1.0000
34.7700 1661.0000 1.0000
34.7800 1563.0000 1.0000
34.7900 1571.0000 1.0000
34.8000 1480.0000 1.0000
34.8100 1419.0000 1.0000
34.8200 1469.0000 1.0000
34.8300 1422.0000 1.0000
34.8400 1396.0000 1.0000
34.8500 1392.0000 1.0000
34.8600 1364.0000 1.0000
34.8700 1355.0000 1.0000
34.8800 1291.0000 1.0000
34.8900 1329.0000 1.0000
34.9000 1316.0000 1.0000
34.9100 1348.0000 1.0000
34.9200 1284.0000 1.0000
34.9300 1274.0000 1.0000
34.9400 1292.0000 1.0000
34.9500 1245.0000 1.0000
34.9600 1243.0000 1.0000
34.9700 1255.0000 1.0000
34.9800 1232.0000 1.0000
34.9900 1264.0000 1.0000
35.0000 1216.0000 1.0000
35.0100 1202.0000 1.0000
35.0200 1263.0000 1.0000
35.0300 1184.0000 1.0000
35.0400 1253.0000 1.0000
35.0500 1235.0000 1.0000
35.0600 1167.0000 1.0000
35.0700 1202.0000 1.0000
35.0800 1214.0000 1.0000
35.0900 1251.0000 1.0000
35.1000 1238.0000 1.0000
35.1100 1257.0000 1.0000
35.1200 1153.0000 1.0000
35.1300 1213.0000 1.0000
35.1400 1195.0000 1.0000
35.1500 1158.0000 1.0000
35.1600 1185.0000 1.0000
35.1700 1201.0000 1.0000
35.1800 1167.0000 1.0000
35.1900 1193.0000 1.0000
35.2000 1221.0000 1.0000
35.2100 1169.0000 1.0000
35.2200 1114.0000 1.0000
35.2300 1091.0000 1.0000
35.2400 1160.0000 1.0000
35.2500 1158.0000 1.0000
35.2600 1124.0000 1.0000
35.2700 1122.0000 1.0000
35.2800 1193.0000 1.0000
35.2900 1141.0000 1.0000
35.3000 1111.0000 1.0000
35.3100 1097.0000 1.0000
35.3200 1133.0000 1.0000
35.3300 1092.0000 1.0000
35.3400 1131.0000 1.0000
35.3500 1164.0000 1.0000
35.3600 1111.0000 1.0000
35.3700 1145.0000 1.0000
35.3800 1176.0000 1.0000
35.3900 1073.0000 1.0000
35.4000 1115.0000 1.0000
35.4100 1086.0000 1.0000
35.4200 1092.0000 1.0000
35.4300 1105.0000 1.0000
35.4400 1134.0000 1.0000
35.4500 1115.0000 1.0000
35.4600 1119.0000 1.0000
35.4700 1095.0000 1.0000
35.4800 1085.0000 1.0000
35.4900 1135.0000 1.0000
35.5000 1134.0000 1.0000
35.5100 1080.0000 1.0000
35.5200 1077.0000 1.0000
35.5300 1091.0000 1.0000
35.5400 1123.0000 1.0000
35.5500 1057.0000 1.0000
35.5600 1039.0000 1.0000
35.5700 1061.0000 1.0000
35.5800 1098.0000 1.0000
35.5900 1033.0000 1.0000
35.6000 1047.0000 1.0000
35.6100 1023.0000 1.0000
35.6200 1049.0000 1.0000
35.6300 1081.0000 1.0000
35.6400 1161.0000 1.0000
35.6500 1066.0000 1.0000
35.6600 1037.0000 1.0000
35.6700 1141.0000 1.0000
35.6800 1082.0000 1.0000
35.6900 1067.0000 1.0000
35.7000 1056.0000 1.0000
35.7100 1046.0000 1.0000
35.7200 1059.0000 1.0000
35.7300 1067.0000 1.0000
35.7400 1059.0000 1.0000
35.7500 1116.0000 1.0000
35.7600 1096.0000 1.0000
35.7700 1103.0000 1.0000
35.7800 1060.0000 1.0000
35.7900 1077.0000 1.0000
35.8000 1020.0000 1.0000
35.8100 1065.0000 1.0000
35.8200 1030.0000 1.0000
35.8300 1100.0000 1.0000
35.8400 1068.0000 1.0000
35.8500 1061.0000 1.0000
35.8600 1016.0000 1.0000
35.8700 1050.0000 1.0000
35.8800 1027.0000 1.0000
35.8900 1078.0000 1.0000
35.9000 1082.0000 1.0000
35.9100 1061.0000 1.0000
35.9200 1050.0000 1.0000
35.9300 1064.0000 1.0000
35.9400 1090.0000 1.0000
35.9500 1073.0000 1.0000
35.9600 1116.0000 1.0000
35.9700 1072.0000 1.0000
35.9800 1061.0000 1.0000
35.9900 1025.0000 1.0000
36.0000 1048.0000 1.0000
36.0100 1038.0000 1.0000
36.0200 1095.0000 1.0000
36.0300 1087.0000 1.0000
36.0400 1111.0000 1.0000
36.0500 1040.0000 1.0000
36.0600 1068.0000 1.0000
36.0700 1108.0000 1.0000
36.0800 1113.0000 1.0000
36.0900 1103.0000 1.0000
36.1000 1120.0000 1.0000
36.1100 1048.0000 1.0000
36.1200 988.0000 1.0000
36.1300 1083.0000 1.0000
36.1400 1129.0000 1.0000
36.1500 1085.0000 1.0000
36.1600 1052.0000 1.0000
36.1700 1118.0000 1.0000
36.1800 1099.0000 1.0000
36.1900 1098.0000 1.0000
36.2000 1107.0000 1.0000
36.2100 1149.0000 1.0000
36.2200 1137.0000 1.0000
36.2300 1106.0000 1.0000
36.2400 1117.0000 1.0000
36.2500 1073.0000 1.0000
36.2600 1117.0000 1.0000
36.2700 1140.0000 1.0000
36.2800 1145.0000 1.0000
36.2900 1136.0000 1.0000
36.3000 1171.0000 1.0000
36.3100 1137.0000 1.0000
36.3200 1137.0000 1.0000
36.3300 1135.0000 1.0000
36.3400 1145.0000 1.0000
36.3500 1151.0000 1.0000
36.3600 1091.0000 1.0000
36.3700 1129.0000 1.0000
36.3800 1191.0000 1.0000
36.3900 1189.0000 1.0000
36.4000 1230.0000 1.0000
36.4100 1174.0000 1.0000
36.4200 1133.0000 1.0000
36.4300 1171.0000 1.0000
36.4400 1208.0000 1.0000
36.4500 1153.0000 1.0000
36.4600 1167.0000 1.0000
36.4700 1139.0000 1.0000
36.4800 1109.0000 1.0000
36.4900 1164.0000 1.0000
36.5000 1131.0000 1.0000
36.5100 1158.0000 1.0000
36.5200 1129.0000 1.0000
36.5300 1076.0000 1.0000
36.5400 1073.0000 1.0000
36.5500 1069.0000 1.0000
36.5600 1088.0000 1.0000
36.5700 1139.0000 1.0000
36.5800 1063.0000 1.0000
36.5900 1167.0000 1.0000
36.6000 1093.0000 1.0000
36.6100 1121.0000 1.0000
36.6200 1065.0000 1.0000
36.6300 1080.0000 1.0000
36.6400 1103.0000 1.0000
36.6500 1075.0000 1.0000
36.6600 1053.0000 1.0000
36.6700 1063.0000 1.0000
36.6800 1029.0000 1.0000
36.6900 1053.0000 1.0000
36.7000 1022.0000 1.0000
36.7100 1016.0000 1.0000
36.7200 989.0000 1.0000
36.7300 966.0000 1.0000
36.7400 973.0000 1.0000
36.7500 985.0000 1.0000
36.7600 984.0000 1.0000
36.7700 1032.0000 1.0000
36.7800 962.0000 1.0000
36.7900 1017.0000 1.0000
36.8000 978.0000 1.0000
36.8100 1011.0000 1.0000
36.8200 1076.0000 1.0000
36.8300 1022.0000 1.0000
36.8400 981.0000 1.0000
36.8500 987.0000 1.0000
36.8600 988.0000 1.0000
36.8700 975.0000 1.0000
36.8800 1040.0000 1.0000
36.8900 1004.0000 1.0000
36.9000 993.0000 1.0000
36.9100 1008.0000 1.0000
36.9200 1003.0000 1.0000
36.9300 997.0000 1.0000
36.9400 979.0000 1.0000
36.9500 971.0000 1.0000
36.9600 959.0000 1.0000
36.9700 1028.0000 1.0000
36.9800 1002.0000 1.0000
36.9900 970.0000 1.0000
37.0000 996.0000 1.0000
37.0100 1016.0000 1.0000
37.0200 984.0000 1.0000
37.0300 956.0000 1.0000
37.0400 992.0000 1.0000
37.0500 989.0000 1.0000
37.0600 984.0000 1.0000
37.0700 969.0000 1.0000
37.0800 972.0000 1.0000
37.0900 945.0000 1.0000
37.1000 1023.0000 1.0000
37.1100 933.0000 1.0000
37.1200 919.0000 1.0000
37.1300 1003.0000 1.0000
37.1400 1003.0000 1.0000
37.1500 949.0000 1.0000
37.1600 975.0000 1.0000
37.1700 1020.0000 1.0000
37.1800 981.0000 1.0000
37.1900 984.0000 1.0000
37.2000 968.0000 1.0000
37.2100 929.0000 1.0000
37.2200 957.0000 1.0000
37.2300 962.0000 1.0000
37.2400 972.0000 1.0000
37.2500 982.0000 1.0000
37.2600 998.0000 1.0000
37.2700 913.0000 1.0000
37.2800 914.0000 1.0000
37.2900 948.0000 1.0000
37.3000 1007.0000 1.0000
37.3100 985.0000 1.0000
37.3200 956.0000 1.0000
37.3300 926.0000 1.0000
37.3400 945.0000 1.0000
37.3500 970.0000 1.0000
37.3600 940.0000 1.0000
37.3700 984.0000 1.0000
37.3800 973.0000 1.0000
37.3900 952.0000 1.0000
37.4000 991.0000 1.0000
37.4100 934.0000 1.0000
37.4200 1010.0000 1.0000
37.4300 969.0000 1.0000
37.4400 972.0000 1.0000
37.4500 964.0000 1.0000
37.4600 989.0000 1.0000
37.4700 1024.0000 1.0000
37.4800 979.0000 1.0000
37.4900 975.0000 1.0000
37.5000 956.0000 1.0000
37.5100 965.0000 1.0000
37.5200 1004.0000 1.0000
37.5300 1015.0000 1.0000
37.5400 969.0000 1.0000
37.5500 965.0000 1.0000
37.5600 990.0000 1.0000
37.5700 950.0000 1.0000
37.5800 959.0000 1.0000
37.5900 1013.0000 1.0000
37.6000 964.0000 1.0000
37.6100 981.0000 1.0000
37.6200 1004.0000 1.0000
37.6300 979.0000 1.0000
37.6400 962.0000 1.0000
37.6500 921.0000 1.0000
37.6600 935.0000 1.0000
37.6700 971.0000 1.0000
37.6800 990.0000 1.0000
37.6900 950.0000 1.0000
37.7000 1002.0000 1.0000
37.7100 972.0000 1.0000
37.7200 982.0000 1.0000
37.7300 995.0000 1.0000
37.7400 997.0000 1.0000
37.7500 1009.0000 1.0000
37.7600 1008.0000 1.0000
37.7700 974.0000 1.0000
37.7800 988.0000 1.0000
37.7900 965.0000 1.0000
37.8000 983.0000 1.0000
37.8100 1017.0000 1.0000
37.8200 1034.0000 1.0000
37.8300 1005.0000 1.0000
37.8400 961.0000 1.0000
37.8500 989.0000 1.0000
37.8600 985.0000 1.0000
37.8700 1030.0000 1.0000
37.8800 947.0000 1.0000
37.8900 974.0000 1.0000
37.9000 924.0000 1.0000
37.9100 989.0000 1.0000
37.9200 1027.0000 1.0000
37.9300 1001.0000 1.0000
37.9400 998.0000 1.0000
37.9500 980.0000 1.0000
37.9600 1027.0000 1.0000
37.9700 1081.0000 1.0000
37.9800 1043.0000 1.0000
37.9900 1008.0000 1.0000
38.0000 1009.0000 1.0000
38.0100 1013.0000 1.0000
38.0200 1034.0000 1.0000
38.0300 1030.0000 1.0000
38.0400 1092.0000 1.0000
38.0500 1048.0000 1.0000
38.0600 1053.0000 1.0000
38.0700 1061.0000 1.0000
38.0800 1086.0000 1.0000
38.0900 1088.0000 1.0000
38.1000 1110.0000 1.0000
38.1100 1105.0000 1.0000
38.1200 1148.0000 1.0000
38.1300 1167.0000 1.0000
38.1400 1209.0000 1.0000
38.1500 1201.0000 1.0000
38.1600 1274.0000 1.0000
38.1700 1192.0000 1.0000
38.1800 1234.0000 1.0000
38.1900 1306.0000 1.0000
38.2000 1324.0000 1.0000
38.2100 1390.0000 1.0000
38.2200 1445.0000 1.0000
38.2300 1474.0000 1.0000
38.2400 1507.0000 1.0000
38.2500 1519.0000 1.0000
38.2600 1577.0000 1.0000
38.2700 1593.0000 1.0000
38.2800 1671.0000 1.0000
38.2900 1815.0000 1.0000
38.3000 1906.0000 1.0000
38.3100 1925.0000 1.0000
38.3200 1990.0000 1.0000
38.3300 2015.0000 1.0000
38.3400 2191.0000 1.0000
38.3500 2379.0000 1.0000
38.3600 2454.0000 1.0000
38.3700 2634.0000 1.0000
38.3800 2824.0000 1.0000
38.3900 3001.0000 1.0000
38.4000 3225.0000 1.0000
38.4100 3462.0000 1.0000
38.4200 3621.0000 1.0000
38.4300 3964.0000 1.0000
38.4400 4214.0000 1.0000
38.4500 4698.0000 1.0000
38.4600 4909.0000 1.0000
38.4700 5171.0000 1.0000
38.4800 5538.0000 1.0000
38.4900 5707.0000 1.0000
38.5000 5915.0000 1.0000
38.5100 5981.0000 1.0000
38.5200 6139.0000 1.0000
38.5300 6078.0000 1.0000
38.5400 6141.0000 1.0000
38.5500 6088.0000 1.0000
38.5600 6043.0000 1.0000
38.5700 5953.0000 1.0000
38.5800 5583.0000 1.0000
38.5900 5490.0000 1.0000
38.6000 5304.0000 1.0000
38.6100 5024.0000 1.0000
38.6200 4942.0000 1.0000
38.6300 4648.0000 1.0000
38.6400 4307.0000 1.0000
38.6500 4181.0000 1.0000
38.6600 3898.0000 1.0000
38.6700 3658.0000 1.0000
38.6800 3387.0000 1.0000
38.6900 3196.0000 1.0000
38.7000 2949.0000 1.0000
38.7100 2796.0000 1.0000
38.7200 2620.0000 1.0000
38.7300 2465.0000 1.0000
38.7400 2281.0000 1.0000
38.7500 2188.0000 1.0000
38.7600 2115.0000 1.0000
38.7700 1934.0000 1.0000
38.7800 1869.0000 1.0000
38.7900 1701.0000 1.0000
38.8000 1618.0000 1.0000
38.8100 1581.0000 1.0000
38.8200 1529.0000 1.0000
38.8300 1521.0000 1.0000
38.8400 1424.0000 1.0000
38.8500 1358.0000 1.0000
38.8600 1325.0000 1.0000
38.8700 1312.0000 1.0000
38.8800 1249.0000 1.0000
38.8900 1197.0000 1.0000
38.9000 1244.0000 1.0000
38.9100 1164.0000 1.0000
38.9200 1109.0000 1.0000
38.9300 1158.0000 1.0000
38.9400 1112.0000 1.0000
38.9500 1096.0000 1.0000
38.9600 1070.0000 1.0000
38.9700 1056.0000 1.0000
38.9800 1058.0000 1.0000
38.9900 1048.0000 1.0000
39.0000 998.0000 1.0000
39.0100 1016.0000 1.0000
39.0200 1008.0000 1.0000
39.0300 1068.0000 1.0000
39.0400 1004.0000 1.0000
39.0500 1000.0000 1.0000
39.0600 988.0000 1.0000
39.0700 977.0000 1.0000
39.0800 908.0000 1.0000
39.0900 927.0000 1.0000
39.1000 934.0000 1.0000
39.1100 926.0000 1.0000
39.1200 914.0000 1.0000
39.1300 971.0000 1.0000
39.1400 927.0000 1.0000
39.1500 955.0000 1.0000
39.1600 938.0000 1.0000
39.1700 897.0000 1.0000
39.1800 912.0000 1.0000
39.1900 876.0000 1.0000
39.2000 956.0000 1.0000
39.2100 948.0000 1.0000
39.2200 890.0000 1.0000
39.2300 860.0000 1.0000
39.2400 880.0000 1.0000
39.2500 920.0000 1.0000
39.2600 901.0000 1.0000
39.2700 917.0000 1.0000
39.2800 889.0000 1.0000
39.2900 884.0000 1.0000
39.3000 909.0000 1.0000
39.3100 908.0000 1.0000
39.3200 867.0000 1.0000
39.3300 835.0000 1.0000
39.3400 850.0000 1.0000
39.3500 885.0000 1.0000
39.3600 916.0000 1.0000
39.3700 893.0000 1.0000
39.3800 937.0000 1.0000
39.3900 894.0000 1.0000
39.4000 878.0000 1.0000
39.4100 942.0000 1.0000
39.4200 948.0000 1.0000
39.4300 886.0000 1.0000
39.4400 886.0000 1.0000
39.4500 864.0000 1.0000
39.4600 851.0000 1.0000
39.4700 829.0000 1.0000
39.4800 889.0000 1.0000
39.4900 892.0000 1.0000
39.5000 916.0000 1.0000
39.5100 942.0000 1.0000
39.5200 925.0000 1.0000
39.5300 926.0000 1.0000
39.5400 950.0000 1.0000
39.5500 944.0000 1.0000
39.5600 936.0000 1.0000
39.5700 974.0000 1.0000
39.5800 957.0000 1.0000
39.5900 984.0000 1.0000
39.6000 938.0000 1.0000
39.6100 957.0000 1.0000
39.6200 958.0000 1.0000
39.6300 902.0000 1.0000
39.6400 861.0000 1.0000
39.6500 940.0000 1.0000
39.6600 968.0000 1.0000
39.6700 926.0000 1.0000
39.6800 890.0000 1.0000
39.6900 916.0000 1.0000
39.7000 941.0000 1.0000
39.7100 919.0000 1.0000
39.7200 902.0000 1.0000
39.7300 856.0000 1.0000
39.7400 908.0000 1.0000
39.7500 896.0000 1.0000
39.7600 867.0000 1.0000
39.7700 891.0000 1.0000
39.7800 849.0000 1.0000
39.7900 849.0000 1.0000
39.8000 847.0000 1.0000
39.8100 863.0000 1.0000
39.8200 852.0000 1.0000
39.8300 871.0000 1.0000
39.8400 863.0000 1.0000
39.8500 845.0000 1.0000
39.8600 811.0000 1.0000
39.8700 799.0000 1.0000
39.8800 858.0000 1.0000
39.8900 786.0000 1.0000
39.9000 814.0000 1.0000
39.9100 792.0000 1.0000
39.9200 801.0000 1.0000
39.9300 871.0000 1.0000
39.9400 842.0000 1.0000
39.9500 878.0000 1.0000
39.9600 820.0000 1.0000
39.9700 794.0000 1.0000
39.9800 873.0000 1.0000
39.9900 829.0000 1.0000
40.0000 817.0000 1.0000
40.0100 817.0000 1.0000
40.0200 863.0000 1.0000
40.0300 892.0000 1.0000
40.0400 840.0000 1.0000
40.0500 823.0000 1.0000
40.0600 836.0000 1.0000
40.0700 804.0000 1.0000
40.0800 834.0000 1.0000
40.0900 797.0000 1.0000
40.1000 818.0000 1.0000
40.1100 837.0000 1.0000
40.1200 810.0000 1.0000
40.1300 795.0000 1.0000
40.1400 858.0000 1.0000
40.1500 813.0000 1.0000
40.1600 836.0000 1.0000
40.1700 804.0000 1.0000
40.1800 810.0000 1.0000
40.1900 818.0000 1.0000
40.2000 809.0000 1.0000
40.2100 775.0000 1.0000
40.2200 821.0000 1.0000
40.2300 827.0000 1.0000
40.2400 793.0000 1.0000
40.2500 778.0000 1.0000
40.2600 789.0000 1.0000
40.2700 832.0000 1.0000
40.2800 844.0000 1.0000
40.2900 823.0000 1.0000
40.3000 815.0000 1.0000
40.3100 772.0000 1.0000
40.3200 840.0000 1.0000
40.3300 809.0000 1.0000
40.3400 853.0000 1.0000
40.3500 834.0000 1.0000
40.3600 838.0000 1.0000
40.3700 805.0000 1.0000
40.3800 812.0000 1.0000
40.3900 828.0000 1.0000
40.4000 789.0000 1.0000
40.4100 804.0000 1.0000
40.4200 760.0000 1.0000
40.4300 770.0000 1.0000
40.4400 772.0000 1.0000
40.4500 809.0000 1.0000
40.4600 769.0000 1.0000
40.4700 798.0000 1.0000
40.4800 811.0000 1.0000
40.4900 808.0000 1.0000
40.5000 799.0000 1.0000
40.5100 792.0000 1.0000
40.5200 830.0000 1.0000
40.5300 779.0000 1.0000
40.5400 783.0000 1.0000
40.5500 809.0000 1.0000
40.5600 793.0000 1.0000
40.5700 820.0000 1.0000
40.5800 813.0000 1.0000
40.5900 798.0000 1.0000
40.6000 776.0000 1.0000
40.6100 789.0000 1.0000
40.6200 777.0000 1.0000
40.6300 759.0000 1.0000
40.6400 780.0000 1.0000
40.6500 794.0000 1.0000
40.6600 764.0000 1.0000
40.6700 784.0000 1.0000
40.6800 796.0000 1.0000
40.6900 825.0000 1.0000
40.7000 820.0000 1.0000
40.7100 785.0000 1.0000
40.7200 761.0000 1.0000
40.7300 822.0000 1.0000
40.7400 795.0000 1.0000
40.7500 776.0000 1.0000
40.7600 764.0000 1.0000
40.7700 774.0000 1.0000
40.7800 764.0000 1.0000
40.7900 804.0000 1.0000
40.8000 827.0000 1.0000
40.8100 818.0000 1.0000
40.8200 787.0000 1.0000
40.8300 803.0000 1.0000
40.8400 765.0000 1.0000
40.8500 776.0000 1.0000
40.8600 740.0000 1.0000
40.8700 782.0000 1.0000
40.8800 772.0000 1.0000
40.8900 793.0000 1.0000
40.9000 774.0000 1.0000
40.9100 786.0000 1.0000
40.9200 776.0000 1.0000
40.9300 751.0000 1.0000
40.9400 776.0000 1.0000
40.9500 808.0000 1.0000
40.9600 798.0000 1.0000
40.9700 812.0000 1.0000
40.9800 761.0000 1.0000
40.9900 784.0000 1.0000
41.0000 787.0000 1.0000
41.0100 795.0000 1.0000
41.0200 782.0000 1.0000
41.0300 780.0000 1.0000
41.0400 738.0000 1.0000
41.0500 729.0000 1.0000
41.0600 782.0000 1.0000
41.0700 793.0000 1.0000
41.0800 832.0000 1.0000
41.0900 768.0000 1.0000
41.1000 779.0000 1.0000
41.1100 737.0000 1.0000
41.1200 762.0000 1.0000
41.1300 815.0000 1.0000
41.1400 761.0000 1.0000
41.1500 763.0000 1.0000
41.1600 755.0000 1.0000
41.1700 778.0000 1.0000
41.1800 757.0000 1.0000
41.1900 795.0000 1.0000
41.2000 816.0000 1.0000
41.2100 812.0000 1.0000
41.2200 796.0000 1.0000
41.2300 789.0000 1.0000
41.2400 793.0000 1.0000
41.2500 778.0000 1.0000
41.2600 777.0000 1.0000
41.2700 740.0000 1.0000
41.2800 762.0000 1.0000
41.2900 777.0000 1.0000
41.3000 821.0000 1.0000
41.3100 797.0000 1.0000
41.3200 813.0000 1.0000
41.3300 750.0000 1.0000
41.3400 804.0000 1.0000
41.3500 765.0000 1.0000
41.3600 744.0000 1.0000
41.3700 815.0000 1.0000
41.3800 797.0000 1.0000
41.3900 773.0000 1.0000
41.4000 783.0000 1.0000
41.4100 774.0000 1.0000
41.4200 802.0000 1.0000
41.4300 811.0000 1.0000
41.4400 778.0000 1.0000
41.4500 792.0000 1.0000
41.4600 800.0000 1.0000
41.4700 780.0000 1.0000
41.4800 778.0000 1.0000
41.4900 793.0000 1.0000
41.5000 818.0000 1.0000
41.5100 732.0000 1.0000
41.5200 763.0000 1.0000
41.5300 791.0000 1.0000
41.5400 807.0000 1.0000
41.5500 801.0000 1.0000
41.5600 767.0000 1.0000
41.5700 765.0000 1.0000
41.5800 758.0000 1.0000
41.5900 760.0000 1.0000
41.6000 760.0000 1.0000
41.6100 803.0000 1.0000
41.6200 824.0000 1.0000
41.6300 764.0000 1.0000
41.6400 829.0000 1.0000
41.6500 759.0000 1.0000
41.6600 747.0000 1.0000
41.6700 751.0000 1.0000
41.6800 773.0000 1.0000
41.6900 790.0000 1.0000
41.7000 747.0000 1.0000
41.7100 779.0000 1.0000
41.7200 769.0000 1.0000
41.7300 762.0000 1.0000
41.7400 804.0000 1.0000
41.7500 799.0000 1.0000
41.7600 772.0000 1.0000
41.7700 775.0000 1.0000
41.7800 782.0000 1.0000
41.7900 777.0000 1.0000
41.8000 809.0000 1.0000
41.8100 771.0000 1.0000
41.8200 816.0000 1.0000
41.8300 793.0000 1.0000
41.8400 755.0000 1.0000
41.8500 761.0000 1.0000
41.8600 776.0000 1.0000
41.8700 753.0000 1.0000
41.8800 754.0000 1.0000
41.8900 722.0000 1.0000
41.9000 771.0000 1.0000
41.9100 784.0000 1.0000
41.9200 776.0000 1.0000
41.9300 812.0000 1.0000
41.9400 813.0000 1.0000
41.9500 797.0000 1.0000
41.9600 783.0000 1.0000
41.9700 776.0000 1.0000
41.9800 762.0000 1.0000
41.9900 769.0000 1.0000
42.0000 817.0000 1.0000
42.0100 737.0000 1.0000
42.0200 819.0000 1.0000
42.0300 800.0000 1.0000
42.0400 777.0000 1.0000
42.0500 751.0000 1.0000
42.0600 741.0000 1.0000
42.0700 772.0000 1.0000
42.0800 758.0000 1.0000
42.0900 729.0000 1.0000
42.1000 757.0000 1.0000
42.1100 774.0000 1.0000
42.1200 787.0000 1.0000
42.1300 784.0000 1.0000
42.1400 785.0000 1.0000
42.1500 760.0000 1.0000
42.1600 732.0000 1.0000
42.1700 799.0000 1.0000
42.1800 767.0000 1.0000
42.1900 747.0000 1.0000
42.2000 738.0000 1.0000
42.2100 777.0000 1.0000
42.2200 768.0000 1.0000
42.2300 751.0000 1.0000
42.2400 764.0000 1.0000
42.2500 770.0000 1.0000
42.2600 779.0000 1.0000
42.2700 797.0000 1.0000
42.2800 833.0000 1.0000
42.2900 768.0000 1.0000
42.3000 759.0000 1.0000
42.3100 760.0000 1.0000
42.3200 801.0000 1.0000
42.3300 782.0000 1.0000
42.3400 759.0000 1.0000
42.3500 766.0000 1.0000
42.3600 754.0000 1.0000
42.3700 784.0000 1.0000
42.3800 750.0000 1.0000
42.3900 797.0000 1.0000
42.4000 786.0000 1.0000
42.4100 769.0000 1.0000
42.4200 763.0000 1.0000
42.4300 768.0000 1.0000
42.4400 775.0000 1.0000
42.4500 806.0000 1.0000
42.4600 724.0000 1.0000
42.4700 760.0000 1.0000
42.4800 780.0000 1.0000
42.4900 789.0000 1.0000
42.5000 776.0000 1.0000
42.5100 757.0000 1.0000
42.5200 771.0000 1.0000
42.5300 758.0000 1.0000
42.5400 759.0000 1.0000
42.5500 755.0000 1.0000
42.5600 740.0000 1.0000
42.5700 764.0000 1.0000
42.5800 766.0000 1.0000
42.5900 778.0000 1.0000
42.6000 761.0000 1.0000
42.6100 762.0000 1.0000
42.6200 759.0000 1.0000
42.6300 792.0000 1.0000
42.6400 780.0000 1.0000
42.6500 732.0000 1.0000
42.6600 767.0000 1.0000
42.6700 732.0000 1.0000
42.6800 738.0000 1.0000
42.6900 737.0000 1.0000
42.7000 771.0000 1.0000
42.7100 776.0000 1.0000
42.7200 781.0000 1.0000
42.7300 732.0000 1.0000
42.7400 797.0000 1.0000
42.7500 740.0000 1.0000
42.7600 773.0000 1.0000
42.7700 782.0000 1.0000
42.7800 787.0000 1.0000
42.7900 748.0000 1.0000
42.8000 769.0000 1.0000
42.8100 740.0000 1.0000
42.8200 760.0000 1.0000
42.8300 741.0000 1.0000
42.8400 745.0000 1.0000
42.8500 761.0000 1.0000
42.8600 795.0000 1.0000
42.8700 761.0000 1.0000
42.8800 754.0000 1.0000
42.8900 802.0000 1.0000
42.9000 774.0000 1.0000
42.9100 772.0000 1.0000
42.9200 774.0000 1.0000
42.9300 738.0000 1.0000
42.9400 770.0000 1.0000
42.9500 791.0000 1.0000
42.9600 763.0000 1.0000
42.9700 773.0000 1.0000
42.9800 756.0000 1.0000
42.9900 774.0000 1.0000
43.0000 740.0000 1.0000
43.0100 776.0000 1.0000
43.0200 780.0000 1.0000
43.0300 827.0000 1.0000
43.0400 768.0000 1.0000
43.0500 733.0000 1.0000
43.0600 793.0000 1.0000
43.0700 829.0000 1.0000
43.0800 787.0000 1.0000
43.0900 822.0000 1.0000
43.1000 820.0000 1.0000
43.1100 762.0000 1.0000
43.1200 828.0000 1.0000
43.1300 783.0000 1.0000
43.1400 846.0000 1.0000
43.1500 807.0000 1.0000
43.1600 832.0000 1.0000
43.1700 848.0000 1.0000
43.1800 880.0000 1.0000
43.1900 877.0000 1.0000
43.2000 860.0000 1.0000
43.2100 810.0000 1.0000
43.2200 861.0000 1.0000
43.2300 910.0000 1.0000
43.2400 847.0000 1.0000
43.2500 837.0000 1.0000
43.2600 860.0000 1.0000
43.2700 870.0000 1.0000
43.2800 866.0000 1.0000
43.2900 814.0000 1.0000
43.3000 840.0000 1.0000
43.3100 825.0000 1.0000
43.3200 841.0000 1.0000
43.3300 856.0000 1.0000
43.3400 788.0000 1.0000
43.3500 810.0000 1.0000
43.3600 829.0000 1.0000
43.3700 797.0000 1.0000
43.3800 801.0000 1.0000
43.3900 810.0000 1.0000
43.4000 789.0000 1.0000
43.4100 763.0000 1.0000
43.4200 811.0000 1.0000
43.4300 785.0000 1.0000
43.4400 795.0000 1.0000
43.4500 767.0000 1.0000
43.4600 755.0000 1.0000
43.4700 757.0000 1.0000
43.4800 753.0000 1.0000
43.4900 797.0000 1.0000
43.5000 814.0000 1.0000
43.5100 765.0000 1.0000
43.5200 769.0000 1.0000
43.5300 711.0000 1.0000
43.5400 766.0000 1.0000
43.5500 749.0000 1.0000
43.5600 759.0000 1.0000
43.5700 759.0000 1.0000
43.5800 754.0000 1.0000
43.5900 751.0000 1.0000
43.6000 703.0000 1.0000
43.6100 752.0000 1.0000
43.6200 790.0000 1.0000
43.6300 750.0000 1.0000
43.6400 772.0000 1.0000
43.6500 773.0000 1.0000
43.6600 740.0000 1.0000
43.6700 753.0000 1.0000
43.6800 756.0000 1.0000
43.6900 759.0000 1.0000
43.7000 779.0000 1.0000
43.7100 779.0000 1.0000
43.7200 704.0000 1.0000
43.7300 766.0000 1.0000
43.7400 734.0000 1.0000
43.7500 728.0000 1.0000
43.7600 761.0000 1.0000
43.7700 729.0000 1.0000
43.7800 755.0000 1.0000
43.7900 745.0000 1.0000
43.8000 797.0000 1.0000
43.8100 785.0000 1.0000
43.8200 750.0000 1.0000
43.8300 762.0000 1.0000
43.8400 739.0000 1.0000
43.8500 734.0000 1.0000
43.8600 709.0000 1.0000
43.8700 737.0000 1.0000
43.8800 754.0000 1.0000
43.8900 773.0000 1.0000
43.9000 728.0000 1.0000
43.9100 764.0000 1.0000
43.9200 782.0000 1.0000
43.9300 752.0000 1.0000
43.9400 723.0000 1.0000
43.9500 750.0000 1.0000
43.9600 747.0000 1.0000
43.9700 753.0000 1.0000
43.9800 742.0000 1.0000
43.9900 705.0000 1.0000
44.0000 768.0000 1.0000
44.0100 756.0000 1.0000
44.0200 740.0000 1.0000
44.0300 769.0000 1.0000
44.0400 775.0000 1.0000
44.0500 717.0000 1.0000
44.0600 694.0000 1.0000
44.0700 763.0000 1.0000
44.0800 772.0000 1.0000
44.0900 751.0000 1.0000
44.1000 744.0000 1.0000
44.1100 759.0000 1.0000
44.1200 758.0000 1.0000
44.1300 764.0000 1.0000
44.1400 789.0000 1.0000
44.1500 733.0000 1.0000
44.1600 710.0000 1.0000
44.1700 679.0000 1.0000
44.1800 766.0000 1.0000
44.1900 730.0000 1.0000
44.2000 757.0000 1.0000
44.2100 764.0000 1.0000
44.2200 743.0000 1.0000
44.2300 760.0000 1.0000
44.2400 747.0000 1.0000
44.2500 736.0000 1.0000
44.2600 725.0000 1.0000
44.2700 686.0000 1.0000
44.2800 768.0000 1.0000
44.2900 762.0000 1.0000
44.3000 706.0000 1.0000
44.3100 742.0000 1.0000
44.3200 751.0000 1.0000
44.3300 726.0000 1.0000
44.3400 745.0000 1.0000
44.3500 735.0000 1.0000
44.3600 708.0000 1.0000
44.3700 754.0000 1.0000
44.3800 764.0000 1.0000
44.3900 759.0000 1.0000
44.4000 756.0000 1.0000
44.4100 748.0000 1.0000
44.4200 754.0000 1.0000
44.4300 749.0000 1.0000
44.4400 731.0000 1.0000
44.4500 777.0000 1.0000
44.4600 789.0000 1.0000
44.4700 744.0000 1.0000
44.4800 710.0000 1.0000
44.4900 696.0000 1.0000
44.5000 755.0000 1.0000
44.5100 733.0000 1.0000
44.5200 731.0000 1.0000
44.5300 745.0000 1.0000
44.5400 746.0000 1.0000
44.5500 739.0000 1.0000
44.5600 725.0000 1.0000
44.5700 709.0000 1.0000
44.5800 746.0000 1.0000
44.5900 738.0000 1.0000
44.6000 732.0000 1.0000
44.6100 739.0000 1.0000
44.6200 746.0000 1.0000
44.6300 734.0000 1.0000
44.6400 779.0000 1.0000
44.6500 705.0000 1.0000
44.6600 763.0000 1.0000
44.6700 740.0000 1.0000
44.6800 714.0000 1.0000
44.6900 744.0000 1.0000
44.7000 731.0000 1.0000
44.7100 740.0000 1.0000
44.7200 735.0000 1.0000
44.7300 714.0000 1.0000
44.7400 738.0000 1.0000
44.7500 764.0000 1.0000
44.7600 698.0000 1.0000
44.7700 704.0000 1.0000
44.7800 739.0000 1.0000
44.7900 724.0000 1.0000
44.8000 708.0000 1.0000
44.8100 720.0000 1.0000
44.8200 725.0000 1.0000
44.8300 700.0000 1.0000
44.8400 693.0000 1.0000
44.8500 738.0000 1.0000
44.8600 698.0000 1.0000
44.8700 727.0000 1.0000
44.8800 710.0000 1.0000
44.8900 739.0000 1.0000
44.9000 770.0000 1.0000
44.9100 730.0000 1.0000
44.9200 707.0000 1.0000
44.9300 747.0000 1.0000
44.9400 691.0000 1.0000
44.9500 720.0000 1.0000
44.9600 750.0000 1.0000
44.9700 692.0000 1.0000
44.9800 721.0000 1.0000
44.9900 745.0000 1.0000
45.0000 734.0000 1.0000
45.0100 743.0000 1.0000
45.0200 679.0000 1.0000
45.0300 728.0000 1.0000
45.0400 704.0000 1.0000
45.0500 759.0000 1.0000
45.0600 776.0000 1.0000
45.0700 734.0000 1.0000
45.0800 710.0000 1.0000
45.0900 730.0000 1.0000
45.1000 727.0000 1.0000
45.1100 656.0000 1.0000
45.1200 737.0000 1.0000
45.1300 756.0000 1.0000
45.1400 727.0000 1.0000
45.1500 695.0000 1.0000
45.1600 714.0000 1.0000
45.1700 723.0000 1.0000
45.1800 738.0000 1.0000
45.1900 717.0000 1.0000
45.2000 742.0000 1.0000
45.2100 737.0000 1.0000
45.2200 764.0000 1.0000
45.2300 748.0000 1.0000
45.2400 740.0000 1.0000
45.2500 711.0000 1.0000
45.2600 721.0000 1.0000
45.2700 711.0000 1.0000
45.2800 710.0000 1.0000
45.2900 743.0000 1.0000
45.3000 683.0000 1.0000
45.3100 737.0000 1.0000
45.3200 758.0000 1.0000
45.3300 717.0000 1.0000
45.3400 716.0000 1.0000
45.3500 750.0000 1.0000
45.3600 719.0000 1.0000
45.3700 710.0000 1.0000
45.3800 722.0000 1.0000
45.3900 734.0000 1.0000
45.4000 681.0000 1.0000
45.4100 726.0000 1.0000
45.4200 721.0000 1.0000
45.4300 729.0000 1.0000
45.4400 720.0000 1.0000
45.4500 692.0000 1.0000
45.4600 685.0000 1.0000
45.4700 755.0000 1.0000
45.4800 704.0000 1.0000
45.4900 771.0000 1.0000
45.5000 713.0000 1.0000
45.5100 720.0000 1.0000
45.5200 731.0000 1.0000
45.5300 728.0000 1.0000
45.5400 732.0000 1.0000
45.5500 723.0000 1.0000
45.5600 703.0000 1.0000
45.5700 707.0000 1.0000
45.5800 719.0000 1.0000
45.5900 683.0000 1.0000
45.6000 721.0000 1.0000
45.6100 715.0000 1.0000
45.6200 702.0000 1.0000
45.6300 648.0000 1.0000
45.6400 715.0000 1.0000
45.6500 712.0000 1.0000
45.6600 772.0000 1.0000
45.6700 704.0000 1.0000
45.6800 708.0000 1.0000
45.6900 731.0000 1.0000
45.7000 709.0000 1.0000
45.7100 727.0000 1.0000
45.7200 726.0000 1.0000
45.7300 721.0000 1.0000
45.7400 725.0000 1.0000
45.7500 651.0000 1.0000
45.7600 716.0000 1.0000
45.7700 689.0000 1.0000
45.7800 670.0000 1.0000
45.7900 683.0000 1.0000
45.8000 712.0000 1.0000
45.8100 719.0000 1.0000
45.8200 729.0000 1.0000
45.8300 726.0000 1.0000
45.8400 737.0000 1.0000
45.8500 690.0000 1.0000
45.8600 712.0000 1.0000
45.8700 688.0000 1.0000
45.8800 714.0000 1.0000
45.8900 722.0000 1.0000
45.9000 700.0000 1.0000
45.9100 744.0000 1.0000
45.9200 714.0000 1.0000
45.9300 739.0000 1.0000
45.9400 708.0000 1.0000
45.9500 711.0000 1.0000
45.9600 717.0000 1.0000
45.9700 707.0000 1.0000
45.9800 687.0000 1.0000
45.9900 698.0000 1.0000
46.0000 721.0000 1.0000
46.0100 750.0000 1.0000
46.0200 715.0000 1.0000
46.0300 680.0000 1.0000
46.0400 713.0000 1.0000
46.0500 656.0000 1.0000
46.0600 685.0000 1.0000
46.0700 698.0000 1.0000
46.0800 681.0000 1.0000
46.0900 728.0000 1.0000
46.1000 718.0000 1.0000
46.1100 687.0000 1.0000
46.1200 672.0000 1.0000
46.1300 670.0000 1.0000
46.1400 658.0000 1.0000
46.1500 705.0000 1.0000
46.1600 695.0000 1.0000
46.1700 713.0000 1.0000
46.1800 713.0000 1.0000
46.1900 708.0000 1.0000
46.2000 681.0000 1.0000
46.2100 696.0000 1.0000
46.2200 687.0000 1.0000
46.2300 670.0000 1.0000
46.2400 697.0000 1.0000
46.2500 695.0000 1.0000
46.2600 680.0000 1.0000
46.2700 668.0000 1.0000
46.2800 707.0000 1.0000
46.2900 726.0000 1.0000
46.3000 725.0000 1.0000
46.3100 742.0000 1.0000
46.3200 718.0000 1.0000
46.3300 700.0000 1.0000
46.3400 675.0000 1.0000
46.3500 684.0000 1.0000
46.3600 692.0000 1.0000
46.3700 697.0000 1.0000
46.3800 714.0000 1.0000
46.3900 649.0000 1.0000
46.4000 706.0000 1.0000
46.4100 687.0000 1.0000
46.4200 723.0000 1.0000
46.4300 717.0000 1.0000
46.4400 700.0000 1.0000
46.4500 717.0000 1.0000
46.4600 722.0000 1.0000
46.4700 664.0000 1.0000
46.4800 694.0000 1.0000
46.4900 684.0000 1.0000
46.5000 703.0000 1.0000
46.5100 707.0000 1.0000
46.5200 684.0000 1.0000
46.5300 699.0000 1.0000
46.5400 698.0000 1.0000
46.5500 684.0000 1.0000
46.5600 688.0000 1.0000
46.5700 654.0000 1.0000
46.5800 664.0000 1.0000
46.5900 694.0000 1.0000
46.6000 693.0000 1.0000
46.6100 676.0000 1.0000
46.6200 680.0000 1.0000
46.6300 699.0000 1.0000
46.6400 716.0000 1.0000
46.6500 714.0000 1.0000
46.6600 691.0000 1.0000
46.6700 675.0000 1.0000
46.6800 691.0000 1.0000
46.6900 667.0000 1.0000
46.7000 652.0000 1.0000
46.7100 685.0000 1.0000
46.7200 689.0000 1.0000
46.7300 695.0000 1.0000
46.7400 722.0000 1.0000
46.7500 705.0000 1.0000
46.7600 688.0000 1.0000
46.7700 723.0000 1.0000
46.7800 730.0000 1.0000
46.7900 686.0000 1.0000
46.8000 732.0000 1.0000
46.8100 684.0000 1.0000
46.8200 709.0000 1.0000
46.8300 685.0000 1.0000
46.8400 710.0000 1.0000
46.8500 696.0000 1.0000
46.8600 714.0000 1.0000
46.8700 708.0000 1.0000
46.8800 739.0000 1.0000
46.8900 712.0000 1.0000
46.9000 721.0000 1.0000
46.9100 732.0000 1.0000
46.9200 745.0000 1.0000
46.9300 757.0000 1.0000
46.9400 704.0000 1.0000
46.9500 710.0000 1.0000
46.9600 701.0000 1.0000
46.9700 704.0000 1.0000
46.9800 715.0000 1.0000
46.9900 703.0000 1.0000
47.0000 713.0000 1.0000
47.0100 689.0000 1.0000
47.0200 705.0000 1.0000
47.0300 696.0000 1.0000
47.0400 715.0000 1.0000
47.0500 731.0000 1.0000
47.0600 718.0000 1.0000
47.0700 697.0000 1.0000
47.0800 662.0000 1.0000
47.0900 686.0000 1.0000
47.1000 715.0000 1.0000
47.1100 712.0000 1.0000
47.1200 723.0000 1.0000
47.1300 707.0000 1.0000
47.1400 681.0000 1.0000
47.1500 704.0000 1.0000
47.1600 701.0000 1.0000
47.1700 681.0000 1.0000
47.1800 697.0000 1.0000
47.1900 664.0000 1.0000
47.2000 667.0000 1.0000
47.2100 675.0000 1.0000
47.2200 688.0000 1.0000
47.2300 688.0000 1.0000
47.2400 662.0000 1.0000
47.2500 692.0000 1.0000
47.2600 661.0000 1.0000
47.2700 674.0000 1.0000
47.2800 674.0000 1.0000
47.2900 679.0000 1.0000
47.3000 701.0000 1.0000
47.3100 649.0000 1.0000
47.3200 731.0000 1.0000
47.3300 701.0000 1.0000
47.3400 668.0000 1.0000
47.3500 675.0000 1.0000
47.3600 709.0000 1.0000
47.3700 678.0000 1.0000
47.3800 690.0000 1.0000
47.3900 672.0000 1.0000
47.4000 694.0000 1.0000
47.4100 753.0000 1.0000
47.4200 679.0000 1.0000
47.4300 663.0000 1.0000
47.4400 647.0000 1.0000
47.4500 706.0000 1.0000
47.4600 659.0000 1.0000
47.4700 626.0000 1.0000
47.4800 676.0000 1.0000
47.4900 720.0000 1.0000
47.5000 702.0000 1.0000
47.5100 647.0000 1.0000
47.5200 672.0000 1.0000
47.5300 619.0000 1.0000
47.5400 699.0000 1.0000
47.5500 703.0000 1.0000
47.5600 682.0000 1.0000
47.5700 673.0000 1.0000
47.5800 638.0000 1.0000
47.5900 720.0000 1.0000
47.6000 711.0000 1.0000
47.6100 671.0000 1.0000
47.6200 667.0000 1.0000
47.6300 661.0000 1.0000
47.6400 721.0000 1.0000
47.6500 681.0000 1.0000
47.6600 684.0000 1.0000
47.6700 661.0000 1.0000
47.6800 673.0000 1.0000
47.6900 654.0000 1.0000
47.7000 672.0000 1.0000
47.7100 678.0000 1.0000
47.7200 655.0000 1.0000
47.7300 702.0000 1.0000
47.7400 686.0000 1.0000
47.7500 712.0000 1.0000
47.7600 657.0000 1.0000
47.7700 686.0000 1.0000
47.7800 674.0000 1.0000
47.7900 669.0000 1.0000
47.8000 678.0000 1.0000
47.8100 682.0000 1.0000
47.8200 699.0000 1.0000
47.8300 683.0000 1.0000
47.8400 649.0000 1.0000
47.8500 694.0000 1.0000
47.8600 689.0000 1.0000
47.8700 659.0000 1.0000
47.8800 650.0000 1.0000
47.8900 661.0000 1.0000
47.9000 646.0000 1.0000
47.9100 657.0000 1.0000
47.9200 652.0000 1.0000
47.9300 655.0000 1.0000
47.9400 688.0000 1.0000
47.9500 670.0000 1.0000
47.9600 679.0000 1.0000
47.9700 646.0000 1.0000
47.9800 678.0000 1.0000
47.9900 669.0000 1.0000
48.0000 715.0000 1.0000
48.0100 653.0000 1.0000
48.0200 670.0000 1.0000
48.0300 634.0000 1.0000
48.0400 663.0000 1.0000
48.0500 639.0000 1.0000
48.0600 652.0000 1.0000
48.0700 672.0000 1.0000
48.0800 673.0000 1.0000
48.0900 675.0000 1.0000
48.1000 725.0000 1.0000
48.1100 682.0000 1.0000
48.1200 703.0000 1.0000
48.1300 643.0000 1.0000
48.1400 676.0000 1.0000
48.1500 680.0000 1.0000
48.1600 692.0000 1.0000
48.1700 705.0000 1.0000
48.1800 630.0000 1.0000
48.1900 701.0000 1.0000
48.2000 624.0000 1.0000
48.2100 689.0000 1.0000
48.2200 670.0000 1.0000
48.2300 666.0000 1.0000
48.2400 660.0000 1.0000
48.2500 673.0000 1.0000
48.2600 666.0000 1.0000
48.2700 675.0000 1.0000
48.2800 665.0000 1.0000
48.2900 687.0000 1.0000
48.3000 667.0000 1.0000
48.3100 622.0000 1.0000
48.3200 666.0000 1.0000
48.3300 689.0000 1.0000
48.3400 688.0000 1.0000
48.3500 705.0000 1.0000
48.3600 677.0000 1.0000
48.3700 681.0000 1.0000
48.3800 663.0000 1.0000
48.3900 687.0000 1.0000
48.4000 670.0000 1.0000
48.4100 680.0000 1.0000
48.4200 675.0000 1.0000
48.4300 636.0000 1.0000
48.4400 633.0000 1.0000
48.4500 667.0000 1.0000
48.4600 641.0000 1.0000
48.4700 669.0000 1.0000
48.4800 639.0000 1.0000
48.4900 638.0000 1.0000
48.5000 659.0000 1.0000
48.5100 654.0000 1.0000
48.5200 652.0000 1.0000
48.5300 694.0000 1.0000
48.5400 693.0000 1.0000
48.5500 652.0000 1.0000
48.5600 655.0000 1.0000
48.5700 639.0000 1.0000
48.5800 664.0000 1.0000
48.5900 688.0000 1.0000
48.6000 682.0000 1.0000
48.6100 661.0000 1.0000
48.6200 681.0000 1.0000
48.6300 620.0000 1.0000
48.6400 646.0000 1.0000
48.6500 650.0000 1.0000
48.6600 666.0000 1.0000
48.6700 697.0000 1.0000
48.6800 658.0000 1.0000
48.6900 656.0000 1.0000
48.7000 660.0000 1.0000
48.7100 716.0000 1.0000
48.7200 624.0000 1.0000
48.7300 663.0000 1.0000
48.7400 640.0000 1.0000
48.7500 672.0000 1.0000
48.7600 635.0000 1.0000
48.7700 658.0000 1.0000
48.7800 654.0000 1.0000
48.7900 663.0000 1.0000
48.8000 608.0000 1.0000
48.8100 645.0000 1.0000
48.8200 655.0000 1.0000
48.8300 652.0000 1.0000
48.8400 645.0000 1.0000
48.8500 632.0000 1.0000
48.8600 631.0000 1.0000
48.8700 672.0000 1.0000
48.8800 639.0000 1.0000
48.8900 633.0000 1.0000
48.9000 642.0000 1.0000
48.9100 628.0000 1.0000
48.9200 643.0000 1.0000
48.9300 659.0000 1.0000
48.9400 699.0000 1.0000
48.9500 642.0000 1.0000
48.9600 647.0000 1.0000
48.9700 633.0000 1.0000
48.9800 620.0000 1.0000
48.9900 630.0000 1.0000
49.0000 617.0000 1.0000
49.0100 610.0000 1.0000
49.0200 704.0000 1.0000
49.0300 669.0000 1.0000
49.0400 654.0000 1.0000
49.0500 637.0000 1.0000
49.0600 658.0000 1.0000
49.0700 644.0000 1.0000
49.0800 704.0000 1.0000
49.0900 679.0000 1.0000
49.1000 671.0000 1.0000
49.1100 683.0000 1.0000
49.1200 668.0000 1.0000
49.1300 604.0000 1.0000
49.1400 659.0000 1.0000
49.1500 657.0000 1.0000
49.1600 617.0000 1.0000
49.1700 655.0000 1.0000
49.1800 600.0000 1.0000
49.1900 679.0000 1.0000
49.2000 694.0000 1.0000
49.2100 631.0000 1.0000
49.2200 683.0000 1.0000
49.2300 649.0000 1.0000
49.2400 632.0000 1.0000
49.2500 634.0000 1.0000
49.2600 641.0000 1.0000
49.2700 631.0000 1.0000
49.2800 670.0000 1.0000
49.2900 623.0000 1.0000
49.3000 652.0000 1.0000
49.3100 623.0000 1.0000
49.3200 641.0000 1.0000
49.3300 646.0000 1.0000
49.3400 659.0000 1.0000
49.3500 634.0000 1.0000
49.3600 619.0000 1.0000
49.3700 621.0000 1.0000
49.3800 652.0000 1.0000
49.3900 659.0000 1.0000
49.4000 640.0000 1.0000
49.4100 655.0000 1.0000
49.4200 656.0000 1.0000
49.4300 634.0000 1.0000
49.4400 666.0000 1.0000
49.4500 617.0000 1.0000
49.4600 626.0000 1.0000
49.4700 649.0000 1.0000
49.4800 667.0000 1.0000
49.4900 634.0000 1.0000
49.5000 625.0000 1.0000
49.5100 653.0000 1.0000
49.5200 656.0000 1.0000
49.5300 622.0000 1.0000
49.5400 671.0000 1.0000
49.5500 674.0000 1.0000
49.5600 665.0000 1.0000
49.5700 633.0000 1.0000
49.5800 620.0000 1.0000
49.5900 634.0000 1.0000
49.6000 674.0000 1.0000
49.6100 693.0000 1.0000
49.6200 648.0000 1.0000
49.6300 672.0000 1.0000
49.6400 610.0000 1.0000
49.6500 625.0000 1.0000
49.6600 651.0000 1.0000
49.6700 664.0000 1.0000
49.6800 640.0000 1.0000
49.6900 648.0000 1.0000
49.7000 635.0000 1.0000
49.7100 620.0000 1.0000
49.7200 644.0000 1.0000
49.7300 669.0000 1.0000
49.7400 633.0000 1.0000
49.7500 665.0000 1.0000
49.7600 637.0000 1.0000
49.7700 632.0000 1.0000
49.7800 639.0000 1.0000
49.7900 668.0000 1.0000
49.8000 619.0000 1.0000
49.8100 644.0000 1.0000
49.8200 694.0000 1.0000
49.8300 672.0000 1.0000
49.8400 652.0000 1.0000
49.8500 681.0000 1.0000
49.8600 660.0000 1.0000
49.8700 645.0000 1.0000
49.8800 643.0000 1.0000
49.8900 639.0000 1.0000
49.9000 636.0000 1.0000
49.9100 653.0000 1.0000
49.9200 638.0000 1.0000
49.9300 620.0000 1.0000
49.9400 675.0000 1.0000
49.9500 666.0000 1.0000
49.9600 655.0000 1.0000
49.9700 621.0000 1.0000
49.9800 647.0000 1.0000
49.9900 654.0000 1.0000
50.0000 650.0000 1.0000
50.0100 660.0000 1.0000
50.0200 681.0000 1.0000
50.0300 673.0000 1.0000
50.0400 652.0000 1.0000
50.0500 644.0000 1.0000
50.0600 627.0000 1.0000
50.0700 662.0000 1.0000
50.0800 658.0000 1.0000
50.0900 660.0000 1.0000
50.1000 653.0000 1.0000
50.1100 631.0000 1.0000
50.1200 655.0000 1.0000
50.1300 636.0000 1.0000
50.1400 662.0000 1.0000
50.1500 649.0000 1.0000
50.1600 647.0000 1.0000
50.1700 672.0000 1.0000
50.1800 682.0000 1.0000
50.1900 638.0000 1.0000
50.2000 657.0000 1.0000
50.2100 688.0000 1.0000
50.2200 683.0000 1.0000
50.2300 648.0000 1.0000
50.2400 657.0000 1.0000
50.2500 633.0000 1.0000
50.2600 654.0000 1.0000
50.2700 663.0000 1.0000
50.2800 670.0000 1.0000
50.2900 625.0000 1.0000
50.3000 638.0000 1.0000
50.3100 687.0000 1.0000
50.3200 634.0000 1.0000
50.3300 642.0000 1.0000
50.3400 652.0000 1.0000
50.3500 645.0000 1.0000
50.3600 649.0000 1.0000
50.3700 693.0000 1.0000
50.3800 689.0000 1.0000
50.3900 672.0000 1.0000
50.4000 694.0000 1.0000
50.4100 712.0000 1.0000
50.4200 669.0000 1.0000
50.4300 693.0000 1.0000
50.4400 684.0000 1.0000
50.4500 663.0000 1.0000
50.4600 668.0000 1.0000
50.4700 685.0000 1.0000
50.4800 676.0000 1.0000
50.4900 688.0000 1.0000
50.5000 647.0000 1.0000
50.5100 654.0000 1.0000
50.5200 680.0000 1.0000
50.5300 687.0000 1.0000
50.5400 673.0000 1.0000
50.5500 665.0000 1.0000
50.5600 651.0000 1.0000
50.5700 612.0000 1.0000
50.5800 669.0000 1.0000
50.5900 693.0000 1.0000
50.6000 657.0000 1.0000
50.6100 663.0000 1.0000
50.6200 670.0000 1.0000
50.6300 712.0000 1.0000
50.6400 656.0000 1.0000
50.6500 687.0000 1.0000
50.6600 645.0000 1.0000
50.6700 627.0000 1.0000
50.6800 638.0000 1.0000
50.6900 642.0000 1.0000
50.7000 670.0000 1.0000
50.7100 662.0000 1.0000
50.7200 658.0000 1.0000
50.7300 690.0000 1.0000
50.7400 664.0000 1.0000
50.7500 641.0000 1.0000
50.7600 636.0000 1.0000
50.7700 650.0000 1.0000
50.7800 646.0000 1.0000
50.7900 682.0000 1.0000
50.8000 646.0000 1.0000
50.8100 670.0000 1.0000
50.8200 638.0000 1.0000
50.8300 674.0000 1.0000
50.8400 624.0000 1.0000
50.8500 654.0000 1.0000
50.8600 666.0000 1.0000
50.8700 676.0000 1.0000
50.8800 646.0000 1.0000
50.8900 717.0000 1.0000
50.9000 629.0000 1.0000
50.9100 677.0000 1.0000
50.9200 676.0000 1.0000
50.9300 673.0000 1.0000
50.9400 661.0000 1.0000
50.9500 673.0000 1.0000
50.9600 705.0000 1.0000
50.9700 645.0000 1.0000
50.9800 672.0000 1.0000
50.9900 665.0000 1.0000
51.0000 656.0000 1.0000
51.0100 645.0000 1.0000
51.0200 624.0000 1.0000
51.0300 685.0000 1.0000
51.0400 681.0000 1.0000
51.0500 659.0000 1.0000
51.0600 662.0000 1.0000
51.0700 665.0000 1.0000
51.0800 676.0000 1.0000
51.0900 715.0000 1.0000
51.1000 666.0000 1.0000
51.1100 620.0000 1.0000
51.1200 620.0000 1.0000
51.1300 658.0000 1.0000
51.1400 655.0000 1.0000
51.1500 693.0000 1.0000
51.1600 664.0000 1.0000
51.1700 670.0000 1.0000
51.1800 696.0000 1.0000
51.1900 670.0000 1.0000
51.2000 660.0000 1.0000
51.2100 664.0000 1.0000
51.2200 661.0000 1.0000
51.2300 608.0000 1.0000
51.2400 679.0000 1.0000
51.2500 685.0000 1.0000
51.2600 663.0000 1.0000
51.2700 661.0000 1.0000
51.2800 639.0000 1.0000
51.2900 643.0000 1.0000
51.3000 665.0000 1.0000
51.3100 652.0000 1.0000
51.3200 643.0000 1.0000
51.3300 687.0000 1.0000
51.3400 691.0000 1.0000
51.3500 724.0000 1.0000
51.3600 684.0000 1.0000
51.3700 652.0000 1.0000
51.3800 669.0000 1.0000
51.3900 663.0000 1.0000
51.4000 672.0000 1.0000
51.4100 718.0000 1.0000
51.4200 689.0000 1.0000
51.4300 661.0000 1.0000
51.4400 682.0000 1.0000
51.4500 717.0000 1.0000
51.4600 648.0000 1.0000
51.4700 717.0000 1.0000
51.4800 706.0000 1.0000
51.4900 676.0000 1.0000
51.5000 676.0000 1.0000
51.5100 714.0000 1.0000
51.5200 682.0000 1.0000
51.5300 682.0000 1.0000
51.5400 681.0000 1.0000
51.5500 660.0000 1.0000
51.5600 687.0000 1.0000
51.5700 681.0000 1.0000
51.5800 672.0000 1.0000
51.5900 721.0000 1.0000
51.6000 692.0000 1.0000
51.6100 691.0000 1.0000
51.6200 686.0000 1.0000
51.6300 725.0000 1.0000
51.6400 731.0000 1.0000
51.6500 705.0000 1.0000
51.6600 685.0000 1.0000
51.6700 702.0000 1.0000
51.6800 698.0000 1.0000
51.6900 693.0000 1.0000
51.7000 718.0000 1.0000
51.7100 731.0000 1.0000
51.7200 711.0000 1.0000
51.7300 723.0000 1.0000
51.7400 741.0000 1.0000
51.7500 702.0000 1.0000
51.7600 763.0000 1.0000
51.7700 762.0000 1.0000
51.7800 748.0000 1.0000
51.7900 710.0000 1.0000
51.8000 799.0000 1.0000
51.8100 753.0000 1.0000
51.8200 778.0000 1.0000
51.8300 769.0000 1.0000
51.8400 787.0000 1.0000
51.8500 821.0000 1.0000
51.8600 799.0000 1.0000
51.8700 825.0000 1.0000
51.8800 818.0000 1.0000
51.8900 831.0000 1.0000
51.9000 875.0000 1.0000
51.9100 907.0000 1.0000
51.9200 912.0000 1.0000
51.9300 947.0000 1.0000
51.9400 912.0000 1.0000
51.9500 955.0000 1.0000
51.9600 1067.0000 1.0000
51.9700 1092.0000 1.0000
51.9800 1080.0000 1.0000
51.9900 1069.0000 1.0000
52.0000 1143.0000 1.0000
52.0100 1161.0000 1.0000
52.0200 1266.0000 1.0000
52.0300 1342.0000 1.0000
52.0400 1325.0000 1.0000
52.0500 1363.0000 1.0000
52.0600 1545.0000 1.0000
52.0700 1480.0000 1.0000
52.0800 1586.0000 1.0000
52.0900 1670.0000 1.0000
52.1000 1844.0000 1.0000
52.1100 1940.0000 1.0000
52.1200 2202.0000 1.0000
52.1300 2326.0000 1.0000
52.1400 2452.0000 1.0000
52.1500 2711.0000 1.0000
52.1600 2915.0000 1.0000
52.1700 3244.0000 1.0000
52.1800 3506.0000 1.0000
52.1900 3862.0000 1.0000
52.2000 4280.0000 1.0000
52.2100 4606.0000 1.0000
52.2200 4981.0000 1.0000
52.2300 5212.0000 1.0000
52.2400 5444.0000 1.0000
52.2500 5537.0000 1.0000
52.2600 5660.0000 1.0000
52.2700 5624.0000 1.0000
52.2800 5638.0000 1.0000
52.2900 5605.0000 1.0000
52.3000 5414.0000 1.0000
52.3100 5001.0000 1.0000
52.3200 4895.0000 1.0000
52.3300 4806.0000 1.0000
52.3400 4656.0000 1.0000
52.3500 4661.0000 1.0000
52.3600 4593.0000 1.0000
52.3700 4410.0000 1.0000
52.3800 4206.0000 1.0000
52.3900 4173.0000 1.0000
52.4000 4106.0000 1.0000
52.4100 3882.0000 1.0000
52.4200 3666.0000 1.0000
52.4300 3492.0000 1.0000
52.4400 3284.0000 1.0000
52.4500 3051.0000 1.0000
52.4600 2826.0000 1.0000
52.4700 2549.0000 1.0000
52.4800 2402.0000 1.0000
52.4900 2183.0000 1.0000
52.5000 2034.0000 1.0000
52.5100 1838.0000 1.0000
52.5200 1814.0000 1.0000
52.5300 1655.0000 1.0000
52.5400 1578.0000 1.0000
52.5500 1460.0000 1.0000
52.5600 1430.0000 1.0000
52.5700 1369.0000 1.0000
52.5800 1309.0000 1.0000
52.5900 1288.0000 1.0000
52.6000 1213.0000 1.0000
52.6100 1152.0000 1.0000
52.6200 1208.0000 1.0000
52.6300 1098.0000 1.0000
52.6400 1011.0000 1.0000
52.6500 998.0000 1.0000
52.6600 1048.0000 1.0000
52.6700 1000.0000 1.0000
52.6800 918.0000 1.0000
52.6900 914.0000 1.0000
52.7000 915.0000 1.0000
52.7100 937.0000 1.0000
52.7200 908.0000 1.0000
52.7300 840.0000 1.0000
52.7400 846.0000 1.0000
52.7500 837.0000 1.0000
52.7600 808.0000 1.0000
52.7700 817.0000 1.0000
52.7800 823.0000 1.0000
52.7900 795.0000 1.0000
52.8000 794.0000 1.0000
52.8100 804.0000 1.0000
52.8200 822.0000 1.0000
52.8300 799.0000 1.0000
52.8400 753.0000 1.0000
52.8500 749.0000 1.0000
52.8600 775.0000 1.0000
52.8700 743.0000 1.0000
52.8800 778.0000 1.0000
52.8900 746.0000 1.0000
52.9000 741.0000 1.0000
52.9100 748.0000 1.0000
52.9200 736.0000 1.0000
52.9300 763.0000 1.0000
52.9400 744.0000 1.0000
52.9500 766.0000 1.0000
52.9600 779.0000 1.0000
52.9700 724.0000 1.0000
52.9800 709.0000 1.0000
52.9900 691.0000 1.0000
53.0000 669.0000 1.0000
53.0100 736.0000 1.0000
53.0200 710.0000 1.0000
53.0300 710.0000 1.0000
53.0400 670.0000 1.0000
53.0500 685.0000 1.0000
53.0600 696.0000 1.0000
53.0700 647.0000 1.0000
53.0800 645.0000 1.0000
53.0900 681.0000 1.0000
53.1000 663.0000 1.0000
53.1100 667.0000 1.0000
53.1200 715.0000 1.0000
53.1300 667.0000 1.0000
53.1400 658.0000 1.0000
53.1500 689.0000 1.0000
53.1600 700.0000 1.0000
53.1700 684.0000 1.0000
53.1800 654.0000 1.0000
53.1900 677.0000 1.0000
53.2000 693.0000 1.0000
53.2100 692.0000 1.0000
53.2200 654.0000 1.0000
53.2300 643.0000 1.0000
53.2400 621.0000 1.0000
53.2500 678.0000 1.0000
53.2600 659.0000 1.0000
53.2700 633.0000 1.0000
53.2800 646.0000 1.0000
53.2900 650.0000 1.0000
53.3000 698.0000 1.0000
53.3100 700.0000 1.0000
53.3200 671.0000 1.0000
53.3300 631.0000 1.0000
53.3400 654.0000 1.0000
53.3500 705.0000 1.0000
53.3600 662.0000 1.0000
53.3700 666.0000 1.0000
53.3800 678.0000 1.0000
53.3900 661.0000 1.0000
53.4000 658.0000 1.0000
53.4100 659.0000 1.0000
53.4200 633.0000 1.0000
53.4300 634.0000 1.0000
53.4400 681.0000 1.0000
53.4500 682.0000 1.0000
53.4600 642.0000 1.0000
53.4700 652.0000 1.0000
53.4800 608.0000 1.0000
53.4900 670.0000 1.0000
53.5000 684.0000 1.0000
53.5100 637.0000 1.0000
53.5200 675.0000 1.0000
53.5300 673.0000 1.0000
53.5400 649.0000 1.0000
53.5500 653.0000 1.0000
53.5600 673.0000 1.0000
53.5700 675.0000 1.0000
53.5800 667.0000 1.0000
53.5900 691.0000 1.0000
53.6000 623.0000 1.0000
53.6100 644.0000 1.0000
53.6200 674.0000 1.0000
53.6300 633.0000 1.0000
53.6400 632.0000 1.0000
53.6500 654.0000 1.0000
53.6600 635.0000 1.0000
53.6700 629.0000 1.0000
53.6800 657.0000 1.0000
53.6900 652.0000 1.0000
53.7000 633.0000 1.0000
53.7100 632.0000 1.0000
53.7200 611.0000 1.0000
53.7300 618.0000 1.0000
53.7400 614.0000 1.0000
53.7500 626.0000 1.0000
53.7600 653.0000 1.0000
53.7700 629.0000 1.0000
53.7800 661.0000 1.0000
53.7900 626.0000 1.0000
53.8000 655.0000 1.0000
53.8100 692.0000 1.0000
53.8200 647.0000 1.0000
53.8300 673.0000 1.0000
53.8400 658.0000 1.0000
53.8500 645.0000 1.0000
53.8600 666.0000 1.0000
53.8700 661.0000 1.0000
53.8800 648.0000 1.0000
53.8900 645.0000 1.0000
53.9000 622.0000 1.0000
53.9100 635.0000 1.0000
53.9200 655.0000 1.0000
53.9300 636.0000 1.0000
53.9400 631.0000 1.0000
53.9500 608.0000 1.0000
53.9600 634.0000 1.0000
53.9700 707.0000 1.0000
53.9800 618.0000 1.0000
53.9900 641.0000 1.0000
54.0000 617.0000 1.0000
54.0100 655.0000 1.0000
54.0200 616.0000 1.0000
54.0300 674.0000 1.0000
54.0400 629.0000 1.0000
54.0500 644.0000 1.0000
54.0600 633.0000 1.0000
54.0700 604.0000 1.0000
54.0800 628.0000 1.0000
54.0900 646.0000 1.0000
54.1000 625.0000 1.0000
54.1100 611.0000 1.0000
54.1200 599.0000 1.0000
54.1300 644.0000 1.0000
54.1400 638.0000 1.0000
54.1500 654.0000 1.0000
54.1600 651.0000 1.0000
54.1700 628.0000 1.0000
54.1800 655.0000 1.0000
54.1900 602.0000 1.0000
54.2000 633.0000 1.0000
54.2100 638.0000 1.0000
54.2200 578.0000 1.0000
54.2300 670.0000 1.0000
54.2400 621.0000 1.0000
54.2500 663.0000 1.0000
54.2600 617.0000 1.0000
54.2700 634.0000 1.0000
54.2800 605.0000 1.0000
54.2900 610.0000 1.0000
54.3000 660.0000 1.0000
54.3100 654.0000 1.0000
54.3200 664.0000 1.0000
54.3300 609.0000 1.0000
54.3400 624.0000 1.0000
54.3500 661.0000 1.0000
54.3600 666.0000 1.0000
54.3700 674.0000 1.0000
54.3800 650.0000 1.0000
54.3900 666.0000 1.0000
54.4000 633.0000 1.0000
54.4100 665.0000 1.0000
54.4200 659.0000 1.0000
54.4300 687.0000 1.0000
54.4400 652.0000 1.0000
54.4500 685.0000 1.0000
54.4600 660.0000 1.0000
54.4700 677.0000 1.0000
54.4800 638.0000 1.0000
54.4900 626.0000 1.0000
54.5000 661.0000 1.0000
54.5100 655.0000 1.0000
54.5200 665.0000 1.0000
54.5300 651.0000 1.0000
54.5400 651.0000 1.0000
54.5500 658.0000 1.0000
54.5600 682.0000 1.0000
54.5700 694.0000 1.0000
54.5800 653.0000 1.0000
54.5900 626.0000 1.0000
54.6000 637.0000 1.0000
54.6100 643.0000 1.0000
54.6200 677.0000 1.0000
54.6300 664.0000 1.0000
54.6400 623.0000 1.0000
54.6500 641.0000 1.0000
54.6600 658.0000 1.0000
54.6700 642.0000 1.0000
54.6800 646.0000 1.0000
54.6900 621.0000 1.0000
54.7000 660.0000 1.0000
54.7100 689.0000 1.0000
54.7200 644.0000 1.0000
54.7300 654.0000 1.0000
54.7400 641.0000 1.0000
54.7500 694.0000 1.0000
54.7600 702.0000 1.0000
54.7700 677.0000 1.0000
54.7800 634.0000 1.0000
54.7900 642.0000 1.0000
54.8000 658.0000 1.0000
54.8100 638.0000 1.0000
54.8200 639.0000 1.0000
54.8300 670.0000 1.0000
54.8400 668.0000 1.0000
54.8500 668.0000 1.0000
54.8600 649.0000 1.0000
54.8700 686.0000 1.0000
54.8800 681.0000 1.0000
54.8900 661.0000 1.0000
54.9000 631.0000 1.0000
54.9100 690.0000 1.0000
54.9200 686.0000 1.0000
54.9300 676.0000 1.0000
54.9400 653.0000 1.0000
54.9500 723.0000 1.0000
54.9600 681.0000 1.0000
54.9700 689.0000 1.0000
54.9800 701.0000 1.0000
54.9900 721.0000 1.0000
55.0000 719.0000 1.0000
55.0100 686.0000 1.0000
55.0200 731.0000 1.0000
55.0300 693.0000 1.0000
55.0400 710.0000 1.0000
55.0500 733.0000 1.0000
55.0600 746.0000 1.0000
55.0700 743.0000 1.0000
55.0800 746.0000 1.0000
55.0900 777.0000 1.0000
55.1000 783.0000 1.0000
55.1100 805.0000 1.0000
55.1200 767.0000 1.0000
55.1300 813.0000 1.0000
55.1400 789.0000 1.0000
55.1500 799.0000 1.0000
55.1600 832.0000 1.0000
55.1700 871.0000 1.0000
55.1800 875.0000 1.0000
55.1900 915.0000 1.0000
55.2000 944.0000 1.0000
55.2100 937.0000 1.0000
55.2200 937.0000 1.0000
55.2300 1008.0000 1.0000
55.2400 1040.0000 1.0000
55.2500 1037.0000 1.0000
55.2600 979.0000 1.0000
55.2700 1032.0000 1.0000
55.2800 1030.0000 1.0000
55.2900 1020.0000 1.0000
55.3000 1024.0000 1.0000
55.3100 987.0000 1.0000
55.3200 1024.0000 1.0000
55.3300 1008.0000 1.0000
55.3400 1009.0000 1.0000
55.3500 998.0000 1.0000
55.3600 985.0000 1.0000
55.3700 950.0000 1.0000
55.3800 973.0000 1.0000
55.3900 906.0000 1.0000
55.4000 899.0000 1.0000
55.4100 928.0000 1.0000
55.4200 904.0000 1.0000
55.4300 938.0000 1.0000
55.4400 897.0000 1.0000
55.4500 863.0000 1.0000
55.4600 857.0000 1.0000
55.4700 894.0000 1.0000
55.4800 855.0000 1.0000
55.4900 814.0000 1.0000
55.5000 867.0000 1.0000
55.5100 828.0000 1.0000
55.5200 797.0000 1.0000
55.5300 787.0000 1.0000
55.5400 745.0000 1.0000
55.5500 722.0000 1.0000
55.5600 790.0000 1.0000
55.5700 778.0000 1.0000
55.5800 739.0000 1.0000
55.5900 763.0000 1.0000
55.6000 733.0000 1.0000
55.6100 718.0000 1.0000
55.6200 704.0000 1.0000
55.6300 710.0000 1.0000
55.6400 702.0000 1.0000
55.6500 709.0000 1.0000
55.6600 672.0000 1.0000
55.6700 715.0000 1.0000
55.6800 683.0000 1.0000
55.6900 690.0000 1.0000
55.7000 689.0000 1.0000
55.7100 637.0000 1.0000
55.7200 692.0000 1.0000
55.7300 673.0000 1.0000
55.7400 647.0000 1.0000
55.7500 651.0000 1.0000
55.7600 656.0000 1.0000
55.7700 679.0000 1.0000
55.7800 682.0000 1.0000
55.7900 665.0000 1.0000
55.8000 657.0000 1.0000
55.8100 652.0000 1.0000
55.8200 681.0000 1.0000
55.8300 633.0000 1.0000
55.8400 674.0000 1.0000
55.8500 642.0000 1.0000
55.8600 644.0000 1.0000
55.8700 608.0000 1.0000
55.8800 635.0000 1.0000
55.8900 648.0000 1.0000
55.9000 662.0000 1.0000
55.9100 667.0000 1.0000
55.9200 629.0000 1.0000
55.9300 591.0000 1.0000
55.9400 626.0000 1.0000
55.9500 660.0000 1.0000
55.9600 630.0000 1.0000
55.9700 617.0000 1.0000
55.9800 624.0000 1.0000
55.9900 625.0000 1.0000
56.0000 617.0000 1.0000
56.0100 607.0000 1.0000
56.0200 607.0000 1.0000
56.0300 647.0000 1.0000
56.0400 640.0000 1.0000
56.0500 619.0000 1.0000
56.0600 594.0000 1.0000
56.0700 587.0000 1.0000
56.0800 634.0000 1.0000
56.0900 635.0000 1.0000
56.1000 651.0000 1.0000
56.1100 615.0000 1.0000
56.1200 632.0000 1.0000
56.1300 617.0000 1.0000
56.1400 660.0000 1.0000
56.1500 665.0000 1.0000
56.1600 635.0000 1.0000
56.1700 627.0000 1.0000
56.1800 642.0000 1.0000
56.1900 597.0000 1.0000
56.2000 654.0000 1.0000
56.2100 632.0000 1.0000
56.2200 602.0000 1.0000
56.2300 580.0000 1.0000
56.2400 620.0000 1.0000
56.2500 604.0000 1.0000
56.2600 614.0000 1.0000
56.2700 615.0000 1.0000
56.2800 565.0000 1.0000
56.2900 634.0000 1.0000
56.3000 637.0000 1.0000
56.3100 618.0000 1.0000
56.3200 634.0000 1.0000
56.3300 626.0000 1.0000
56.3400 657.0000 1.0000
56.3500 591.0000 1.0000
56.3600 616.0000 1.0000
56.3700 588.0000 1.0000
56.3800 609.0000 1.0000
56.3900 591.0000 1.0000
56.4000 588.0000 1.0000
56.4100 609.0000 1.0000
56.4200 586.0000 1.0000
56.4300 609.0000 1.0000
56.4400 596.0000 1.0000
56.4500 586.0000 1.0000
56.4600 626.0000 1.0000
56.4700 572.0000 1.0000
56.4800 597.0000 1.0000
56.4900 658.0000 1.0000
56.5000 614.0000 1.0000
56.5100 612.0000 1.0000
56.5200 603.0000 1.0000
56.5300 612.0000 1.0000
56.5400 617.0000 1.0000
56.5500 619.0000 1.0000
56.5600 596.0000 1.0000
56.5700 629.0000 1.0000
56.5800 669.0000 1.0000
56.5900 613.0000 1.0000
56.6000 582.0000 1.0000
56.6100 623.0000 1.0000
56.6200 617.0000 1.0000
56.6300 593.0000 1.0000
56.6400 598.0000 1.0000
56.6500 593.0000 1.0000
56.6600 606.0000 1.0000
56.6700 620.0000 1.0000
56.6800 631.0000 1.0000
56.6900 643.0000 1.0000
56.7000 588.0000 1.0000
56.7100 657.0000 1.0000
56.7200 644.0000 1.0000
56.7300 630.0000 1.0000
56.7400 651.0000 1.0000
56.7500 611.0000 1.0000
56.7600 615.0000 1.0000
56.7700 647.0000 1.0000
56.7800 580.0000 1.0000
56.7900 614.0000 1.0000
56.8000 662.0000 1.0000
56.8100 622.0000 1.0000
56.8200 615.0000 1.0000
56.8300 629.0000 1.0000
56.8400 603.0000 1.0000
56.8500 585.0000 1.0000
56.8600 594.0000 1.0000
56.8700 623.0000 1.0000
56.8800 583.0000 1.0000
56.8900 609.0000 1.0000
56.9000 628.0000 1.0000
56.9100 554.0000 1.0000
56.9200 599.0000 1.0000
56.9300 618.0000 1.0000
56.9400 634.0000 1.0000
56.9500 633.0000 1.0000
56.9600 574.0000 1.0000
56.9700 604.0000 1.0000
56.9800 633.0000 1.0000
56.9900 597.0000 1.0000
57.0000 608.0000 1.0000
57.0100 619.0000 1.0000
57.0200 603.0000 1.0000
57.0300 630.0000 1.0000
57.0400 647.0000 1.0000
57.0500 644.0000 1.0000
57.0600 658.0000 1.0000
57.0700 644.0000 1.0000
57.0800 627.0000 1.0000
57.0900 631.0000 1.0000
57.1000 629.0000 1.0000
57.1100 648.0000 1.0000
57.1200 612.0000 1.0000
57.1300 600.0000 1.0000
57.1400 591.0000 1.0000
57.1500 627.0000 1.0000
57.1600 614.0000 1.0000
57.1700 585.0000 1.0000
57.1800 608.0000 1.0000
57.1900 592.0000 1.0000
57.2000 622.0000 1.0000
57.2100 619.0000 1.0000
57.2200 610.0000 1.0000
57.2300 610.0000 1.0000
57.2400 647.0000 1.0000
57.2500 620.0000 1.0000
57.2600 644.0000 1.0000
57.2700 648.0000 1.0000
57.2800 583.0000 1.0000
57.2900 610.0000 1.0000
57.3000 596.0000 1.0000
57.3100 599.0000 1.0000
57.3200 596.0000 1.0000
57.3300 620.0000 1.0000
57.3400 626.0000 1.0000
57.3500 616.0000 1.0000
57.3600 594.0000 1.0000
57.3700 631.0000 1.0000
57.3800 609.0000 1.0000
57.3900 595.0000 1.0000
57.4000 616.0000 1.0000
57.4100 636.0000 1.0000
57.4200 620.0000 1.0000
57.4300 647.0000 1.0000
57.4400 628.0000 1.0000
57.4500 590.0000 1.0000
57.4600 613.0000 1.0000
57.4700 656.0000 1.0000
57.4800 632.0000 1.0000
57.4900 590.0000 1.0000
57.5000 642.0000 1.0000
57.5100 630.0000 1.0000
57.5200 616.0000 1.0000
57.5300 628.0000 1.0000
57.5400 580.0000 1.0000
57.5500 579.0000 1.0000
57.5600 603.0000 1.0000
57.5700 652.0000 1.0000
57.5800 635.0000 1.0000
57.5900 628.0000 1.0000
57.6000 588.0000 1.0000
57.6100 660.0000 1.0000
57.6200 588.0000 1.0000
57.6300 576.0000 1.0000
57.6400 654.0000 1.0000
57.6500 642.0000 1.0000
57.6600 625.0000 1.0000
57.6700 626.0000 1.0000
57.6800 582.0000 1.0000
57.6900 609.0000 1.0000
57.7000 585.0000 1.0000
57.7100 604.0000 1.0000
57.7200 582.0000 1.0000
57.7300 662.0000 1.0000
57.7400 612.0000 1.0000
57.7500 607.0000 1.0000
57.7600 594.0000 1.0000
57.7700 639.0000 1.0000
57.7800 607.0000 1.0000
57.7900 627.0000 1.0000
57.8000 616.0000 1.0000
57.8100 592.0000 1.0000
57.8200 593.0000 1.0000
57.8300 664.0000 1.0000
57.8400 634.0000 1.0000
57.8500 609.0000 1.0000
57.8600 581.0000 1.0000
57.8700 615.0000 1.0000
57.8800 613.0000 1.0000
57.8900 611.0000 1.0000
57.9000 584.0000 1.0000
57.9100 649.0000 1.0000
57.9200 599.0000 1.0000
57.9300 566.0000 1.0000
57.9400 570.0000 1.0000
57.9500 564.0000 1.0000
57.9600 579.0000 1.0000
57.9700 616.0000 1.0000
57.9800 648.0000 1.0000
57.9900 640.0000 1.0000
58.0000 625.0000 1.0000
58.0100 603.0000 1.0000
58.0200 629.0000 1.0000
58.0300 606.0000 1.0000
58.0400 608.0000 1.0000
58.0500 601.0000 1.0000
58.0600 626.0000 1.0000
58.0700 603.0000 1.0000
58.0800 660.0000 1.0000
58.0900 638.0000 1.0000
58.1000 599.0000 1.0000
58.1100 564.0000 1.0000
58.1200 622.0000 1.0000
58.1300 636.0000 1.0000
58.1400 578.0000 1.0000
58.1500 594.0000 1.0000
58.1600 603.0000 1.0000
58.1700 593.0000 1.0000
58.1800 649.0000 1.0000
58.1900 654.0000 1.0000
58.2000 621.0000 1.0000
58.2100 594.0000 1.0000
58.2200 582.0000 1.0000
58.2300 614.0000 1.0000
58.2400 627.0000 1.0000
58.2500 661.0000 1.0000
58.2600 629.0000 1.0000
58.2700 612.0000 1.0000
58.2800 609.0000 1.0000
58.2900 584.0000 1.0000
58.3000 617.0000 1.0000
58.3100 616.0000 1.0000
58.3200 609.0000 1.0000
58.3300 642.0000 1.0000
58.3400 631.0000 1.0000
58.3500 610.0000 1.0000
58.3600 638.0000 1.0000
58.3700 610.0000 1.0000
58.3800 601.0000 1.0000
58.3900 629.0000 1.0000
58.4000 623.0000 1.0000
58.4100 618.0000 1.0000
58.4200 598.0000 1.0000
58.4300 629.0000 1.0000
58.4400 588.0000 1.0000
58.4500 644.0000 1.0000
58.4600 601.0000 1.0000
58.4700 596.0000 1.0000
58.4800 618.0000 1.0000
58.4900 600.0000 1.0000
58.5000 597.0000 1.0000
58.5100 555.0000 1.0000
58.5200 578.0000 1.0000
58.5300 637.0000 1.0000
58.5400 596.0000 1.0000
58.5500 606.0000 1.0000
58.5600 607.0000 1.0000
58.5700 578.0000 1.0000
58.5800 624.0000 1.0000
58.5900 575.0000 1.0000
58.6000 596.0000 1.0000
58.6100 603.0000 1.0000
58.6200 613.0000 1.0000
58.6300 608.0000 1.0000
58.6400 621.0000 1.0000
58.6500 583.0000 1.0000
58.6600 635.0000 1.0000
58.6700 607.0000 1.0000
58.6800 604.0000 1.0000
58.6900 595.0000 1.0000
58.7000 610.0000 1.0000
58.7100 604.0000 1.0000
58.7200 625.0000 1.0000
58.7300 593.0000 1.0000
58.7400 621.0000 1.0000
58.7500 602.0000 1.0000
58.7600 597.0000 1.0000
58.7700 638.0000 1.0000
58.7800 613.0000 1.0000
58.7900 618.0000 1.0000
58.8000 576.0000 1.0000
58.8100 662.0000 1.0000
58.8200 615.0000 1.0000
58.8300 572.0000 1.0000
58.8400 585.0000 1.0000
58.8500 594.0000 1.0000
58.8600 613.0000 1.0000
58.8700 589.0000 1.0000
58.8800 605.0000 1.0000
58.8900 589.0000 1.0000
58.9000 628.0000 1.0000
58.9100 632.0000 1.0000
58.9200 616.0000 1.0000
58.9300 603.0000 1.0000
58.9400 585.0000 1.0000
58.9500 590.0000 1.0000
58.9600 622.0000 1.0000
58.9700 599.0000 1.0000
58.9800 638.0000 1.0000
58.9900 596.0000 1.0000
59.0000 661.0000 1.0000
59.0100 597.0000 1.0000
59.0200 621.0000 1.0000
59.0300 593.0000 1.0000
59.0400 591.0000 1.0000
59.0500 662.0000 1.0000
59.0600 607.0000 1.0000
59.0700 613.0000 1.0000
59.0800 597.0000 1.0000
59.0900 609.0000 1.0000
59.1000 599.0000 1.0000
59.1100 646.0000 1.0000
59.1200 584.0000 1.0000
59.1300 621.0000 1.0000
59.1400 596.0000 1.0000
59.1500 598.0000 1.0000
59.1600 585.0000 1.0000
59.1700 556.0000 1.0000
59.1800 622.0000 1.0000
59.1900 643.0000 1.0000
59.2000 636.0000 1.0000
59.2100 623.0000 1.0000
59.2200 625.0000 1.0000
59.2300 655.0000 1.0000
59.2400 624.0000 1.0000
59.2500 618.0000 1.0000
59.2600 622.0000 1.0000
59.2700 628.0000 1.0000
59.2800 650.0000 1.0000
59.2900 648.0000 1.0000
59.3000 634.0000 1.0000
59.3100 619.0000 1.0000
59.3200 626.0000 1.0000
59.3300 633.0000 1.0000
59.3400 650.0000 1.0000
59.3500 626.0000 1.0000
59.3600 603.0000 1.0000
59.3700 607.0000 1.0000
59.3800 600.0000 1.0000
59.3900 602.0000 1.0000
59.4000 612.0000 1.0000
59.4100 628.0000 1.0000
59.4200 611.0000 1.0000
59.4300 634.0000 1.0000
59.4400 607.0000 1.0000
59.4500 606.0000 1.0000
59.4600 621.0000 1.0000
59.4700 624.0000 1.0000
59.4800 625.0000 1.0000
59.4900 599.0000 1.0000
59.5000 611.0000 1.0000
59.5100 587.0000 1.0000
59.5200 614.0000 1.0000
59.5300 584.0000 1.0000
59.5400 626.0000 1.0000
59.5500 630.0000 1.0000
59.5600 595.0000 1.0000
59.5700 593.0000 1.0000
59.5800 608.0000 1.0000
59.5900 610.0000 1.0000
59.6000 635.0000 1.0000
59.6100 571.0000 1.0000
59.6200 592.0000 1.0000
59.6300 573.0000 1.0000
59.6400 599.0000 1.0000
59.6500 630.0000 1.0000
59.6600 610.0000 1.0000
59.6700 584.0000 1.0000
59.6800 597.0000 1.0000
59.6900 582.0000 1.0000
59.7000 612.0000 1.0000
59.7100 600.0000 1.0000
59.7200 572.0000 1.0000
59.7300 590.0000 1.0000
59.7400 615.0000 1.0000
59.7500 577.0000 1.0000
59.7600 627.0000 1.0000
59.7700 591.0000 1.0000
59.7800 614.0000 1.0000
59.7900 585.0000 1.0000
59.8000 619.0000 1.0000
59.8100 608.0000 1.0000
59.8200 641.0000 1.0000
59.8300 642.0000 1.0000
59.8400 621.0000 1.0000
59.8500 631.0000 1.0000
59.8600 590.0000 1.0000
59.8700 608.0000 1.0000
59.8800 607.0000 1.0000
59.8900 602.0000 1.0000
59.9000 585.0000 1.0000
59.9100 600.0000 1.0000
59.9200 628.0000 1.0000
59.9300 632.0000 1.0000
59.9400 631.0000 1.0000
59.9500 627.0000 1.0000
59.9600 603.0000 1.0000
59.9700 591.0000 1.0000
59.9800 631.0000 1.0000
59.9900 611.0000 1.0000
60.0000 615.0000 1.0000
60.0100 578.0000 1.0000
60.0200 608.0000 1.0000
60.0300 621.0000 1.0000
60.0400 626.0000 1.0000
60.0500 601.0000 1.0000
60.0600 614.0000 1.0000
60.0700 594.0000 1.0000
60.0800 608.0000 1.0000
60.0900 625.0000 1.0000
60.1000 619.0000 1.0000
60.1100 570.0000 1.0000
60.1200 600.0000 1.0000
60.1300 595.0000 1.0000
60.1400 624.0000 1.0000
60.1500 608.0000 1.0000
60.1600 588.0000 1.0000
60.1700 558.0000 1.0000
60.1800 586.0000 1.0000
60.1900 587.0000 1.0000
60.2000 594.0000 1.0000
60.2100 607.0000 1.0000
60.2200 587.0000 1.0000
60.2300 602.0000 1.0000
60.2400 603.0000 1.0000
60.2500 608.0000 1.0000
60.2600 576.0000 1.0000
60.2700 593.0000 1.0000
60.2800 615.0000 1.0000
60.2900 620.0000 1.0000
60.3000 628.0000 1.0000
60.3100 622.0000 1.0000
60.3200 627.0000 1.0000
60.3300 621.0000 1.0000
60.3400 598.0000 1.0000
60.3500 616.0000 1.0000
60.3600 607.0000 1.0000
60.3700 597.0000 1.0000
60.3800 602.0000 1.0000
60.3900 626.0000 1.0000
60.4000 588.0000 1.0000
60.4100 570.0000 1.0000
60.4200 572.0000 1.0000
60.4300 597.0000 1.0000
60.4400 588.0000 1.0000
60.4500 622.0000 1.0000
60.4600 620.0000 1.0000
60.4700 632.0000 1.0000
60.4800 597.0000 1.0000
60.4900 605.0000 1.0000
60.5000 609.0000 1.0000
60.5100 599.0000 1.0000
60.5200 562.0000 1.0000
60.5300 614.0000 1.0000
60.5400 614.0000 1.0000
60.5500 595.0000 1.0000
60.5600 620.0000 1.0000
60.5700 601.0000 1.0000
60.5800 646.0000 1.0000
60.5900 638.0000 1.0000
60.6000 581.0000 1.0000
60.6100 561.0000 1.0000
60.6200 559.0000 1.0000
60.6300 578.0000 1.0000
60.6400 582.0000 1.0000
60.6500 604.0000 1.0000
60.6600 575.0000 1.0000
60.6700 570.0000 1.0000
60.6800 593.0000 1.0000
60.6900 568.0000 1.0000
60.7000 629.0000 1.0000
60.7100 595.0000 1.0000
60.7200 583.0000 1.0000
60.7300 585.0000 1.0000
60.7400 598.0000 1.0000
60.7500 612.0000 1.0000
60.7600 625.0000 1.0000
60.7700 604.0000 1.0000
60.7800 589.0000 1.0000
60.7900 577.0000 1.0000
60.8000 627.0000 1.0000
60.8100 617.0000 1.0000
60.8200 600.0000 1.0000
60.8300 605.0000 1.0000
60.8400 621.0000 1.0000
60.8500 616.0000 1.0000
60.8600 603.0000 1.0000
60.8700 633.0000 1.0000
60.8800 561.0000 1.0000
60.8900 619.0000 1.0000
60.9000 588.0000 1.0000
60.9100 581.0000 1.0000
60.9200 598.0000 1.0000
60.9300 585.0000 1.0000
60.9400 624.0000 1.0000
60.9500 570.0000 1.0000
60.9600 565.0000 1.0000
60.9700 623.0000 1.0000
60.9800 629.0000 1.0000
60.9900 604.0000 1.0000
61.0000 611.0000 1.0000
61.0100 589.0000 1.0000
61.0200 566.0000 1.0000
61.0300 637.0000 1.0000
61.0400 613.0000 1.0000
61.0500 634.0000 1.0000
61.0600 619.0000 1.0000
61.0700 590.0000 1.0000
61.0800 598.0000 1.0000
61.0900 636.0000 1.0000
61.1000 613.0000 1.0000
61.1100 572.0000 1.0000
61.1200 611.0000 1.0000
61.1300 617.0000 1.0000
61.1400 610.0000 1.0000
61.1500 598.0000 1.0000
61.1600 572.0000 1.0000
61.1700 624.0000 1.0000
61.1800 621.0000 1.0000
61.1900 611.0000 1.0000
61.2000 646.0000 1.0000
61.2100 601.0000 1.0000
61.2200 638.0000 1.0000
61.2300 621.0000 1.0000
61.2400 565.0000 1.0000
61.2500 580.0000 1.0000
61.2600 580.0000 1.0000
61.2700 643.0000 1.0000
61.2800 613.0000 1.0000
61.2900 598.0000 1.0000
61.3000 601.0000 1.0000
61.3100 608.0000 1.0000
61.3200 596.0000 1.0000
61.3300 613.0000 1.0000
61.3400 592.0000 1.0000
61.3500 613.0000 1.0000
61.3600 628.0000 1.0000
61.3700 643.0000 1.0000
61.3800 574.0000 1.0000
61.3900 626.0000 1.0000
61.4000 633.0000 1.0000
61.4100 630.0000 1.0000
61.4200 604.0000 1.0000
61.4300 599.0000 1.0000
61.4400 609.0000 1.0000
61.4500 633.0000 1.0000
61.4600 650.0000 1.0000
61.4700 647.0000 1.0000
61.4800 662.0000 1.0000
61.4900 601.0000 1.0000
61.5000 591.0000 1.0000
61.5100 621.0000 1.0000
61.5200 592.0000 1.0000
61.5300 586.0000 1.0000
61.5400 575.0000 1.0000
61.5500 577.0000 1.0000
61.5600 631.0000 1.0000
61.5700 662.0000 1.0000
61.5800 645.0000 1.0000
61.5900 586.0000 1.0000
61.6000 621.0000 1.0000
61.6100 622.0000 1.0000
61.6200 637.0000 1.0000
61.6300 660.0000 1.0000
61.6400 662.0000 1.0000
61.6500 613.0000 1.0000
61.6600 605.0000 1.0000
61.6700 631.0000 1.0000
61.6800 603.0000 1.0000
61.6900 649.0000 1.0000
61.7000 614.0000 1.0000
61.7100 636.0000 1.0000
61.7200 631.0000 1.0000
61.7300 619.0000 1.0000
61.7400 697.0000 1.0000
61.7500 660.0000 1.0000
61.7600 646.0000 1.0000
61.7700 625.0000 1.0000
61.7800 634.0000 1.0000
61.7900 664.0000 1.0000
61.8000 661.0000 1.0000
61.8100 671.0000 1.0000
61.8200 645.0000 1.0000
61.8300 645.0000 1.0000
61.8400 637.0000 1.0000
61.8500 644.0000 1.0000
61.8600 696.0000 1.0000
61.8700 667.0000 1.0000
61.8800 707.0000 1.0000
61.8900 704.0000 1.0000
61.9000 711.0000 1.0000
61.9100 681.0000 1.0000
61.9200 738.0000 1.0000
61.9300 713.0000 1.0000
61.9400 721.0000 1.0000
61.9500 724.0000 1.0000
61.9600 747.0000 1.0000
61.9700 792.0000 1.0000
61.9800 773.0000 1.0000
61.9900 779.0000 1.0000
62.0000 802.0000 1.0000
62.0100 790.0000 1.0000
62.0200 809.0000 1.0000
62.0300 797.0000 1.0000
62.0400 854.0000 1.0000
62.0500 835.0000 1.0000
62.0600 838.0000 1.0000
62.0700 940.0000 1.0000
62.0800 898.0000 1.0000
62.0900 977.0000 1.0000
62.1000 946.0000 1.0000
62.1100 994.0000 1.0000
62.1200 992.0000 1.0000
62.1300 1017.0000 1.0000
62.1400 1111.0000 1.0000
62.1500 1062.0000 1.0000
62.1600 1089.0000 1.0000
62.1700 1167.0000 1.0000
62.1800 1270.0000 1.0000
62.1900 1339.0000 1.0000
62.2000 1324.0000 1.0000
62.2100 1303.0000 1.0000
62.2200 1368.0000 1.0000
62.2300 1343.0000 1.0000
62.2400 1403.0000 1.0000
62.2500 1453.0000 1.0000
62.2600 1466.0000 1.0000
62.2700 1422.0000 1.0000
62.2800 1437.0000 1.0000
62.2900 1397.0000 1.0000
62.3000 1408.0000 1.0000
62.3100 1442.0000 1.0000
62.3200 1430.0000 1.0000
62.3300 1375.0000 1.0000
62.3400 1421.0000 1.0000
62.3500 1327.0000 1.0000
62.3600 1397.0000 1.0000
62.3700 1372.0000 1.0000
62.3800 1348.0000 1.0000
62.3900 1322.0000 1.0000
62.4000 1330.0000 1.0000
62.4100 1335.0000 1.0000
62.4200 1262.0000 1.0000
62.4300 1207.0000 1.0000
62.4400 1270.0000 1.0000
62.4500 1276.0000 1.0000
62.4600 1292.0000 1.0000
62.4700 1181.0000 1.0000
62.4800 1215.0000 1.0000
62.4900 1167.0000 1.0000
62.5000 1053.0000 1.0000
62.5100 1053.0000 1.0000
62.5200 1013.0000 1.0000
62.5300 973.0000 1.0000
62.5400 959.0000 1.0000
62.5500 973.0000 1.0000
62.5600 943.0000 1.0000
62.5700 925.0000 1.0000
62.5800 927.0000 1.0000
62.5900 907.0000 1.0000
62.6000 891.0000 1.0000
62.6100 905.0000 1.0000
62.6200 869.0000 1.0000
62.6300 861.0000 1.0000
62.6400 831.0000 1.0000
62.6500 838.0000 1.0000
62.6600 808.0000 1.0000
62.6700 795.0000 1.0000
62.6800 812.0000 1.0000
62.6900 750.0000 1.0000
62.7000 744.0000 1.0000
62.7100 783.0000 1.0000
62.7200 749.0000 1.0000
62.7300 768.0000 1.0000
62.7400 797.0000 1.0000
62.7500 742.0000 1.0000
62.7600 695.0000 1.0000
62.7700 682.0000 1.0000
62.7800 716.0000 1.0000
62.7900 691.0000 1.0000
62.8000 700.0000 1.0000
62.8100 705.0000 1.0000
62.8200 727.0000 1.0000
62.8300 686.0000 1.0000
62.8400 649.0000 1.0000
62.8500 653.0000 1.0000
62.8600 655.0000 1.0000
62.8700 694.0000 1.0000
62.8800 665.0000 1.0000
62.8900 671.0000 1.0000
62.9000 682.0000 1.0000
62.9100 675.0000 1.0000
62.9200 681.0000 1.0000
62.9300 680.0000 1.0000
62.9400 659.0000 1.0000
62.9500 629.0000 1.0000
62.9600 654.0000 1.0000
62.9700 676.0000 1.0000
62.9800 647.0000 1.0000
62.9900 703.0000 1.0000
63.0000 632.0000 1.0000
63.0100 664.0000 1.0000
63.0200 657.0000 1.0000
63.0300 663.0000 1.0000
63.0400 686.0000 1.0000
63.0500 646.0000 1.0000
63.0600 629.0000 1.0000
63.0700 645.0000 1.0000
63.0800 628.0000 1.0000
63.0900 684.0000 1.0000
63.1000 688.0000 1.0000
63.1100 696.0000 1.0000
63.1200 652.0000 1.0000
63.1300 609.0000 1.0000
63.1400 633.0000 1.0000
63.1500 643.0000 1.0000
63.1600 658.0000 1.0000
63.1700 644.0000 1.0000
63.1800 648.0000 1.0000
63.1900 648.0000 1.0000
63.2000 633.0000 1.0000
63.2100 628.0000 1.0000
63.2200 620.0000 1.0000
63.2300 637.0000 1.0000
63.2400 634.0000 1.0000
63.2500 647.0000 1.0000
63.2600 616.0000 1.0000
63.2700 635.0000 1.0000
63.2800 610.0000 1.0000
63.2900 669.0000 1.0000
63.3000 658.0000 1.0000
63.3100 619.0000 1.0000
63.3200 668.0000 1.0000
63.3300 643.0000 1.0000
63.3400 632.0000 1.0000
63.3500 611.0000 1.0000
63.3600 645.0000 1.0000
63.3700 637.0000 1.0000
63.3800 605.0000 1.0000
63.3900 639.0000 1.0000
63.4000 620.0000 1.0000
63.4100 592.0000 1.0000
63.4200 649.0000 1.0000
63.4300 628.0000 1.0000
63.4400 569.0000 1.0000
63.4500 605.0000 1.0000
63.4600 617.0000 1.0000
63.4700 602.0000 1.0000
63.4800 614.0000 1.0000
63.4900 625.0000 1.0000
63.5000 568.0000 1.0000
63.5100 553.0000 1.0000
63.5200 628.0000 1.0000
63.5300 648.0000 1.0000
63.5400 608.0000 1.0000
63.5500 649.0000 1.0000
63.5600 647.0000 1.0000
63.5700 655.0000 1.0000
63.5800 633.0000 1.0000
63.5900 612.0000 1.0000
63.6000 610.0000 1.0000
63.6100 621.0000 1.0000
63.6200 624.0000 1.0000
63.6300 643.0000 1.0000
63.6400 620.0000 1.0000
63.6500 584.0000 1.0000
63.6600 570.0000 1.0000
63.6700 597.0000 1.0000
63.6800 647.0000 1.0000
63.6900 623.0000 1.0000
63.7000 591.0000 1.0000
63.7100 577.0000 1.0000
63.7200 615.0000 1.0000
63.7300 591.0000 1.0000
63.7400 607.0000 1.0000
63.7500 608.0000 1.0000
63.7600 596.0000 1.0000
63.7700 628.0000 1.0000
63.7800 578.0000 1.0000
63.7900 580.0000 1.0000
63.8000 602.0000 1.0000
63.8100 657.0000 1.0000
63.8200 602.0000 1.0000
63.8300 639.0000 1.0000
63.8400 616.0000 1.0000
63.8500 636.0000 1.0000
63.8600 612.0000 1.0000
63.8700 613.0000 1.0000
63.8800 624.0000 1.0000
63.8900 633.0000 1.0000
63.9000 644.0000 1.0000
63.9100 620.0000 1.0000
63.9200 649.0000 1.0000
63.9300 619.0000 1.0000
63.9400 622.0000 1.0000
63.9500 586.0000 1.0000
63.9600 605.0000 1.0000
63.9700 611.0000 1.0000
63.9800 618.0000 1.0000
63.9900 584.0000 1.0000
64.0000 636.0000 1.0000
64.0100 620.0000 1.0000
64.0200 613.0000 1.0000
64.0300 564.0000 1.0000
64.0400 603.0000 1.0000
64.0500 645.0000 1.0000
64.0600 613.0000 1.0000
64.0700 575.0000 1.0000
64.0800 626.0000 1.0000
64.0900 584.0000 1.0000
64.1000 613.0000 1.0000
64.1100 586.0000 1.0000
64.1200 615.0000 1.0000
64.1300 653.0000 1.0000
64.1400 631.0000 1.0000
64.1500 671.0000 1.0000
64.1600 611.0000 1.0000
64.1700 596.0000 1.0000
64.1800 591.0000 1.0000
64.1900 624.0000 1.0000
64.2000 621.0000 1.0000
64.2100 610.0000 1.0000
64.2200 589.0000 1.0000
64.2300 624.0000 1.0000
64.2400 595.0000 1.0000
64.2500 643.0000 1.0000
64.2600 608.0000 1.0000
64.2700 607.0000 1.0000
64.2800 594.0000 1.0000
64.2900 587.0000 1.0000
64.3000 592.0000 1.0000
64.3100 577.0000 1.0000
64.3200 592.0000 1.0000
64.3300 597.0000 1.0000
64.3400 621.0000 1.0000
64.3500 638.0000 1.0000
64.3600 625.0000 1.0000
64.3700 651.0000 1.0000
64.3800 654.0000 1.0000
64.3900 653.0000 1.0000
64.4000 640.0000 1.0000
64.4100 623.0000 1.0000
64.4200 603.0000 1.0000
64.4300 625.0000 1.0000
64.4400 614.0000 1.0000
64.4500 632.0000 1.0000
64.4600 654.0000 1.0000
64.4700 610.0000 1.0000
64.4800 617.0000 1.0000
64.4900 640.0000 1.0000
64.5000 604.0000 1.0000
64.5100 626.0000 1.0000
64.5200 662.0000 1.0000
64.5300 587.0000 1.0000
64.5400 622.0000 1.0000
64.5500 634.0000 1.0000
64.5600 642.0000 1.0000
64.5700 614.0000 1.0000
64.5800 649.0000 1.0000
64.5900 639.0000 1.0000
64.6000 642.0000 1.0000
64.6100 662.0000 1.0000
64.6200 676.0000 1.0000
64.6300 647.0000 1.0000
64.6400 628.0000 1.0000
64.6500 609.0000 1.0000
64.6600 674.0000 1.0000
64.6700 658.0000 1.0000
64.6800 663.0000 1.0000
64.6900 677.0000 1.0000
64.7000 672.0000 1.0000
64.7100 666.0000 1.0000
64.7200 612.0000 1.0000
64.7300 682.0000 1.0000
64.7400 673.0000 1.0000
64.7500 665.0000 1.0000
64.7600 654.0000 1.0000
64.7700 671.0000 1.0000
64.7800 677.0000 1.0000
64.7900 686.0000 1.0000
64.8000 676.0000 1.0000
64.8100 688.0000 1.0000
64.8200 647.0000 1.0000
64.8300 655.0000 1.0000
64.8400 654.0000 1.0000
64.8500 654.0000 1.0000
64.8600 623.0000 1.0000
64.8700 666.0000 1.0000
64.8800 655.0000 1.0000
64.8900 657.0000 1.0000
64.9000 678.0000 1.0000
64.9100 697.0000 1.0000
64.9200 687.0000 1.0000
64.9300 622.0000 1.0000
64.9400 627.0000 1.0000
64.9500 674.0000 1.0000
64.9600 678.0000 1.0000
64.9700 659.0000 1.0000
64.9800 647.0000 1.0000
64.9900 621.0000 1.0000
65.0000 640.0000 1.0000
65.0100 675.0000 1.0000
65.0200 663.0000 1.0000
65.0300 625.0000 1.0000
65.0400 665.0000 1.0000
65.0500 700.0000 1.0000
65.0600 613.0000 1.0000
65.0700 673.0000 1.0000
65.0800 656.0000 1.0000
65.0900 654.0000 1.0000
65.1000 682.0000 1.0000
65.1100 666.0000 1.0000
65.1200 680.0000 1.0000
65.1300 671.0000 1.0000
65.1400 628.0000 1.0000
65.1500 643.0000 1.0000
65.1600 652.0000 1.0000
65.1700 652.0000 1.0000
65.1800 675.0000 1.0000
65.1900 642.0000 1.0000
65.2000 671.0000 1.0000
65.2100 647.0000 1.0000
65.2200 667.0000 1.0000
65.2300 653.0000 1.0000
65.2400 655.0000 1.0000
65.2500 625.0000 1.0000
65.2600 683.0000 1.0000
65.2700 628.0000 1.0000
65.2800 664.0000 1.0000
65.2900 641.0000 1.0000
65.3000 673.0000 1.0000
65.3100 638.0000 1.0000
65.3200 635.0000 1.0000
65.3300 651.0000 1.0000
65.3400 659.0000 1.0000
65.3500 659.0000 1.0000
65.3600 650.0000 1.0000
65.3700 651.0000 1.0000
65.3800 648.0000 1.0000
65.3900 659.0000 1.0000
65.4000 613.0000 1.0000
65.4100 648.0000 1.0000
65.4200 616.0000 1.0000
65.4300 637.0000 1.0000
65.4400 659.0000 1.0000
65.4500 607.0000 1.0000
65.4600 652.0000 1.0000
65.4700 608.0000 1.0000
65.4800 600.0000 1.0000
65.4900 636.0000 1.0000
65.5000 647.0000 1.0000
65.5100 677.0000 1.0000
65.5200 659.0000 1.0000
65.5300 646.0000 1.0000
65.5400 634.0000 1.0000
65.5500 675.0000 1.0000
65.5600 642.0000 1.0000
65.5700 657.0000 1.0000
65.5800 643.0000 1.0000
65.5900 642.0000 1.0000
65.6000 654.0000 1.0000
65.6100 670.0000 1.0000
65.6200 687.0000 1.0000
65.6300 665.0000 1.0000
65.6400 655.0000 1.0000
65.6500 683.0000 1.0000
65.6600 710.0000 1.0000
65.6700 668.0000 1.0000
65.6800 681.0000 1.0000
65.6900 662.0000 1.0000
65.7000 715.0000 1.0000
65.7100 646.0000 1.0000
65.7200 668.0000 1.0000
65.7300 651.0000 1.0000
65.7400 680.0000 1.0000
65.7500 698.0000 1.0000
65.7600 697.0000 1.0000
65.7700 687.0000 1.0000
65.7800 745.0000 1.0000
65.7900 749.0000 1.0000
65.8000 729.0000 1.0000
65.8100 735.0000 1.0000
65.8200 769.0000 1.0000
65.8300 741.0000 1.0000
65.8400 700.0000 1.0000
65.8500 774.0000 1.0000
65.8600 778.0000 1.0000
65.8700 775.0000 1.0000
65.8800 744.0000 1.0000
65.8900 780.0000 1.0000
65.9000 803.0000 1.0000
65.9100 840.0000 1.0000
65.9200 802.0000 1.0000
65.9300 898.0000 1.0000
65.9400 846.0000 1.0000
65.9500 849.0000 1.0000
65.9600 924.0000 1.0000
65.9700 956.0000 1.0000
65.9800 942.0000 1.0000
65.9900 940.0000 1.0000
66.0000 968.0000 1.0000
66.0100 988.0000 1.0000
66.0200 1034.0000 1.0000
66.0300 1117.0000 1.0000
66.0400 1116.0000 1.0000
66.0500 1138.0000 1.0000
66.0600 1267.0000 1.0000
66.0700 1284.0000 1.0000
66.0800 1356.0000 1.0000
66.0900 1406.0000 1.0000
66.1000 1479.0000 1.0000
66.1100 1528.0000 1.0000
66.1200 1668.0000 1.0000
66.1300 1771.0000 1.0000
66.1400 1908.0000 1.0000
66.1500 1941.0000 1.0000
66.1600 2122.0000 1.0000
66.1700 2234.0000 1.0000
66.1800 2320.0000 1.0000
66.1900 2405.0000 1.0000
66.2000 2541.0000 1.0000
66.2100 2702.0000 1.0000
66.2200 2747.0000 1.0000
66.2300 2819.0000 1.0000
66.2400 2812.0000 1.0000
66.2500 2737.0000 1.0000
66.2600 2736.0000 1.0000
66.2700 2705.0000 1.0000
66.2800 2734.0000 1.0000
66.2900 2590.0000 1.0000
66.3000 2601.0000 1.0000
66.3100 2577.0000 1.0000
66.3200 2496.0000 1.0000
66.3300 2380.0000 1.0000
66.3400 2396.0000 1.0000
66.3500 2339.0000 1.0000
66.3600 2353.0000 1.0000
66.3700 2296.0000 1.0000
66.3800 2281.0000 1.0000
66.3900 2263.0000 1.0000
66.4000 2221.0000 1.0000
66.4100 2155.0000 1.0000
66.4200 2172.0000 1.0000
66.4300 2079.0000 1.0000
66.4400 2026.0000 1.0000
66.4500 2002.0000 1.0000
66.4600 1907.0000 1.0000
66.4700 1873.0000 1.0000
66.4800 1788.0000 1.0000
66.4900 1761.0000 1.0000
66.5000 1596.0000 1.0000
66.5100 1553.0000 1.0000
66.5200 1509.0000 1.0000
66.5300 1402.0000 1.0000
66.5400 1356.0000 1.0000
66.5500 1277.0000 1.0000
66.5600 1204.0000 1.0000
66.5700 1212.0000 1.0000
66.5800 1188.0000 1.0000
66.5900 1134.0000 1.0000
66.6000 1055.0000 1.0000
66.6100 1040.0000 1.0000
66.6200 1038.0000 1.0000
66.6300 1002.0000 1.0000
66.6400 1017.0000 1.0000
66.6500 936.0000 1.0000
66.6600 914.0000 1.0000
66.6700 920.0000 1.0000
66.6800 863.0000 1.0000
66.6900 840.0000 1.0000
66.7000 829.0000 1.0000
66.7100 847.0000 1.0000
66.7200 796.0000 1.0000
66.7300 796.0000 1.0000
66.7400 838.0000 1.0000
66.7500 752.0000 1.0000
66.7600 717.0000 1.0000
66.7700 756.0000 1.0000
66.7800 717.0000 1.0000
66.7900 689.0000 1.0000
66.8000 715.0000 1.0000
66.8100 713.0000 1.0000
66.8200 713.0000 1.0000
66.8300 696.0000 1.0000
66.8400 722.0000 1.0000
66.8500 660.0000 1.0000
66.8600 638.0000 1.0000
66.8700 681.0000 1.0000
66.8800 649.0000 1.0000
66.8900 657.0000 1.0000
66.9000 650.0000 1.0000
66.9100 675.0000 1.0000
66.9200 653.0000 1.0000
66.9300 687.0000 1.0000
66.9400 642.0000 1.0000
66.9500 623.0000 1.0000
66.9600 621.0000 1.0000
66.9700 634.0000 1.0000
66.9800 651.0000 1.0000
66.9900 652.0000 1.0000
67.0000 633.0000 1.0000
67.0100 625.0000 1.0000
67.0200 640.0000 1.0000
67.0300 623.0000 1.0000
67.0400 592.0000 1.0000
67.0500 635.0000 1.0000
67.0600 631.0000 1.0000
67.0700 604.0000 1.0000
67.0800 616.0000 1.0000
67.0900 609.0000 1.0000
67.1000 589.0000 1.0000
67.1100 581.0000 1.0000
67.1200 585.0000 1.0000
67.1300 582.0000 1.0000
67.1400 581.0000 1.0000
67.1500 558.0000 1.0000
67.1600 638.0000 1.0000
67.1700 624.0000 1.0000
67.1800 580.0000 1.0000
67.1900 600.0000 1.0000
67.2000 570.0000 1.0000
67.2100 592.0000 1.0000
67.2200 567.0000 1.0000
67.2300 583.0000 1.0000
67.2400 600.0000 1.0000
67.2500 577.0000 1.0000
67.2600 550.0000 1.0000
67.2700 582.0000 1.0000
67.2800 557.0000 1.0000
67.2900 570.0000 1.0000
67.3000 606.0000 1.0000
67.3100 595.0000 1.0000
67.3200 594.0000 1.0000
67.3300 570.0000 1.0000
67.3400 599.0000 1.0000
67.3500 616.0000 1.0000
67.3600 602.0000 1.0000
67.3700 615.0000 1.0000
67.3800 621.0000 1.0000
67.3900 611.0000 1.0000
67.4000 569.0000 1.0000
67.4100 566.0000 1.0000
67.4200 559.0000 1.0000
67.4300 598.0000 1.0000
67.4400 601.0000 1.0000
67.4500 567.0000 1.0000
67.4600 543.0000 1.0000
67.4700 582.0000 1.0000
67.4800 602.0000 1.0000
67.4900 568.0000 1.0000
67.5000 586.0000 1.0000
67.5100 596.0000 1.0000
67.5200 547.0000 1.0000
67.5300 549.0000 1.0000
67.5400 572.0000 1.0000
67.5500 544.0000 1.0000
67.5600 578.0000 1.0000
67.5700 548.0000 1.0000
67.5800 569.0000 1.0000
67.5900 559.0000 1.0000
67.6000 571.0000 1.0000
67.6100 551.0000 1.0000
67.6200 550.0000 1.0000
67.6300 542.0000 1.0000
67.6400 570.0000 1.0000
67.6500 603.0000 1.0000
67.6600 572.0000 1.0000
67.6700 572.0000 1.0000
67.6800 569.0000 1.0000
67.6900 567.0000 1.0000
67.7000 578.0000 1.0000
67.7100 584.0000 1.0000
67.7200 581.0000 1.0000
67.7300 547.0000 1.0000
67.7400 542.0000 1.0000
67.7500 562.0000 1.0000
67.7600 533.0000 1.0000
67.7700 583.0000 1.0000
67.7800 585.0000 1.0000
67.7900 548.0000 1.0000
67.8000 563.0000 1.0000
67.8100 607.0000 1.0000
67.8200 562.0000 1.0000
67.8300 576.0000 1.0000
67.8400 570.0000 1.0000
67.8500 534.0000 1.0000
67.8600 531.0000 1.0000
67.8700 540.0000 1.0000
67.8800 539.0000 1.0000
67.8900 541.0000 1.0000
67.9000 581.0000 1.0000
67.9100 573.0000 1.0000
67.9200 557.0000 1.0000
67.9300 558.0000 1.0000
67.9400 550.0000 1.0000
67.9500 519.0000 1.0000
67.9600 546.0000 1.0000
67.9700 569.0000 1.0000
67.9800 547.0000 1.0000
67.9900 563.0000 1.0000
68.0000 566.0000 1.0000
68.0100 542.0000 1.0000
68.0200 555.0000 1.0000
68.0300 539.0000 1.0000
68.0400 570.0000 1.0000
68.0500 559.0000 1.0000
68.0600 538.0000 1.0000
68.0700 558.0000 1.0000
68.0800 536.0000 1.0000
68.0900 569.0000 1.0000
68.1000 552.0000 1.0000
68.1100 567.0000 1.0000
68.1200 601.0000 1.0000
68.1300 582.0000 1.0000
68.1400 544.0000 1.0000
68.1500 541.0000 1.0000
68.1600 539.0000 1.0000
68.1700 557.0000 1.0000
68.1800 538.0000 1.0000
68.1900 544.0000 1.0000
68.2000 531.0000 1.0000
68.2100 537.0000 1.0000
68.2200 582.0000 1.0000
68.2300 574.0000 1.0000
68.2400 567.0000 1.0000
68.2500 561.0000 1.0000
68.2600 552.0000 1.0000
68.2700 521.0000 1.0000
68.2800 541.0000 1.0000
68.2900 546.0000 1.0000
68.3000 540.0000 1.0000
68.3100 521.0000 1.0000
68.3200 539.0000 1.0000
68.3300 559.0000 1.0000
68.3400 558.0000 1.0000
68.3500 561.0000 1.0000
68.3600 536.0000 1.0000
68.3700 535.0000 1.0000
68.3800 551.0000 1.0000
68.3900 511.0000 1.0000
68.4000 556.0000 1.0000
68.4100 553.0000 1.0000
68.4200 531.0000 1.0000
68.4300 583.0000 1.0000
68.4400 526.0000 1.0000
68.4500 545.0000 1.0000
68.4600 560.0000 1.0000
68.4700 536.0000 1.0000
68.4800 504.0000 1.0000
68.4900 502.0000 1.0000
68.5000 509.0000 1.0000
68.5100 548.0000 1.0000
68.5200 544.0000 1.0000
68.5300 547.0000 1.0000
68.5400 541.0000 1.0000
68.5500 553.0000 1.0000
68.5600 579.0000 1.0000
68.5700 560.0000 1.0000
68.5800 508.0000 1.0000
68.5900 509.0000 1.0000
68.6000 530.0000 1.0000
68.6100 537.0000 1.0000
68.6200 539.0000 1.0000
68.6300 552.0000 1.0000
68.6400 562.0000 1.0000
68.6500 523.0000 1.0000
68.6600 531.0000 1.0000
68.6700 518.0000 1.0000
68.6800 530.0000 1.0000
68.6900 565.0000 1.0000
68.7000 546.0000 1.0000
68.7100 538.0000 1.0000
68.7200 515.0000 1.0000
68.7300 533.0000 1.0000
68.7400 536.0000 1.0000
68.7500 565.0000 1.0000
68.7600 557.0000 1.0000
68.7700 548.0000 1.0000
68.7800 543.0000 1.0000
68.7900 528.0000 1.0000
68.8000 519.0000 1.0000
68.8100 569.0000 1.0000
68.8200 515.0000 1.0000
68.8300 514.0000 1.0000
68.8400 540.0000 1.0000
68.8500 545.0000 1.0000
68.8600 574.0000 1.0000
68.8700 535.0000 1.0000
68.8800 535.0000 1.0000
68.8900 502.0000 1.0000
68.9000 521.0000 1.0000
68.9100 554.0000 1.0000
68.9200 556.0000 1.0000
68.9300 554.0000 1.0000
68.9400 559.0000 1.0000
68.9500 545.0000 1.0000
68.9600 540.0000 1.0000
68.9700 514.0000 1.0000
68.9800 513.0000 1.0000
68.9900 532.0000 1.0000
69.0000 554.0000 1.0000
69.0100 549.0000 1.0000
69.0200 540.0000 1.0000
69.0300 531.0000 1.0000
69.0400 534.0000 1.0000
69.0500 557.0000 1.0000
69.0600 534.0000 1.0000
69.0700 526.0000 1.0000
69.0800 527.0000 1.0000
69.0900 574.0000 1.0000
69.1000 562.0000 1.0000
69.1100 520.0000 1.0000
69.1200 551.0000 1.0000
69.1300 536.0000 1.0000
69.1400 495.0000 1.0000
69.1500 541.0000 1.0000
69.1600 513.0000 1.0000
69.1700 522.0000 1.0000
69.1800 554.0000 1.0000
69.1900 571.0000 1.0000
69.2000 546.0000 1.0000
69.2100 523.0000 1.0000
69.2200 526.0000 1.0000
69.2300 535.0000 1.0000
69.2400 533.0000 1.0000
69.2500 568.0000 1.0000
69.2600 579.0000 1.0000
69.2700 503.0000 1.0000
69.2800 530.0000 1.0000
69.2900 517.0000 1.0000
69.3000 505.0000 1.0000
69.3100 534.0000 1.0000
69.3200 577.0000 1.0000
69.3300 548.0000 1.0000
69.3400 556.0000 1.0000
69.3500 544.0000 1.0000
69.3600 528.0000 1.0000
69.3700 522.0000 1.0000
69.3800 550.0000 1.0000
69.3900 537.0000 1.0000
69.4000 537.0000 1.0000
69.4100 536.0000 1.0000
69.4200 572.0000 1.0000
69.4300 515.0000 1.0000
69.4400 542.0000 1.0000
69.4500 571.0000 1.0000
69.4600 546.0000 1.0000
69.4700 563.0000 1.0000
69.4800 529.0000 1.0000
69.4900 535.0000 1.0000
69.5000 575.0000 1.0000
69.5100 541.0000 1.0000
69.5200 533.0000 1.0000
69.5300 538.0000 1.0000
69.5400 543.0000 1.0000
69.5500 535.0000 1.0000
69.5600 519.0000 1.0000
69.5700 546.0000 1.0000
69.5800 520.0000 1.0000
69.5900 529.0000 1.0000
69.6000 532.0000 1.0000
69.6100 525.0000 1.0000
69.6200 508.0000 1.0000
69.6300 505.0000 1.0000
69.6400 512.0000 1.0000
69.6500 506.0000 1.0000
69.6600 528.0000 1.0000
69.6700 558.0000 1.0000
69.6800 544.0000 1.0000
69.6900 518.0000 1.0000
69.7000 511.0000 1.0000
69.7100 551.0000 1.0000
69.7200 545.0000 1.0000
69.7300 521.0000 1.0000
69.7400 507.0000 1.0000
69.7500 541.0000 1.0000
69.7600 576.0000 1.0000
69.7700 544.0000 1.0000
69.7800 547.0000 1.0000
69.7900 533.0000 1.0000
69.8000 506.0000 1.0000
69.8100 545.0000 1.0000
69.8200 526.0000 1.0000
69.8300 556.0000 1.0000
69.8400 511.0000 1.0000
69.8500 514.0000 1.0000
69.8600 523.0000 1.0000
69.8700 522.0000 1.0000
69.8800 519.0000 1.0000
69.8900 563.0000 1.0000
69.9000 541.0000 1.0000
69.9100 490.0000 1.0000
69.9200 516.0000 1.0000
69.9300 514.0000 1.0000
69.9400 540.0000 1.0000
69.9500 512.0000 1.0000
69.9600 523.0000 1.0000
69.9700 500.0000 1.0000
69.9800 488.0000 1.0000
69.9900 560.0000 1.0000
70.0000 516.0000 1.0000
*RAS_INT_END
*RAS_TEMPERATURE_START
*RAS_TEMPERATURE_END
*RAS_DATA_END
