*RAS_DATA_START
*RAS_HEADER_START
*DISP_FMT_X "%.2f"
*DISP_FMT_Y "%.0f"
*DISP_FULLSCALE "12588.0000000000"
*DISP_LINE_COLOR "255.0000000000"
*DISP_LINE_STYLE "0.0000000000"
*DISP_LINE_WIDTH "0.2500000000"
*DISP_NOTE "測定データ-4"
*DISP_OFFSET_Y "0.0000000000"
*DISP_PEAKSEARCH_UNIT_Y "cps"
*DISP_RANGE_BOTTOM "0.0000000000"
*DISP_RANGE_LEFT "20.0000000000"
*DISP_RANGE_LOGCUTOFF "0.0100000000"
*DISP_RANGE_RIGHT "70.0000000000"
*DISP_RANGE_TOP "12588.0000000000"
*DISP_SCALE_MODE_Y "0.0000000000"
*DISP_TAB_NAME "2θ/θ"
*DISP_TITLE_Y "強度"
*DISP_UNIT_Y "cps"
*DISP_WINDOW_NAME "MSG_MACROENGINE"
*FILE_COMMENT " "
*FILE_MD5 ""
*FILE_MEMO " "
*FILE_OPERATOR "Administrator"
*FILE_SAMPLE " "
*FILE_TYPE "RAS_RAW"
*FILE_USERGROUP "システムマネージャ"
*FILE_VERSION "1.0000000000"
*HW_ATTACHMENT_ID "ATT0025"
*HW_ATTACHMENT_NAME "標準|Standard"
*HW_COUNTER_ID-0 "CUT0025"
*HW_COUNTER_ID-1 "CUT0020"
*HW_COUNTER_ID-2 "CUT0020"
*HW_COUNTER_ID-3 "CSL0021"
*HW_COUNTER_ID-4 "CMC0021"
*HW_COUNTER_NAME-0 "D/teX Ultra|D/teX Ultra"
*HW_COUNTER_NAME-1 "None|None"
*HW_COUNTER_NAME-2 "None|None"
*HW_COUNTER_NAME-3 "BBM|BBM"
*HW_COUNTER_NAME-4 "検出器モノクロメータ|Detector monochromator"
*HW_COUNTER_SELECT_NAME "D/teX Ultra|D/teX Ultra"
*HW_GONIOMETER_ID "GON0023"
*HW_GONIOMETER_NAME "SmartLab|SmartLab"
*HW_GONIOMETER_RADIUS-0 "90.0"
*HW_GONIOMETER_RADIUS-1 "114.0"
*HW_GONIOMETER_RADIUS-2 "190.0"
*HW_GONIOMETER_RADIUS-3 "300.0"
*HW_GONIOMETER_RADIUS-4 "187.0"
*HW_GONIOMETER_RADIUS-5 "300.0"
*HW_GONIOMETER_RADIUS-6 "113.0"
*HW_GONIOMETER_RADIUS-7 "331.0"
*HW_I_OPT_ID-0 "CBO0021"
*HW_I_OPT_ID-1 "ICR0023"
*HW_I_OPT_ID-2 "ISL0021"
*HW_I_OPT_ID-3 "ISO0021"
*HW_I_OPT_ID-4 "IAD0021"
*HW_I_OPT_ID-5 "IPR0001"
*HW_I_OPT_NAME-0 "CBOユニット|CBO unit"
*HW_I_OPT_NAME-1 "標準入射光学ユニット|Standard incident optical unit"
*HW_I_OPT_NAME-2 "標準入射スリットボックス|Standard incident slit box"
*HW_I_OPT_NAME-3 "入射平行スリット|Incident parallel slit"
*HW_I_OPT_NAME-4 "長手制限スリット|Length limiting slit"
*HW_I_OPT_NAME-5 "None|None"
*HW_R_ATTENUATER_AUTOMODE "0"
*HW_R_OPT_ID-0 "RSS0021"
*HW_R_OPT_ID-1 "RCR0023"
*HW_R_OPT_ID-2 "RSO0021"
*HW_R_OPT_ID-3 "RRS0021"
*HW_R_OPT_ID-4 "ATN0021"
*HW_R_OPT_ID-5 "RFL0021"
*HW_R_OPT_ID-6 "RAD0021"
*HW_R_OPT_NAME-0 "標準受光スリットボックス1|Standard receiving slit box # 1"
*HW_R_OPT_NAME-1 "標準受光光学ユニット1|Standard receiving unit # 1"
*HW_R_OPT_NAME-2 "標準受光光学ユニット2|Standard receiving optical unit # 2"
*HW_R_OPT_NAME-3 "標準受光スリットボックス2|Standard receiving slit box # 2"
*HW_R_OPT_NAME-4 "標準アッテネータ|Standard Attenuator"
*HW_R_OPT_NAME-5 "Cu Kβ|Cu K-beta"
*HW_R_OPT_NAME-6 "調整用受光スリット|Alignment receiving slit"
*HW_SAMPLE_HOLDER_ID "SMP0023"
*HW_SAMPLE_HOLDER_NAME "標準Zステージ|Standard Z stage"
*HW_XG_CURRENT_MAX "50"
*HW_XG_CURRENT_MIN "2"
*HW_XG_CURRENT_RESOLUTION "1"
*HW_XG_CURRENT_UNIT "mA"
*HW_XG_FOCUS "1mm x 10mm"
*HW_XG_FOCUS_TYPE "Normal"
*HW_XG_ID ""
*HW_XG_NAME "3kW 封入管(ID:1200)|3kW Sealed tube(ID:1200)"
*HW_XG_TARGET_ATOMIC_NUMBER "29.0000000000"
*HW_XG_TARGET_NAME "Cu"
*HW_XG_TYPE "Hermetic"
*HW_XG_VOLTAGE_MAX "60"
*HW_XG_VOLTAGE_MIN "20"
*HW_XG_VOLTAGE_RESOLUTION "1"
*HW_XG_VOLTAGE_UNIT "kV"
*HW_XG_WATT_MAX "1.500"
*HW_XG_WATT_UNIT "kW"
*HW_XG_WAVE_LENGTH_ALPHA1 "1.540593"
*HW_XG_WAVE_LENGTH_ALPHA2 "1.544414"
*HW_XG_WAVE_LENGTH_BETA "1.392250"
*MEAS_COND_AXIS_NAME-0 "2θ/θ"
*MEAS_COND_AXIS_NAME-1 "2θ"
*MEAS_COND_AXIS_NAME-2 "ω"
*MEAS_COND_AXIS_NAME-3 "Z"
*MEAS_COND_AXIS_NAME-4 "2θ/ω"
*MEAS_COND_AXIS_NAME-5 "θs"
*MEAS_COND_AXIS_NAME-6 "θd"
*MEAS_COND_AXIS_NAME-7 "Ts"
*MEAS_COND_AXIS_NAME-8 "CBO選択スリット"
*MEAS_COND_AXIS_NAME-9 "M"
*MEAS_COND_AXIS_NAME-10 "入射平行スリット"
*MEAS_COND_AXIS_NAME-11 "入射スリット"
*MEAS_COND_AXIS_NAME-12 ""
*MEAS_COND_AXIS_NAME-13 "Zs"
*MEAS_COND_AXIS_NAME-14 "入射光学素子"
*MEAS_COND_AXIS_NAME-15 "長手制限スリット"
*MEAS_COND_AXIS_NAME-16 "センタースリット"
*MEAS_COND_AXIS_NAME-17 "フィルター"
*MEAS_COND_AXIS_NAME-18 "受光スリット1"
*MEAS_COND_AXIS_NAME-19 "受光スリット2"
*MEAS_COND_AXIS_NAME-20 "受光光学素子"
*MEAS_COND_AXIS_NAME-21 "受光平行スリット"
*MEAS_COND_AXIS_NAME-22 "調整用受光スリット"
*MEAS_COND_AXIS_NAME-23 ""
*MEAS_COND_AXIS_NAME-24 ""
*MEAS_COND_AXIS_NAME-25 "Zd"
*MEAS_COND_AXIS_NAME-26 "アッテネータ"
*MEAS_COND_AXIS_NAME-27 "検出器モノクロメータ"
*MEAS_COND_AXIS_NAME-28 "モノクロメータスリット"
*MEAS_COND_AXIS_NAME-29 "プライマリビーム"
*MEAS_COND_AXIS_NAME-30 "PHA"
*MEAS_COND_AXIS_NAME_INTERNAL-0 "TwoThetaTheta"
*MEAS_COND_AXIS_NAME_INTERNAL-1 "TwoTheta"
*MEAS_COND_AXIS_NAME_INTERNAL-2 "Omega"
*MEAS_COND_AXIS_NAME_INTERNAL-3 "Z"
*MEAS_COND_AXIS_NAME_INTERNAL-4 "TwoThetaOmega"
*MEAS_COND_AXIS_NAME_INTERNAL-5 "ThetaS"
*MEAS_COND_AXIS_NAME_INTERNAL-6 "ThetaD"
*MEAS_COND_AXIS_NAME_INTERNAL-7 "Ts"
*MEAS_COND_AXIS_NAME_INTERNAL-8 "CBO"
*MEAS_COND_AXIS_NAME_INTERNAL-9 "CBO-M"
*MEAS_COND_AXIS_NAME_INTERNAL-10 "IncidentSollerSlit"
*MEAS_COND_AXIS_NAME_INTERNAL-11 "IncidentSlitBox"
*MEAS_COND_AXIS_NAME_INTERNAL-12 "IncidentSlitBox-_Axis"
*MEAS_COND_AXIS_NAME_INTERNAL-13 "Zs"
*MEAS_COND_AXIS_NAME_INTERNAL-14 "IncidentMonochromator"
*MEAS_COND_AXIS_NAME_INTERNAL-15 "IncidentAxdSlit"
*MEAS_COND_AXIS_NAME_INTERNAL-16 "CenterSlit"
*MEAS_COND_AXIS_NAME_INTERNAL-17 "Filter"
*MEAS_COND_AXIS_NAME_INTERNAL-18 "ReceivingSlitBox1"
*MEAS_COND_AXIS_NAME_INTERNAL-19 "ReceivingSlitBox2"
*MEAS_COND_AXIS_NAME_INTERNAL-20 "ReceivingOptics"
*MEAS_COND_AXIS_NAME_INTERNAL-21 "ReceivingSollerSlit"
*MEAS_COND_AXIS_NAME_INTERNAL-22 "ReceivingAxdSlit"
*MEAS_COND_AXIS_NAME_INTERNAL-23 "ReceivingSlitBox1-_Axis"
*MEAS_COND_AXIS_NAME_INTERNAL-24 "ReceivingSlitBox2-_Axis"
*MEAS_COND_AXIS_NAME_INTERNAL-25 "ReceivingSlitBox2-Zd"
*MEAS_COND_AXIS_NAME_INTERNAL-26 "Attenuator"
*MEAS_COND_AXIS_NAME_INTERNAL-27 "CounterMonochromator"
*MEAS_COND_AXIS_NAME_INTERNAL-28 "CounterSlit"
*MEAS_COND_AXIS_NAME_INTERNAL-29 "IncidentPrimary"
*MEAS_COND_AXIS_NAME_INTERNAL-30 "PHA"
*MEAS_COND_AXIS_NAME_MAGICNO-0 "83951616.0000000000"
*MEAS_COND_AXIS_NAME_MAGICNO-1 "268632064.0000000000"
*MEAS_COND_AXIS_NAME_MAGICNO-2 "268500992.0000000000"
*MEAS_COND_AXIS_NAME_MAGICNO-3 "285278208.0000000000"
*MEAS_COND_AXIS_NAME_MAGICNO-4 "83951616.0000000000"
*MEAS_COND_AXIS_NAME_MAGICNO-5 "131072.0000000000"
*MEAS_COND_AXIS_NAME_MAGICNO-6 "131072.0000000000"
*MEAS_COND_AXIS_NAME_MAGICNO-7 "318898176.0000000000"
*MEAS_COND_AXIS_NAME_MAGICNO-8 "20971521.0000000000"
*MEAS_COND_AXIS_NAME_MAGICNO-9 "285343744.0000000000"
*MEAS_COND_AXIS_NAME_MAGICNO-10 "20971521.0000000000"
*MEAS_COND_AXIS_NAME_MAGICNO-11 "22020097.0000000000"
*MEAS_COND_AXIS_NAME_MAGICNO-12 "25165824.0000000000"
*MEAS_COND_AXIS_NAME_MAGICNO-13 "318898176.0000000000"
*MEAS_COND_AXIS_NAME_MAGICNO-14 "1.0000000000"
*MEAS_COND_AXIS_NAME_MAGICNO-15 "20971521.0000000000"
*MEAS_COND_AXIS_NAME_MAGICNO-16 "20971521.0000000000"
*MEAS_COND_AXIS_NAME_MAGICNO-17 "20971521.0000000000"
*MEAS_COND_AXIS_NAME_MAGICNO-18 "23068673.0000000000"
*MEAS_COND_AXIS_NAME_MAGICNO-19 "23068673.0000000000"
*MEAS_COND_AXIS_NAME_MAGICNO-20 "20971521.0000000000"
*MEAS_COND_AXIS_NAME_MAGICNO-21 "20971521.0000000000"
*MEAS_COND_AXIS_NAME_MAGICNO-22 "20971521.0000000000"
*MEAS_COND_AXIS_NAME_MAGICNO-23 "25165824.0000000000"
*MEAS_COND_AXIS_NAME_MAGICNO-24 "25165824.0000000000"
*MEAS_COND_AXIS_NAME_MAGICNO-25 "285343744.0000000000"
*MEAS_COND_AXIS_NAME_MAGICNO-26 "17301505.0000000000"
*MEAS_COND_AXIS_NAME_MAGICNO-27 "20971521.0000000000"
*MEAS_COND_AXIS_NAME_MAGICNO-28 "20971521.0000000000"
*MEAS_COND_AXIS_NAME_MAGICNO-29 "20971521.0000000000"
*MEAS_COND_AXIS_NAME_MAGICNO-30 "0.0000000000"
*MEAS_COND_AXIS_OFFSET-0 "-"
*MEAS_COND_AXIS_OFFSET-1 "-0.1081000000"
*MEAS_COND_AXIS_OFFSET-2 "0.3758000000"
*MEAS_COND_AXIS_OFFSET-3 "-"
*MEAS_COND_AXIS_OFFSET-4 "-"
*MEAS_COND_AXIS_OFFSET-5 "0.3758000000"
*MEAS_COND_AXIS_OFFSET-6 "-0.4839000000"
*MEAS_COND_AXIS_OFFSET-7 "-"
*MEAS_COND_AXIS_OFFSET-8 "-"
*MEAS_COND_AXIS_OFFSET-9 "-"
*MEAS_COND_AXIS_OFFSET-10 "-"
*MEAS_COND_AXIS_OFFSET-11 "-"
*MEAS_COND_AXIS_OFFSET-12 "-"
*MEAS_COND_AXIS_OFFSET-13 "-"
*MEAS_COND_AXIS_OFFSET-14 "-"
*MEAS_COND_AXIS_OFFSET-15 "-"
*MEAS_COND_AXIS_OFFSET-16 "-"
*MEAS_COND_AXIS_OFFSET-17 "-"
*MEAS_COND_AXIS_OFFSET-18 "-"
*MEAS_COND_AXIS_OFFSET-19 "-"
*MEAS_COND_AXIS_OFFSET-20 "-"
*MEAS_COND_AXIS_OFFSET-21 "-"
*MEAS_COND_AXIS_OFFSET-22 "-"
*MEAS_COND_AXIS_OFFSET-23 "-"
*MEAS_COND_AXIS_OFFSET-24 "-"
*MEAS_COND_AXIS_OFFSET-25 "-"
*MEAS_COND_AXIS_OFFSET-26 "-"
*MEAS_COND_AXIS_OFFSET-27 "-"
*MEAS_COND_AXIS_OFFSET-28 "-"
*MEAS_COND_AXIS_OFFSET-29 "-"
*MEAS_COND_AXIS_OFFSET-30 "-"
*MEAS_COND_AXIS_POSITION-0 "0.0000000000"
*MEAS_COND_AXIS_POSITION-1 "0.0000000000"
*MEAS_COND_AXIS_POSITION-2 "0.0000000000"
*MEAS_COND_AXIS_POSITION-3 "-0.5500000000"
*MEAS_COND_AXIS_POSITION-4 "0.0000000000"
*MEAS_COND_AXIS_POSITION-5 "0.0000000000"
*MEAS_COND_AXIS_POSITION-6 "0.0000000000"
*MEAS_COND_AXIS_POSITION-7 "-0.4278800000"
*MEAS_COND_AXIS_POSITION-8 "BB"
*MEAS_COND_AXIS_POSITION-9 "0.0000000000"
*MEAS_COND_AXIS_POSITION-10 "Soller_slit_5.0deg"
*MEAS_COND_AXIS_POSITION-11 "2/3deg"
*MEAS_COND_AXIS_POSITION-12 "2.2088000000"
*MEAS_COND_AXIS_POSITION-13 "-0.4140600000"
*MEAS_COND_AXIS_POSITION-14 "0.0000000000"
*MEAS_COND_AXIS_POSITION-15 "10.0mm"
*MEAS_COND_AXIS_POSITION-16 "None"
*MEAS_COND_AXIS_POSITION-17 "Cu_K-beta"
*MEAS_COND_AXIS_POSITION-18 "13.000mm"
*MEAS_COND_AXIS_POSITION-19 "13.000mm"
*MEAS_COND_AXIS_POSITION-20 "No_unit"
*MEAS_COND_AXIS_POSITION-21 "Soller_slit_5.0deg"
*MEAS_COND_AXIS_POSITION-22 "None"
*MEAS_COND_AXIS_POSITION-23 "13.0000000000"
*MEAS_COND_AXIS_POSITION-24 "13.0000000000"
*MEAS_COND_AXIS_POSITION-25 "0.0109400000"
*MEAS_COND_AXIS_POSITION-26 "Open"
*MEAS_COND_AXIS_POSITION-27 "None"
*MEAS_COND_AXIS_POSITION-28 "None"
*MEAS_COND_AXIS_POSITION-29 "None"
*MEAS_COND_AXIS_POSITION-30 "38.0000000000"
*MEAS_COND_AXIS_UNIT-0 "deg"
*MEAS_COND_AXIS_UNIT-1 "deg"
*MEAS_COND_AXIS_UNIT-2 "deg"
*MEAS_COND_AXIS_UNIT-3 "mm"
*MEAS_COND_AXIS_UNIT-4 "deg"
*MEAS_COND_AXIS_UNIT-5 "deg"
*MEAS_COND_AXIS_UNIT-6 "deg"
*MEAS_COND_AXIS_UNIT-7 "mm"
*MEAS_COND_AXIS_UNIT-8 ""
*MEAS_COND_AXIS_UNIT-9 "pulse"
*MEAS_COND_AXIS_UNIT-10 ""
*MEAS_COND_AXIS_UNIT-11 ""
*MEAS_COND_AXIS_UNIT-12 "mm"
*MEAS_COND_AXIS_UNIT-13 "mm"
*MEAS_COND_AXIS_UNIT-14 ""
*MEAS_COND_AXIS_UNIT-15 ""
*MEAS_COND_AXIS_UNIT-16 ""
*MEAS_COND_AXIS_UNIT-17 ""
*MEAS_COND_AXIS_UNIT-18 ""
*MEAS_COND_AXIS_UNIT-19 ""
*MEAS_COND_AXIS_UNIT-20 ""
*MEAS_COND_AXIS_UNIT-21 ""
*MEAS_COND_AXIS_UNIT-22 ""
*MEAS_COND_AXIS_UNIT-23 "mm"
*MEAS_COND_AXIS_UNIT-24 "mm"
*MEAS_COND_AXIS_UNIT-25 "mm"
*MEAS_COND_AXIS_UNIT-26 ""
*MEAS_COND_AXIS_UNIT-27 ""
*MEAS_COND_AXIS_UNIT-28 ""
*MEAS_COND_AXIS_UNIT-29 ""
*MEAS_COND_AXIS_UNIT-30 "div"
*MEAS_COND_COUNTER_CNTLOSS_CORR "0.0000000000"
*MEAS_COND_COUNTER_PHABASE "38.0000000000"
*MEAS_COND_COUNTER_PHAWINDOW "16.0000000000"
*MEAS_COND_COUNTER_PHA_UNIT "div"
*MEAS_COND_COUNTER_TAUDIFF "30.0000000000"
*MEAS_COND_COUNTER_TAUINT "0.0000000000"
*MEAS_COND_IRRADIATION_MODE "OFF"
*MEAS_COND_IRRADIATION_WIDTH ""
*MEAS_COND_OPT_ATTR "集中法"
*MEAS_COND_OPT_NAME "@集中法"
*MEAS_COND_UNSYMMETRIC_MODE "OFF"
*MEAS_COND_XG_CURRENT "30.0000000000"
*MEAS_COND_XG_VOLTAGE "40.0000000000"
*MEAS_COND_XG_WAVE_TYPE "Ka"
*MEAS_DATA_COUNT "5001.0000000000"
*MEAS_SCAN_AXIS_X "2θ/θ"
*MEAS_SCAN_AXIS_X_INTERNAL "TwoThetaTheta"
*MEAS_SCAN_END_TIME "07/14/21 14:51:38"
*MEAS_SCAN_MODE "CONTINUOUS"
*MEAS_SCAN_MONITOR "0"
*MEAS_SCAN_RESOLUTION_X "0.0002"
*MEAS_SCAN_SPEED "1.0"
*MEAS_SCAN_SPEED_UNIT "deg/min"
*MEAS_SCAN_START "20.0000000000"
*MEAS_SCAN_START_TIME "07/14/21 13:58:45"
*MEAS_SCAN_STEP "0.0100000000"
*MEAS_SCAN_STOP "70.0000000000"
*MEAS_SCAN_UNIT_X "deg"
*MEAS_SCAN_UNIT_Y "counts"
*RAS_HEADER_END
*RAS_INT_START
20.0000 1493.0000 1.0000
20.0100 1472.0000 1.0000
20.0200 1486.0000 1.0000
20.0300 1518.0000 1.0000
20.0400 1470.0000 1.0000
20.0500 1485.0000 1.0000
20.0600 1479.0000 1.0000
20.0700 1506.0000 1.0000
20.0800 1527.0000 1.0000
20.0900 1464.0000 1.0000
20.1000 1468.0000 1.0000
20.1100 1451.0000 1.0000
20.1200 1466.0000 1.0000
20.1300 1479.0000 1.0000
20.1400 1485.0000 1.0000
20.1500 1496.0000 1.0000
20.1600 1510.0000 1.0000
20.1700 1487.0000 1.0000
20.1800 1548.0000 1.0000
20.1900 1424.0000 1.0000
20.2000 1497.0000 1.0000
20.2100 1455.0000 1.0000
20.2200 1482.0000 1.0000
20.2300 1482.0000 1.0000
20.2400 1499.0000 1.0000
20.2500 1489.0000 1.0000
20.2600 1452.0000 1.0000
20.2700 1495.0000 1.0000
20.2800 1426.0000 1.0000
20.2900 1504.0000 1.0000
20.3000 1459.0000 1.0000
20.3100 1461.0000 1.0000
20.3200 1485.0000 1.0000
20.3300 1433.0000 1.0000
20.3400 1550.0000 1.0000
20.3500 1450.0000 1.0000
20.3600 1449.0000 1.0000
20.3700 1404.0000 1.0000
20.3800 1443.0000 1.0000
20.3900 1464.0000 1.0000
20.4000 1445.0000 1.0000
20.4100 1444.0000 1.0000
20.4200 1433.0000 1.0000
20.4300 1465.0000 1.0000
20.4400 1493.0000 1.0000
20.4500 1491.0000 1.0000
20.4600 1438.0000 1.0000
20.4700 1503.0000 1.0000
20.4800 1420.0000 1.0000
20.4900 1497.0000 1.0000
20.5000 1479.0000 1.0000
20.5100 1465.0000 1.0000
20.5200 1506.0000 1.0000
20.5300 1510.0000 1.0000
20.5400 1438.0000 1.0000
20.5500 1387.0000 1.0000
20.5600 1489.0000 1.0000
20.5700 1489.0000 1.0000
20.5800 1508.0000 1.0000
20.5900 1486.0000 1.0000
20.6000 1463.0000 1.0000
20.6100 1487.0000 1.0000
20.6200 1502.0000 1.0000
20.6300 1515.0000 1.0000
20.6400 1477.0000 1.0000
20.6500 1491.0000 1.0000
20.6600 1407.0000 1.0000
20.6700 1449.0000 1.0000
20.6800 1500.0000 1.0000
20.6900 1439.0000 1.0000
20.7000 1397.0000 1.0000
20.7100 1402.0000 1.0000
20.7200 1424.0000 1.0000
20.7300 1426.0000 1.0000
20.7400 1494.0000 1.0000
20.7500 1442.0000 1.0000
20.7600 1411.0000 1.0000
20.7700 1429.0000 1.0000
20.7800 1452.0000 1.0000
20.7900 1490.0000 1.0000
20.8000 1454.0000 1.0000
20.8100 1509.0000 1.0000
20.8200 1469.0000 1.0000
20.8300 1438.0000 1.0000
20.8400 1478.0000 1.0000
20.8500 1536.0000 1.0000
20.8600 1461.0000 1.0000
20.8700 1467.0000 1.0000
20.8800 1495.0000 1.0000
20.8900 1439.0000 1.0000
20.9000 1420.0000 1.0000
20.9100 1482.0000 1.0000
20.9200 1530.0000 1.0000
20.9300 1410.0000 1.0000
20.9400 1431.0000 1.0000
20.9500 1463.0000 1.0000
20.9600 1438.0000 1.0000
20.9700 1446.0000 1.0000
20.9800 1460.0000 1.0000
20.9900 1469.0000 1.0000
21.0000 1453.0000 1.0000
21.0100 1484.0000 1.0000
21.0200 1513.0000 1.0000
21.0300 1543.0000 1.0000
21.0400 1483.0000 1.0000
21.0500 1456.0000 1.0000
21.0600 1496.0000 1.0000
21.0700 1506.0000 1.0000
21.0800 1484.0000 1.0000
21.0900 1459.0000 1.0000
21.1000 1492.0000 1.0000
21.1100 1396.0000 1.0000
21.1200 1450.0000 1.0000
21.1300 1459.0000 1.0000
21.1400 1516.0000 1.0000
21.1500 1439.0000 1.0000
21.1600 1446.0000 1.0000
21.1700 1502.0000 1.0000
21.1800 1416.0000 1.0000
21.1900 1492.0000 1.0000
21.2000 1438.0000 1.0000
21.2100 1468.0000 1.0000
21.2200 1512.0000 1.0000
21.2300 1394.0000 1.0000
21.2400 1516.0000 1.0000
21.2500 1466.0000 1.0000
21.2600 1501.0000 1.0000
21.2700 1553.0000 1.0000
21.2800 1484.0000 1.0000
21.2900 1419.0000 1.0000
21.3000 1406.0000 1.0000
21.3100 1444.0000 1.0000
21.3200 1434.0000 1.0000
21.3300 1450.0000 1.0000
21.3400 1499.0000 1.0000
21.3500 1467.0000 1.0000
21.3600 1517.0000 1.0000
21.3700 1505.0000 1.0000
21.3800 1537.0000 1.0000
21.3900 1560.0000 1.0000
21.4000 1445.0000 1.0000
21.4100 1433.0000 1.0000
21.4200 1480.0000 1.0000
21.4300 1502.0000 1.0000
21.4400 1507.0000 1.0000
21.4500 1534.0000 1.0000
21.4600 1442.0000 1.0000
21.4700 1463.0000 1.0000
21.4800 1496.0000 1.0000
21.4900 1442.0000 1.0000
21.5000 1505.0000 1.0000
21.5100 1552.0000 1.0000
21.5200 1529.0000 1.0000
21.5300 1480.0000 1.0000
21.5400 1505.0000 1.0000
21.5500 1448.0000 1.0000
21.5600 1478.0000 1.0000
21.5700 1535.0000 1.0000
21.5800 1486.0000 1.0000
21.5900 1424.0000 1.0000
21.6000 1464.0000 1.0000
21.6100 1491.0000 1.0000
21.6200 1498.0000 1.0000
21.6300 1392.0000 1.0000
21.6400 1470.0000 1.0000
21.6500 1514.0000 1.0000
21.6600 1449.0000 1.0000
21.6700 1408.0000 1.0000
21.6800 1469.0000 1.0000
21.6900 1520.0000 1.0000
21.7000 1459.0000 1.0000
21.7100 1487.0000 1.0000
21.7200 1506.0000 1.0000
21.7300 1481.0000 1.0000
21.7400 1496.0000 1.0000
21.7500 1477.0000 1.0000
21.7600 1486.0000 1.0000
21.7700 1480.0000 1.0000
21.7800 1472.0000 1.0000
21.7900 1461.0000 1.0000
21.8000 1477.0000 1.0000
21.8100 1575.0000 1.0000
21.8200 1536.0000 1.0000
21.8300 1449.0000 1.0000
21.8400 1468.0000 1.0000
21.8500 1483.0000 1.0000
21.8600 1469.0000 1.0000
21.8700 1479.0000 1.0000
21.8800 1501.0000 1.0000
21.8900 1534.0000 1.0000
21.9000 1454.0000 1.0000
21.9100 1486.0000 1.0000
21.9200 1488.0000 1.0000
21.9300 1480.0000 1.0000
21.9400 1534.0000 1.0000
21.9500 1446.0000 1.0000
21.9600 1443.0000 1.0000
21.9700 1439.0000 1.0000
21.9800 1528.0000 1.0000
21.9900 1434.0000 1.0000
22.0000 1468.0000 1.0000
22.0100 1455.0000 1.0000
22.0200 1468.0000 1.0000
22.0300 1417.0000 1.0000
22.0400 1468.0000 1.0000
22.0500 1488.0000 1.0000
22.0600 1455.0000 1.0000
22.0700 1484.0000 1.0000
22.0800 1503.0000 1.0000
22.0900 1488.0000 1.0000
22.1000 1486.0000 1.0000
22.1100 1494.0000 1.0000
22.1200 1438.0000 1.0000
22.1300 1418.0000 1.0000
22.1400 1468.0000 1.0000
22.1500 1439.0000 1.0000
22.1600 1463.0000 1.0000
22.1700 1497.0000 1.0000
22.1800 1492.0000 1.0000
22.1900 1533.0000 1.0000
22.2000 1543.0000 1.0000
22.2100 1421.0000 1.0000
22.2200 1402.0000 1.0000
22.2300 1493.0000 1.0000
22.2400 1432.0000 1.0000
22.2500 1511.0000 1.0000
22.2600 1435.0000 1.0000
22.2700 1496.0000 1.0000
22.2800 1411.0000 1.0000
22.2900 1497.0000 1.0000
22.3000 1451.0000 1.0000
22.3100 1439.0000 1.0000
22.3200 1493.0000 1.0000
22.3300 1456.0000 1.0000
22.3400 1411.0000 1.0000
22.3500 1433.0000 1.0000
22.3600 1498.0000 1.0000
22.3700 1495.0000 1.0000
22.3800 1469.0000 1.0000
22.3900 1425.0000 1.0000
22.4000 1480.0000 1.0000
22.4100 1451.0000 1.0000
22.4200 1475.0000 1.0000
22.4300 1452.0000 1.0000
22.4400 1499.0000 1.0000
22.4500 1529.0000 1.0000
22.4600 1464.0000 1.0000
22.4700 1501.0000 1.0000
22.4800 1479.0000 1.0000
22.4900 1533.0000 1.0000
22.5000 1470.0000 1.0000
22.5100 1475.0000 1.0000
22.5200 1487.0000 1.0000
22.5300 1468.0000 1.0000
22.5400 1439.0000 1.0000
22.5500 1482.0000 1.0000
22.5600 1471.0000 1.0000
22.5700 1483.0000 1.0000
22.5800 1458.0000 1.0000
22.5900 1496.0000 1.0000
22.6000 1473.0000 1.0000
22.6100 1505.0000 1.0000
22.6200 1463.0000 1.0000
22.6300 1508.0000 1.0000
22.6400 1490.0000 1.0000
22.6500 1457.0000 1.0000
22.6600 1431.0000 1.0000
22.6700 1448.0000 1.0000
22.6800 1442.0000 1.0000
22.6900 1469.0000 1.0000
22.7000 1395.0000 1.0000
22.7100 1462.0000 1.0000
22.7200 1488.0000 1.0000
22.7300 1484.0000 1.0000
22.7400 1512.0000 1.0000
22.7500 1551.0000 1.0000
22.7600 1496.0000 1.0000
22.7700 1455.0000 1.0000
22.7800 1482.0000 1.0000
22.7900 1502.0000 1.0000
22.8000 1509.0000 1.0000
22.8100 1450.0000 1.0000
22.8200 1453.0000 1.0000
22.8300 1522.0000 1.0000
22.8400 1455.0000 1.0000
22.8500 1491.0000 1.0000
22.8600 1441.0000 1.0000
22.8700 1503.0000 1.0000
22.8800 1533.0000 1.0000
22.8900 1518.0000 1.0000
22.9000 1576.0000 1.0000
22.9100 1500.0000 1.0000
22.9200 1536.0000 1.0000
22.9300 1492.0000 1.0000
22.9400 1484.0000 1.0000
22.9500 1493.0000 1.0000
22.9600 1514.0000 1.0000
22.9700 1513.0000 1.0000
22.9800 1527.0000 1.0000
22.9900 1509.0000 1.0000
23.0000 1428.0000 1.0000
23.0100 1441.0000 1.0000
23.0200 1476.0000 1.0000
23.0300 1510.0000 1.0000
23.0400 1531.0000 1.0000
23.0500 1463.0000 1.0000
23.0600 1525.0000 1.0000
23.0700 1483.0000 1.0000
23.0800 1499.0000 1.0000
23.0900 1487.0000 1.0000
23.1000 1514.0000 1.0000
23.1100 1470.0000 1.0000
23.1200 1510.0000 1.0000
23.1300 1533.0000 1.0000
23.1400 1460.0000 1.0000
23.1500 1514.0000 1.0000
23.1600 1527.0000 1.0000
23.1700 1471.0000 1.0000
23.1800 1523.0000 1.0000
23.1900 1514.0000 1.0000
23.2000 1499.0000 1.0000
23.2100 1492.0000 1.0000
23.2200 1429.0000 1.0000
23.2300 1473.0000 1.0000
23.2400 1469.0000 1.0000
23.2500 1484.0000 1.0000
23.2600 1517.0000 1.0000
23.2700 1479.0000 1.0000
23.2800 1511.0000 1.0000
23.2900 1540.0000 1.0000
23.3000 1490.0000 1.0000
23.3100 1580.0000 1.0000
23.3200 1519.0000 1.0000
23.3300 1491.0000 1.0000
23.3400 1493.0000 1.0000
23.3500 1486.0000 1.0000
23.3600 1508.0000 1.0000
23.3700 1478.0000 1.0000
23.3800 1492.0000 1.0000
23.3900 1530.0000 1.0000
23.4000 1500.0000 1.0000
23.4100 1490.0000 1.0000
23.4200 1510.0000 1.0000
23.4300 1448.0000 1.0000
23.4400 1515.0000 1.0000
23.4500 1514.0000 1.0000
23.4600 1530.0000 1.0000
23.4700 1486.0000 1.0000
23.4800 1484.0000 1.0000
23.4900 1481.0000 1.0000
23.5000 1463.0000 1.0000
23.5100 1491.0000 1.0000
23.5200 1563.0000 1.0000
23.5300 1469.0000 1.0000
23.5400 1483.0000 1.0000
23.5500 1522.0000 1.0000
23.5600 1524.0000 1.0000
23.5700 1543.0000 1.0000
23.5800 1482.0000 1.0000
23.5900 1469.0000 1.0000
23.6000 1494.0000 1.0000
23.6100 1456.0000 1.0000
23.6200 1485.0000 1.0000
23.6300 1465.0000 1.0000
23.6400 1488.0000 1.0000
23.6500 1530.0000 1.0000
23.6600 1491.0000 1.0000
23.6700 1460.0000 1.0000
23.6800 1516.0000 1.0000
23.6900 1501.0000 1.0000
23.7000 1464.0000 1.0000
23.7100 1519.0000 1.0000
23.7200 1490.0000 1.0000
23.7300 1479.0000 1.0000
23.7400 1498.0000 1.0000
23.7500 1441.0000 1.0000
23.7600 1541.0000 1.0000
23.7700 1479.0000 1.0000
23.7800 1489.0000 1.0000
23.7900 1477.0000 1.0000
23.8000 1457.0000 1.0000
23.8100 1477.0000 1.0000
23.8200 1554.0000 1.0000
23.8300 1524.0000 1.0000
23.8400 1536.0000 1.0000
23.8500 1519.0000 1.0000
23.8600 1459.0000 1.0000
23.8700 1491.0000 1.0000
23.8800 1531.0000 1.0000
23.8900 1528.0000 1.0000
23.9000 1482.0000 1.0000
23.9100 1528.0000 1.0000
23.9200 1551.0000 1.0000
23.9300 1508.0000 1.0000
23.9400 1439.0000 1.0000
23.9500 1490.0000 1.0000
23.9600 1512.0000 1.0000
23.9700 1502.0000 1.0000
23.9800 1515.0000 1.0000
23.9900 1448.0000 1.0000
24.0000 1499.0000 1.0000
24.0100 1452.0000 1.0000
24.0200 1553.0000 1.0000
24.0300 1418.0000 1.0000
24.0400 1506.0000 1.0000
24.0500 1443.0000 1.0000
24.0600 1383.0000 1.0000
24.0700 1486.0000 1.0000
24.0800 1462.0000 1.0000
24.0900 1497.0000 1.0000
24.1000 1511.0000 1.0000
24.1100 1505.0000 1.0000
24.1200 1471.0000 1.0000
24.1300 1475.0000 1.0000
24.1400 1523.0000 1.0000
24.1500 1517.0000 1.0000
24.1600 1482.0000 1.0000
24.1700 1491.0000 1.0000
24.1800 1503.0000 1.0000
24.1900 1458.0000 1.0000
24.2000 1527.0000 1.0000
24.2100 1582.0000 1.0000
24.2200 1522.0000 1.0000
24.2300 1451.0000 1.0000
24.2400 1507.0000 1.0000
24.2500 1469.0000 1.0000
24.2600 1457.0000 1.0000
24.2700 1502.0000 1.0000
24.2800 1564.0000 1.0000
24.2900 1532.0000 1.0000
24.3000 1487.0000 1.0000
24.3100 1502.0000 1.0000
24.3200 1493.0000 1.0000
24.3300 1499.0000 1.0000
24.3400 1519.0000 1.0000
24.3500 1547.0000 1.0000
24.3600 1475.0000 1.0000
24.3700 1484.0000 1.0000
24.3800 1469.0000 1.0000
24.3900 1543.0000 1.0000
24.4000 1538.0000 1.0000
24.4100 1484.0000 1.0000
24.4200 1494.0000 1.0000
24.4300 1473.0000 1.0000
24.4400 1565.0000 1.0000
24.4500 1545.0000 1.0000
24.4600 1517.0000 1.0000
24.4700 1481.0000 1.0000
24.4800 1477.0000 1.0000
24.4900 1545.0000 1.0000
24.5000 1484.0000 1.0000
24.5100 1454.0000 1.0000
24.5200 1519.0000 1.0000
24.5300 1539.0000 1.0000
24.5400 1518.0000 1.0000
24.5500 1550.0000 1.0000
24.5600 1474.0000 1.0000
24.5700 1518.0000 1.0000
24.5800 1498.0000 1.0000
24.5900 1496.0000 1.0000
24.6000 1505.0000 1.0000
24.6100 1498.0000 1.0000
24.6200 1497.0000 1.0000
24.6300 1606.0000 1.0000
24.6400 1565.0000 1.0000
24.6500 1502.0000 1.0000
24.6600 1550.0000 1.0000
24.6700 1497.0000 1.0000
24.6800 1537.0000 1.0000
24.6900 1500.0000 1.0000
24.7000 1516.0000 1.0000
24.7100 1548.0000 1.0000
24.7200 1541.0000 1.0000
24.7300 1536.0000 1.0000
24.7400 1539.0000 1.0000
24.7500 1518.0000 1.0000
24.7600 1540.0000 1.0000
24.7700 1504.0000 1.0000
24.7800 1563.0000 1.0000
24.7900 1566.0000 1.0000
24.8000 1506.0000 1.0000
24.8100 1510.0000 1.0000
24.8200 1510.0000 1.0000
24.8300 1561.0000 1.0000
24.8400 1519.0000 1.0000
24.8500 1546.0000 1.0000
24.8600 1468.0000 1.0000
24.8700 1451.0000 1.0000
24.8800 1543.0000 1.0000
24.8900 1555.0000 1.0000
24.9000 1479.0000 1.0000
24.9100 1573.0000 1.0000
24.9200 1514.0000 1.0000
24.9300 1549.0000 1.0000
24.9400 1558.0000 1.0000
24.9500 1491.0000 1.0000
24.9600 1554.0000 1.0000
24.9700 1522.0000 1.0000
24.9800 1547.0000 1.0000
24.9900 1544.0000 1.0000
25.0000 1528.0000 1.0000
25.0100 1491.0000 1.0000
25.0200 1502.0000 1.0000
25.0300 1556.0000 1.0000
25.0400 1592.0000 1.0000
25.0500 1588.0000 1.0000
25.0600 1532.0000 1.0000
25.0700 1552.0000 1.0000
25.0800 1579.0000 1.0000
25.0900 1503.0000 1.0000
25.1000 1520.0000 1.0000
25.1100 1560.0000 1.0000
25.1200 1576.0000 1.0000
25.1300 1543.0000 1.0000
25.1400 1627.0000 1.0000
25.1500 1556.0000 1.0000
25.1600 1595.0000 1.0000
25.1700 1570.0000 1.0000
25.1800 1569.0000 1.0000
25.1900 1555.0000 1.0000
25.2000 1538.0000 1.0000
25.2100 1575.0000 1.0000
25.2200 1575.0000 1.0000
25.2300 1558.0000 1.0000
25.2400 1564.0000 1.0000
25.2500 1572.0000 1.0000
25.2600 1516.0000 1.0000
25.2700 1505.0000 1.0000
25.2800 1541.0000 1.0000
25.2900 1587.0000 1.0000
25.3000 1532.0000 1.0000
25.3100 1522.0000 1.0000
25.3200 1573.0000 1.0000
25.3300 1562.0000 1.0000
25.3400 1500.0000 1.0000
25.3500 1554.0000 1.0000
25.3600 1529.0000 1.0000
25.3700 1541.0000 1.0000
25.3800 1554.0000 1.0000
25.3900 1499.0000 1.0000
25.4000 1536.0000 1.0000
25.4100 1560.0000 1.0000
25.4200 1475.0000 1.0000
25.4300 1494.0000 1.0000
25.4400 1634.0000 1.0000
25.4500 1605.0000 1.0000
25.4600 1529.0000 1.0000
25.4700 1503.0000 1.0000
25.4800 1534.0000 1.0000
25.4900 1597.0000 1.0000
25.5000 1504.0000 1.0000
25.5100 1517.0000 1.0000
25.5200 1571.0000 1.0000
25.5300 1536.0000 1.0000
25.5400 1567.0000 1.0000
25.5500 1612.0000 1.0000
25.5600 1572.0000 1.0000
25.5700 1533.0000 1.0000
25.5800 1512.0000 1.0000
25.5900 1561.0000 1.0000
25.6000 1496.0000 1.0000
25.6100 1554.0000 1.0000
25.6200 1526.0000 1.0000
25.6300 1528.0000 1.0000
25.6400 1512.0000 1.0000
25.6500 1504.0000 1.0000
25.6600 1500.0000 1.0000
25.6700 1565.0000 1.0000
25.6800 1497.0000 1.0000
25.6900 1509.0000 1.0000
25.7000 1572.0000 1.0000
25.7100 1492.0000 1.0000
25.7200 1480.0000 1.0000
25.7300 1520.0000 1.0000
25.7400 1508.0000 1.0000
25.7500 1552.0000 1.0000
25.7600 1574.0000 1.0000
25.7700 1557.0000 1.0000
25.7800 1547.0000 1.0000
25.7900 1559.0000 1.0000
25.8000 1613.0000 1.0000
25.8100 1543.0000 1.0000
25.8200 1560.0000 1.0000
25.8300 1492.0000 1.0000
25.8400 1494.0000 1.0000
25.8500 1527.0000 1.0000
25.8600 1538.0000 1.0000
25.8700 1544.0000 1.0000
25.8800 1630.0000 1.0000
25.8900 1554.0000 1.0000
25.9000 1590.0000 1.0000
25.9100 1483.0000 1.0000
25.9200 1622.0000 1.0000
25.9300 1526.0000 1.0000
25.9400 1568.0000 1.0000
25.9500 1603.0000 1.0000
25.9600 1525.0000 1.0000
25.9700 1500.0000 1.0000
25.9800 1512.0000 1.0000
25.9900 1528.0000 1.0000
26.0000 1556.0000 1.0000
26.0100 1501.0000 1.0000
26.0200 1539.0000 1.0000
26.0300 1519.0000 1.0000
26.0400 1501.0000 1.0000
26.0500 1515.0000 1.0000
26.0600 1586.0000 1.0000
26.0700 1468.0000 1.0000
26.0800 1586.0000 1.0000
26.0900 1529.0000 1.0000
26.1000 1535.0000 1.0000
26.1100 1507.0000 1.0000
26.1200 1570.0000 1.0000
26.1300 1561.0000 1.0000
26.1400 1536.0000 1.0000
26.1500 1655.0000 1.0000
26.1600 1526.0000 1.0000
26.1700 1532.0000 1.0000
26.1800 1552.0000 1.0000
26.1900 1573.0000 1.0000
26.2000 1562.0000 1.0000
26.2100 1543.0000 1.0000
26.2200 1593.0000 1.0000
26.2300 1600.0000 1.0000
26.2400 1621.0000 1.0000
26.2500 1578.0000 1.0000
26.2600 1571.0000 1.0000
26.2700 1588.0000 1.0000
26.2800 1589.0000 1.0000
26.2900 1585.0000 1.0000
26.3000 1565.0000 1.0000
26.3100 1593.0000 1.0000
26.3200 1587.0000 1.0000
26.3300 1616.0000 1.0000
26.3400 1568.0000 1.0000
26.3500 1546.0000 1.0000
26.3600 1550.0000 1.0000
26.3700 1606.0000 1.0000
26.3800 1585.0000 1.0000
26.3900 1542.0000 1.0000
26.4000 1523.0000 1.0000
26.4100 1564.0000 1.0000
26.4200 1558.0000 1.0000
26.4300 1653.0000 1.0000
26.4400 1635.0000 1.0000
26.4500 1645.0000 1.0000
26.4600 1594.0000 1.0000
26.4700 1651.0000 1.0000
26.4800 1631.0000 1.0000
26.4900 1575.0000 1.0000
26.5000 1586.0000 1.0000
26.5100 1597.0000 1.0000
26.5200 1595.0000 1.0000
26.5300 1606.0000 1.0000
26.5400 1561.0000 1.0000
26.5500 1674.0000 1.0000
26.5600 1608.0000 1.0000
26.5700 1627.0000 1.0000
26.5800 1620.0000 1.0000
26.5900 1626.0000 1.0000
26.6000 1628.0000 1.0000
26.6100 1682.0000 1.0000
26.6200 1641.0000 1.0000
26.6300 1686.0000 1.0000
26.6400 1595.0000 1.0000
26.6500 1692.0000 1.0000
26.6600 1626.0000 1.0000
26.6700 1697.0000 1.0000
26.6800 1607.0000 1.0000
26.6900 1649.0000 1.0000
26.7000 1642.0000 1.0000
26.7100 1674.0000 1.0000
26.7200 1638.0000 1.0000
26.7300 1660.0000 1.0000
26.7400 1731.0000 1.0000
26.7500 1655.0000 1.0000
26.7600 1660.0000 1.0000
26.7700 1675.0000 1.0000
26.7800 1703.0000 1.0000
26.7900 1781.0000 1.0000
26.8000 1777.0000 1.0000
26.8100 1762.0000 1.0000
26.8200 1800.0000 1.0000
26.8300 1810.0000 1.0000
26.8400 1707.0000 1.0000
26.8500 1678.0000 1.0000
26.8600 1846.0000 1.0000
26.8700 1785.0000 1.0000
26.8800 1748.0000 1.0000
26.8900 1797.0000 1.0000
26.9000 1813.0000 1.0000
26.9100 1912.0000 1.0000
26.9200 1793.0000 1.0000
26.9300 1924.0000 1.0000
26.9400 1972.0000 1.0000
26.9500 1909.0000 1.0000
26.9600 1968.0000 1.0000
26.9700 1958.0000 1.0000
26.9800 2068.0000 1.0000
26.9900 1981.0000 1.0000
27.0000 2075.0000 1.0000
27.0100 2175.0000 1.0000
27.0200 2156.0000 1.0000
27.0300 2212.0000 1.0000
27.0400 2244.0000 1.0000
27.0500 2406.0000 1.0000
27.0600 2379.0000 1.0000
27.0700 2506.0000 1.0000
27.0800 2642.0000 1.0000
27.0900 2676.0000 1.0000
27.1000 2709.0000 1.0000
27.1100 2813.0000 1.0000
27.1200 2845.0000 1.0000
27.1300 3015.0000 1.0000
27.1400 3153.0000 1.0000
27.1500 3254.0000 1.0000
27.1600 3327.0000 1.0000
27.1700 3605.0000 1.0000
27.1800 3740.0000 1.0000
27.1900 3995.0000 1.0000
27.2000 4226.0000 1.0000
27.2100 4378.0000 1.0000
27.2200 4668.0000 1.0000
27.2300 4925.0000 1.0000
27.2400 5264.0000 1.0000
27.2500 5528.0000 1.0000
27.2600 5819.0000 1.0000
27.2700 5982.0000 1.0000
27.2800 6025.0000 1.0000
27.2900 6183.0000 1.0000
27.3000 6230.0000 1.0000
27.3100 6101.0000 1.0000
27.3200 6248.0000 1.0000
27.3300 6006.0000 1.0000
27.3400 5814.0000 1.0000
27.3500 5714.0000 1.0000
27.3600 5529.0000 1.0000
27.3700 5191.0000 1.0000
27.3800 5050.0000 1.0000
27.3900 4718.0000 1.0000
27.4000 4485.0000 1.0000
27.4100 4306.0000 1.0000
27.4200 4000.0000 1.0000
27.4300 3772.0000 1.0000
27.4400 3584.0000 1.0000
27.4500 3483.0000 1.0000
27.4600 3289.0000 1.0000
27.4700 3136.0000 1.0000
27.4800 3036.0000 1.0000
27.4900 2895.0000 1.0000
27.5000 2741.0000 1.0000
27.5100 2614.0000 1.0000
27.5200 2591.0000 1.0000
27.5300 2503.0000 1.0000
27.5400 2487.0000 1.0000
27.5500 2423.0000 1.0000
27.5600 2200.0000 1.0000
27.5700 2255.0000 1.0000
27.5800 2201.0000 1.0000
27.5900 2151.0000 1.0000
27.6000 2108.0000 1.0000
27.6100 2118.0000 1.0000
27.6200 2041.0000 1.0000
27.6300 2021.0000 1.0000
27.6400 1974.0000 1.0000
27.6500 1972.0000 1.0000
27.6600 1922.0000 1.0000
27.6700 1910.0000 1.0000
27.6800 1911.0000 1.0000
27.6900 1843.0000 1.0000
27.7000 1838.0000 1.0000
27.7100 1802.0000 1.0000
27.7200 1849.0000 1.0000
27.7300 1779.0000 1.0000
27.7400 1721.0000 1.0000
27.7500 1782.0000 1.0000
27.7600 1795.0000 1.0000
27.7700 1775.0000 1.0000
27.7800 1752.0000 1.0000
27.7900 1739.0000 1.0000
27.8000 1750.0000 1.0000
27.8100 1724.0000 1.0000
27.8200 1761.0000 1.0000
27.8300 1665.0000 1.0000
27.8400 1701.0000 1.0000
27.8500 1643.0000 1.0000
27.8600 1638.0000 1.0000
27.8700 1673.0000 1.0000
27.8800 1653.0000 1.0000
27.8900 1636.0000 1.0000
27.9000 1617.0000 1.0000
27.9100 1609.0000 1.0000
27.9200 1668.0000 1.0000
27.9300 1705.0000 1.0000
27.9400 1595.0000 1.0000
27.9500 1610.0000 1.0000
27.9600 1608.0000 1.0000
27.9700 1589.0000 1.0000
27.9800 1594.0000 1.0000
27.9900 1635.0000 1.0000
28.0000 1566.0000 1.0000
28.0100 1555.0000 1.0000
28.0200 1564.0000 1.0000
28.0300 1569.0000 1.0000
28.0400 1566.0000 1.0000
28.0500 1652.0000 1.0000
28.0600 1568.0000 1.0000
28.0700 1568.0000 1.0000
28.0800 1609.0000 1.0000
28.0900 1561.0000 1.0000
28.1000 1558.0000 1.0000
28.1100 1463.0000 1.0000
28.1200 1478.0000 1.0000
28.1300 1588.0000 1.0000
28.1400 1701.0000 1.0000
28.1500 1502.0000 1.0000
28.1600 1579.0000 1.0000
28.1700 1540.0000 1.0000
28.1800 1590.0000 1.0000
28.1900 1539.0000 1.0000
28.2000 1584.0000 1.0000
28.2100 1560.0000 1.0000
28.2200 1587.0000 1.0000
28.2300 1547.0000 1.0000
28.2400 1563.0000 1.0000
28.2500 1566.0000 1.0000
28.2600 1560.0000 1.0000
28.2700 1575.0000 1.0000
28.2800 1450.0000 1.0000
28.2900 1496.0000 1.0000
28.3000 1509.0000 1.0000
28.3100 1548.0000 1.0000
28.3200 1530.0000 1.0000
28.3300 1518.0000 1.0000
28.3400 1507.0000 1.0000
28.3500 1577.0000 1.0000
28.3600 1516.0000 1.0000
28.3700 1481.0000 1.0000
28.3800 1497.0000 1.0000
28.3900 1502.0000 1.0000
28.4000 1553.0000 1.0000
28.4100 1525.0000 1.0000
28.4200 1523.0000 1.0000
28.4300 1548.0000 1.0000
28.4400 1532.0000 1.0000
28.4500 1496.0000 1.0000
28.4600 1554.0000 1.0000
28.4700 1504.0000 1.0000
28.4800 1484.0000 1.0000
28.4900 1526.0000 1.0000
28.5000 1523.0000 1.0000
28.5100 1483.0000 1.0000
28.5200 1482.0000 1.0000
28.5300 1481.0000 1.0000
28.5400 1462.0000 1.0000
28.5500 1531.0000 1.0000
28.5600 1516.0000 1.0000
28.5700 1559.0000 1.0000
28.5800 1498.0000 1.0000
28.5900 1514.0000 1.0000
28.6000 1468.0000 1.0000
28.6100 1443.0000 1.0000
28.6200 1482.0000 1.0000
28.6300 1449.0000 1.0000
28.6400 1462.0000 1.0000
28.6500 1488.0000 1.0000
28.6600 1540.0000 1.0000
28.6700 1545.0000 1.0000
28.6800 1466.0000 1.0000
28.6900 1482.0000 1.0000
28.7000 1517.0000 1.0000
28.7100 1514.0000 1.0000
28.7200 1492.0000 1.0000
28.7300 1451.0000 1.0000
28.7400 1539.0000 1.0000
28.7500 1522.0000 1.0000
28.7600 1498.0000 1.0000
28.7700 1486.0000 1.0000
28.7800 1500.0000 1.0000
28.7900 1475.0000 1.0000
28.8000 1468.0000 1.0000
28.8100 1464.0000 1.0000
28.8200 1480.0000 1.0000
28.8300 1515.0000 1.0000
28.8400 1513.0000 1.0000
28.8500 1447.0000 1.0000
28.8600 1431.0000 1.0000
28.8700 1503.0000 1.0000
28.8800 1450.0000 1.0000
28.8900 1436.0000 1.0000
28.9000 1500.0000 1.0000
28.9100 1480.0000 1.0000
28.9200 1468.0000 1.0000
28.9300 1432.0000 1.0000
28.9400 1450.0000 1.0000
28.9500 1495.0000 1.0000
28.9600 1459.0000 1.0000
28.9700 1435.0000 1.0000
28.9800 1417.0000 1.0000
28.9900 1522.0000 1.0000
29.0000 1492.0000 1.0000
29.0100 1499.0000 1.0000
29.0200 1499.0000 1.0000
29.0300 1464.0000 1.0000
29.0400 1469.0000 1.0000
29.0500 1497.0000 1.0000
29.0600 1480.0000 1.0000
29.0700 1431.0000 1.0000
29.0800 1439.0000 1.0000
29.0900 1498.0000 1.0000
29.1000 1546.0000 1.0000
29.1100 1513.0000 1.0000
29.1200 1453.0000 1.0000
29.1300 1442.0000 1.0000
29.1400 1476.0000 1.0000
29.1500 1511.0000 1.0000
29.1600 1518.0000 1.0000
29.1700 1462.0000 1.0000
29.1800 1413.0000 1.0000
29.1900 1478.0000 1.0000
29.2000 1415.0000 1.0000
29.2100 1480.0000 1.0000
29.2200 1489.0000 1.0000
29.2300 1509.0000 1.0000
29.2400 1432.0000 1.0000
29.2500 1462.0000 1.0000
29.2600 1505.0000 1.0000
29.2700 1416.0000 1.0000
29.2800 1490.0000 1.0000
29.2900 1456.0000 1.0000
29.3000 1389.0000 1.0000
29.3100 1441.0000 1.0000
29.3200 1404.0000 1.0000
29.3300 1458.0000 1.0000
29.3400 1453.0000 1.0000
29.3500 1439.0000 1.0000
29.3600 1401.0000 1.0000
29.3700 1474.0000 1.0000
29.3800 1453.0000 1.0000
29.3900 1420.0000 1.0000
29.4000 1454.0000 1.0000
29.4100 1449.0000 1.0000
29.4200 1438.0000 1.0000
29.4300 1535.0000 1.0000
29.4400 1516.0000 1.0000
29.4500 1502.0000 1.0000
29.4600 1430.0000 1.0000
29.4700 1430.0000 1.0000
29.4800 1427.0000 1.0000
29.4900 1473.0000 1.0000
29.5000 1482.0000 1.0000
29.5100 1473.0000 1.0000
29.5200 1485.0000 1.0000
29.5300 1405.0000 1.0000
29.5400 1415.0000 1.0000
29.5500 1383.0000 1.0000
29.5600 1408.0000 1.0000
29.5700 1398.0000 1.0000
29.5800 1449.0000 1.0000
29.5900 1426.0000 1.0000
29.6000 1457.0000 1.0000
29.6100 1475.0000 1.0000
29.6200 1409.0000 1.0000
29.6300 1456.0000 1.0000
29.6400 1390.0000 1.0000
29.6500 1413.0000 1.0000
29.6600 1458.0000 1.0000
29.6700 1457.0000 1.0000
29.6800 1393.0000 1.0000
29.6900 1491.0000 1.0000
29.7000 1481.0000 1.0000
29.7100 1442.0000 1.0000
29.7200 1410.0000 1.0000
29.7300 1453.0000 1.0000
29.7400 1488.0000 1.0000
29.7500 1421.0000 1.0000
29.7600 1481.0000 1.0000
29.7700 1456.0000 1.0000
29.7800 1380.0000 1.0000
29.7900 1406.0000 1.0000
29.8000 1462.0000 1.0000
29.8100 1414.0000 1.0000
29.8200 1460.0000 1.0000
29.8300 1480.0000 1.0000
29.8400 1418.0000 1.0000
29.8500 1490.0000 1.0000
29.8600 1502.0000 1.0000
29.8700 1430.0000 1.0000
29.8800 1451.0000 1.0000
29.8900 1410.0000 1.0000
29.9000 1451.0000 1.0000
29.9100 1432.0000 1.0000
29.9200 1419.0000 1.0000
29.9300 1375.0000 1.0000
29.9400 1394.0000 1.0000
29.9500 1430.0000 1.0000
29.9600 1415.0000 1.0000
29.9700 1399.0000 1.0000
29.9800 1421.0000 1.0000
29.9900 1438.0000 1.0000
30.0000 1419.0000 1.0000
30.0100 1393.0000 1.0000
30.0200 1436.0000 1.0000
30.0300 1428.0000 1.0000
30.0400 1414.0000 1.0000
30.0500 1375.0000 1.0000
30.0600 1473.0000 1.0000
30.0700 1481.0000 1.0000
30.0800 1380.0000 1.0000
30.0900 1360.0000 1.0000
30.1000 1399.0000 1.0000
30.1100 1436.0000 1.0000
30.1200 1371.0000 1.0000
30.1300 1405.0000 1.0000
30.1400 1380.0000 1.0000
30.1500 1393.0000 1.0000
30.1600 1418.0000 1.0000
30.1700 1422.0000 1.0000
30.1800 1422.0000 1.0000
30.1900 1379.0000 1.0000
30.2000 1374.0000 1.0000
30.2100 1352.0000 1.0000
30.2200 1409.0000 1.0000
30.2300 1418.0000 1.0000
30.2400 1424.0000 1.0000
30.2500 1421.0000 1.0000
30.2600 1386.0000 1.0000
30.2700 1447.0000 1.0000
30.2800 1416.0000 1.0000
30.2900 1395.0000 1.0000
30.3000 1373.0000 1.0000
30.3100 1419.0000 1.0000
30.3200 1456.0000 1.0000
30.3300 1420.0000 1.0000
30.3400 1479.0000 1.0000
30.3500 1371.0000 1.0000
30.3600 1397.0000 1.0000
30.3700 1357.0000 1.0000
30.3800 1361.0000 1.0000
30.3900 1403.0000 1.0000
30.4000 1391.0000 1.0000
30.4100 1417.0000 1.0000
30.4200 1404.0000 1.0000
30.4300 1357.0000 1.0000
30.4400 1466.0000 1.0000
30.4500 1430.0000 1.0000
30.4600 1446.0000 1.0000
30.4700 1408.0000 1.0000
30.4800 1373.0000 1.0000
30.4900 1423.0000 1.0000
30.5000 1368.0000 1.0000
30.5100 1369.0000 1.0000
30.5200 1387.0000 1.0000
30.5300 1413.0000 1.0000
30.5400 1368.0000 1.0000
30.5500 1391.0000 1.0000
30.5600 1437.0000 1.0000
30.5700 1395.0000 1.0000
30.5800 1432.0000 1.0000
30.5900 1364.0000 1.0000
30.6000 1432.0000 1.0000
30.6100 1407.0000 1.0000
30.6200 1446.0000 1.0000
30.6300 1448.0000 1.0000
30.6400 1366.0000 1.0000
30.6500 1423.0000 1.0000
30.6600 1430.0000 1.0000
30.6700 1385.0000 1.0000
30.6800 1345.0000 1.0000
30.6900 1366.0000 1.0000
30.7000 1418.0000 1.0000
30.7100 1447.0000 1.0000
30.7200 1380.0000 1.0000
30.7300 1409.0000 1.0000
30.7400 1418.0000 1.0000
30.7500 1333.0000 1.0000
30.7600 1384.0000 1.0000
30.7700 1422.0000 1.0000
30.7800 1383.0000 1.0000
30.7900 1432.0000 1.0000
30.8000 1434.0000 1.0000
30.8100 1437.0000 1.0000
30.8200 1414.0000 1.0000
30.8300 1347.0000 1.0000
30.8400 1366.0000 1.0000
30.8500 1439.0000 1.0000
30.8600 1382.0000 1.0000
30.8700 1355.0000 1.0000
30.8800 1384.0000 1.0000
30.8900 1380.0000 1.0000
30.9000 1393.0000 1.0000
30.9100 1374.0000 1.0000
30.9200 1312.0000 1.0000
30.9300 1378.0000 1.0000
30.9400 1380.0000 1.0000
30.9500 1361.0000 1.0000
30.9600 1358.0000 1.0000
30.9700 1349.0000 1.0000
30.9800 1387.0000 1.0000
30.9900 1442.0000 1.0000
31.0000 1414.0000 1.0000
31.0100 1402.0000 1.0000
31.0200 1366.0000 1.0000
31.0300 1360.0000 1.0000
31.0400 1367.0000 1.0000
31.0500 1348.0000 1.0000
31.0600 1376.0000 1.0000
31.0700 1326.0000 1.0000
31.0800 1358.0000 1.0000
31.0900 1407.0000 1.0000
31.1000 1401.0000 1.0000
31.1100 1370.0000 1.0000
31.1200 1381.0000 1.0000
31.1300 1412.0000 1.0000
31.1400 1454.0000 1.0000
31.1500 1395.0000 1.0000
31.1600 1458.0000 1.0000
31.1700 1405.0000 1.0000
31.1800 1391.0000 1.0000
31.1900 1366.0000 1.0000
31.2000 1413.0000 1.0000
31.2100 1415.0000 1.0000
31.2200 1358.0000 1.0000
31.2300 1429.0000 1.0000
31.2400 1343.0000 1.0000
31.2500 1402.0000 1.0000
31.2600 1371.0000 1.0000
31.2700 1403.0000 1.0000
31.2800 1406.0000 1.0000
31.2900 1359.0000 1.0000
31.3000 1408.0000 1.0000
31.3100 1361.0000 1.0000
31.3200 1301.0000 1.0000
31.3300 1330.0000 1.0000
31.3400 1363.0000 1.0000
31.3500 1385.0000 1.0000
31.3600 1345.0000 1.0000
31.3700 1329.0000 1.0000
31.3800 1345.0000 1.0000
31.3900 1328.0000 1.0000
31.4000 1338.0000 1.0000
31.4100 1428.0000 1.0000
31.4200 1410.0000 1.0000
31.4300 1406.0000 1.0000
31.4400 1375.0000 1.0000
31.4500 1347.0000 1.0000
31.4600 1334.0000 1.0000
31.4700 1310.0000 1.0000
31.4800 1354.0000 1.0000
31.4900 1358.0000 1.0000
31.5000 1307.0000 1.0000
31.5100 1406.0000 1.0000
31.5200 1319.0000 1.0000
31.5300 1362.0000 1.0000
31.5400 1367.0000 1.0000
31.5500 1330.0000 1.0000
31.5600 1315.0000 1.0000
31.5700 1352.0000 1.0000
31.5800 1318.0000 1.0000
31.5900 1317.0000 1.0000
31.6000 1330.0000 1.0000
31.6100 1368.0000 1.0000
31.6200 1359.0000 1.0000
31.6300 1406.0000 1.0000
31.6400 1321.0000 1.0000
31.6500 1371.0000 1.0000
31.6600 1337.0000 1.0000
31.6700 1330.0000 1.0000
31.6800 1319.0000 1.0000
31.6900 1324.0000 1.0000
31.7000 1365.0000 1.0000
31.7100 1329.0000 1.0000
31.7200 1335.0000 1.0000
31.7300 1290.0000 1.0000
31.7400 1331.0000 1.0000
31.7500 1356.0000 1.0000
31.7600 1325.0000 1.0000
31.7700 1348.0000 1.0000
31.7800 1308.0000 1.0000
31.7900 1303.0000 1.0000
31.8000 1300.0000 1.0000
31.8100 1349.0000 1.0000
31.8200 1253.0000 1.0000
31.8300 1302.0000 1.0000
31.8400 1328.0000 1.0000
31.8500 1328.0000 1.0000
31.8600 1301.0000 1.0000
31.8700 1356.0000 1.0000
31.8800 1378.0000 1.0000
31.8900 1355.0000 1.0000
31.9000 1377.0000 1.0000
31.9100 1396.0000 1.0000
31.9200 1380.0000 1.0000
31.9300 1348.0000 1.0000
31.9400 1311.0000 1.0000
31.9500 1320.0000 1.0000
31.9600 1347.0000 1.0000
31.9700 1374.0000 1.0000
31.9800 1354.0000 1.0000
31.9900 1366.0000 1.0000
32.0000 1334.0000 1.0000
32.0100 1335.0000 1.0000
32.0200 1370.0000 1.0000
32.0300 1385.0000 1.0000
32.0400 1373.0000 1.0000
32.0500 1370.0000 1.0000
32.0600 1349.0000 1.0000
32.0700 1389.0000 1.0000
32.0800 1384.0000 1.0000
32.0900 1325.0000 1.0000
32.1000 1309.0000 1.0000
32.1100 1309.0000 1.0000
32.1200 1332.0000 1.0000
32.1300 1338.0000 1.0000
32.1400 1364.0000 1.0000
32.1500 1363.0000 1.0000
32.1600 1351.0000 1.0000
32.1700 1341.0000 1.0000
32.1800 1299.0000 1.0000
32.1900 1329.0000 1.0000
32.2000 1398.0000 1.0000
32.2100 1327.0000 1.0000
32.2200 1290.0000 1.0000
32.2300 1340.0000 1.0000
32.2400 1316.0000 1.0000
32.2500 1260.0000 1.0000
32.2600 1368.0000 1.0000
32.2700 1318.0000 1.0000
32.2800 1299.0000 1.0000
32.2900 1363.0000 1.0000
32.3000 1328.0000 1.0000
32.3100 1341.0000 1.0000
32.3200 1276.0000 1.0000
32.3300 1348.0000 1.0000
32.3400 1337.0000 1.0000
32.3500 1316.0000 1.0000
32.3600 1323.0000 1.0000
32.3700 1261.0000 1.0000
32.3800 1266.0000 1.0000
32.3900 1295.0000 1.0000
32.4000 1254.0000 1.0000
32.4100 1324.0000 1.0000
32.4200 1353.0000 1.0000
32.4300 1341.0000 1.0000
32.4400 1288.0000 1.0000
32.4500 1274.0000 1.0000
32.4600 1334.0000 1.0000
32.4700 1311.0000 1.0000
32.4800 1288.0000 1.0000
32.4900 1278.0000 1.0000
32.5000 1279.0000 1.0000
32.5100 1317.0000 1.0000
32.5200 1306.0000 1.0000
32.5300 1274.0000 1.0000
32.5400 1302.0000 1.0000
32.5500 1300.0000 1.0000
32.5600 1288.0000 1.0000
32.5700 1265.0000 1.0000
32.5800 1297.0000 1.0000
32.5900 1326.0000 1.0000
32.6000 1310.0000 1.0000
32.6100 1310.0000 1.0000
32.6200 1342.0000 1.0000
32.6300 1311.0000 1.0000
32.6400 1262.0000 1.0000
32.6500 1237.0000 1.0000
32.6600 1266.0000 1.0000
32.6700 1323.0000 1.0000
32.6800 1313.0000 1.0000
32.6900 1262.0000 1.0000
32.7000 1260.0000 1.0000
32.7100 1284.0000 1.0000
32.7200 1288.0000 1.0000
32.7300 1267.0000 1.0000
32.7400 1235.0000 1.0000
32.7500 1303.0000 1.0000
32.7600 1243.0000 1.0000
32.7700 1262.0000 1.0000
32.7800 1314.0000 1.0000
32.7900 1294.0000 1.0000
32.8000 1314.0000 1.0000
32.8100 1268.0000 1.0000
32.8200 1251.0000 1.0000
32.8300 1318.0000 1.0000
32.8400 1282.0000 1.0000
32.8500 1304.0000 1.0000
32.8600 1265.0000 1.0000
32.8700 1238.0000 1.0000
32.8800 1265.0000 1.0000
32.8900 1245.0000 1.0000
32.9000 1355.0000 1.0000
32.9100 1248.0000 1.0000
32.9200 1234.0000 1.0000
32.9300 1284.0000 1.0000
32.9400 1262.0000 1.0000
32.9500 1316.0000 1.0000
32.9600 1328.0000 1.0000
32.9700 1292.0000 1.0000
32.9800 1285.0000 1.0000
32.9900 1262.0000 1.0000
33.0000 1307.0000 1.0000
33.0100 1254.0000 1.0000
33.0200 1274.0000 1.0000
33.0300 1261.0000 1.0000
33.0400 1252.0000 1.0000
33.0500 1197.0000 1.0000
33.0600 1234.0000 1.0000
33.0700 1348.0000 1.0000
33.0800 1260.0000 1.0000
33.0900 1262.0000 1.0000
33.1000 1224.0000 1.0000
33.1100 1322.0000 1.0000
33.1200 1274.0000 1.0000
33.1300 1256.0000 1.0000
33.1400 1251.0000 1.0000
33.1500 1245.0000 1.0000
33.1600 1280.0000 1.0000
33.1700 1318.0000 1.0000
33.1800 1304.0000 1.0000
33.1900 1287.0000 1.0000
33.2000 1289.0000 1.0000
33.2100 1284.0000 1.0000
33.2200 1255.0000 1.0000
33.2300 1272.0000 1.0000
33.2400 1295.0000 1.0000
33.2500 1289.0000 1.0000
33.2600 1276.0000 1.0000
33.2700 1248.0000 1.0000
33.2800 1266.0000 1.0000
33.2900 1288.0000 1.0000
33.3000 1266.0000 1.0000
33.3100 1305.0000 1.0000
33.3200 1320.0000 1.0000
33.3300 1257.0000 1.0000
33.3400 1228.0000 1.0000
33.3500 1262.0000 1.0000
33.3600 1284.0000 1.0000
33.3700 1220.0000 1.0000
33.3800 1238.0000 1.0000
33.3900 1236.0000 1.0000
33.4000 1174.0000 1.0000
33.4100 1296.0000 1.0000
33.4200 1287.0000 1.0000
33.4300 1268.0000 1.0000
33.4400 1205.0000 1.0000
33.4500 1236.0000 1.0000
33.4600 1344.0000 1.0000
33.4700 1299.0000 1.0000
33.4800 1289.0000 1.0000
33.4900 1286.0000 1.0000
33.5000 1244.0000 1.0000
33.5100 1259.0000 1.0000
33.5200 1279.0000 1.0000
33.5300 1254.0000 1.0000
33.5400 1280.0000 1.0000
33.5500 1249.0000 1.0000
33.5600 1263.0000 1.0000
33.5700 1343.0000 1.0000
33.5800 1272.0000 1.0000
33.5900 1236.0000 1.0000
33.6000 1280.0000 1.0000
33.6100 1262.0000 1.0000
33.6200 1316.0000 1.0000
33.6300 1314.0000 1.0000
33.6400 1279.0000 1.0000
33.6500 1222.0000 1.0000
33.6600 1287.0000 1.0000
33.6700 1271.0000 1.0000
33.6800 1268.0000 1.0000
33.6900 1332.0000 1.0000
33.7000 1294.0000 1.0000
33.7100 1262.0000 1.0000
33.7200 1346.0000 1.0000
33.7300 1242.0000 1.0000
33.7400 1215.0000 1.0000
33.7500 1326.0000 1.0000
33.7600 1299.0000 1.0000
33.7700 1263.0000 1.0000
33.7800 1319.0000 1.0000
33.7900 1350.0000 1.0000
33.8000 1352.0000 1.0000
33.8100 1320.0000 1.0000
33.8200 1258.0000 1.0000
33.8300 1340.0000 1.0000
33.8400 1315.0000 1.0000
33.8500 1291.0000 1.0000
33.8600 1294.0000 1.0000
33.8700 1319.0000 1.0000
33.8800 1359.0000 1.0000
33.8900 1333.0000 1.0000
33.9000 1323.0000 1.0000
33.9100 1370.0000 1.0000
33.9200 1349.0000 1.0000
33.9300 1349.0000 1.0000
33.9400 1353.0000 1.0000
33.9500 1338.0000 1.0000
33.9600 1416.0000 1.0000
33.9700 1392.0000 1.0000
33.9800 1308.0000 1.0000
33.9900 1408.0000 1.0000
34.0000 1378.0000 1.0000
34.0100 1349.0000 1.0000
34.0200 1373.0000 1.0000
34.0300 1384.0000 1.0000
34.0400 1361.0000 1.0000
34.0500 1358.0000 1.0000
34.0600 1401.0000 1.0000
34.0700 1409.0000 1.0000
34.0800 1382.0000 1.0000
34.0900 1408.0000 1.0000
34.1000 1454.0000 1.0000
34.1100 1470.0000 1.0000
34.1200 1439.0000 1.0000
34.1300 1404.0000 1.0000
34.1400 1419.0000 1.0000
34.1500 1505.0000 1.0000
34.1600 1441.0000 1.0000
34.1700 1454.0000 1.0000
34.1800 1506.0000 1.0000
34.1900 1507.0000 1.0000
34.2000 1546.0000 1.0000
34.2100 1577.0000 1.0000
34.2200 1594.0000 1.0000
34.2300 1619.0000 1.0000
34.2400 1652.0000 1.0000
34.2500 1683.0000 1.0000
34.2600 1718.0000 1.0000
34.2700 1756.0000 1.0000
34.2800 1725.0000 1.0000
34.2900 1750.0000 1.0000
34.3000 1849.0000 1.0000
34.3100 1921.0000 1.0000
34.3200 1969.0000 1.0000
34.3300 2007.0000 1.0000
34.3400 2069.0000 1.0000
34.3500 2155.0000 1.0000
34.3600 2246.0000 1.0000
34.3700 2385.0000 1.0000
34.3800 2409.0000 1.0000
34.3900 2634.0000 1.0000
34.4000 2675.0000 1.0000
34.4100 2937.0000 1.0000
34.4200 2984.0000 1.0000
34.4300 3045.0000 1.0000
34.4400 3136.0000 1.0000
34.4500 3319.0000 1.0000
34.4600 3375.0000 1.0000
34.4700 3497.0000 1.0000
34.4800 3569.0000 1.0000
34.4900 3472.0000 1.0000
34.5000 3553.0000 1.0000
34.5100 3467.0000 1.0000
34.5200 3341.0000 1.0000
34.5300 3379.0000 1.0000
34.5400 3352.0000 1.0000
34.5500 3065.0000 1.0000
34.5600 3024.0000 1.0000
34.5700 3017.0000 1.0000
34.5800 2866.0000 1.0000
34.5900 2749.0000 1.0000
34.6000 2591.0000 1.0000
34.6100 2609.0000 1.0000
34.6200 2469.0000 1.0000
34.6300 2327.0000 1.0000
34.6400 2234.0000 1.0000
34.6500 2092.0000 1.0000
34.6600 2030.0000 1.0000
34.6700 1969.0000 1.0000
34.6800 1905.0000 1.0000
34.6900 1839.0000 1.0000
34.7000 1864.0000 1.0000
34.7100 1761.0000 1.0000
34.7200 1695.0000 1.0000
34.7300 1713.0000 1.0000
34.7400 1697.0000 1.0000
34.7500 1640.0000 1.0000
34.7600 1563.0000 1.0000
34.7700 1597.0000 1.0000
34.7800 1607.0000 1.0000
34.7900 1537.0000 1.0000
34.8000 1472.0000 1.0000
34.8100 1480.0000 1.0000
34.8200 1412.0000 1.0000
34.8300 1382.0000 1.0000
34.8400 1412.0000 1.0000
34.8500 1428.0000 1.0000
34.8600 1429.0000 1.0000
34.8700 1438.0000 1.0000
34.8800 1347.0000 1.0000
34.8900 1313.0000 1.0000
34.9000 1274.0000 1.0000
34.9100 1372.0000 1.0000
34.9200 1301.0000 1.0000
34.9300 1232.0000 1.0000
34.9400 1296.0000 1.0000
34.9500 1253.0000 1.0000
34.9600 1223.0000 1.0000
34.9700 1248.0000 1.0000
34.9800 1262.0000 1.0000
34.9900 1220.0000 1.0000
35.0000 1257.0000 1.0000
35.0100 1255.0000 1.0000
35.0200 1181.0000 1.0000
35.0300 1225.0000 1.0000
35.0400 1250.0000 1.0000
35.0500 1231.0000 1.0000
35.0600 1173.0000 1.0000
35.0700 1240.0000 1.0000
35.0800 1160.0000 1.0000
35.0900 1172.0000 1.0000
35.1000 1218.0000 1.0000
35.1100 1197.0000 1.0000
35.1200 1224.0000 1.0000
35.1300 1229.0000 1.0000
35.1400 1212.0000 1.0000
35.1500 1246.0000 1.0000
35.1600 1229.0000 1.0000
35.1700 1156.0000 1.0000
35.1800 1154.0000 1.0000
35.1900 1155.0000 1.0000
35.2000 1177.0000 1.0000
35.2100 1187.0000 1.0000
35.2200 1198.0000 1.0000
35.2300 1177.0000 1.0000
35.2400 1154.0000 1.0000
35.2500 1123.0000 1.0000
35.2600 1142.0000 1.0000
35.2700 1126.0000 1.0000
35.2800 1125.0000 1.0000
35.2900 1149.0000 1.0000
35.3000 1161.0000 1.0000
35.3100 1120.0000 1.0000
35.3200 1120.0000 1.0000
35.3300 1146.0000 1.0000
35.3400 1142.0000 1.0000
35.3500 1142.0000 1.0000
35.3600 1102.0000 1.0000
35.3700 1100.0000 1.0000
35.3800 1176.0000 1.0000
35.3900 1163.0000 1.0000
35.4000 1121.0000 1.0000
35.4100 1120.0000 1.0000
35.4200 1104.0000 1.0000
35.4300 1077.0000 1.0000
35.4400 1107.0000 1.0000
35.4500 1175.0000 1.0000
35.4600 1123.0000 1.0000
35.4700 1137.0000 1.0000
35.4800 1116.0000 1.0000
35.4900 1133.0000 1.0000
35.5000 1135.0000 1.0000
35.5100 1121.0000 1.0000
35.5200 1052.0000 1.0000
35.5300 1029.0000 1.0000
35.5400 1080.0000 1.0000
35.5500 1096.0000 1.0000
35.5600 1156.0000 1.0000
35.5700 1118.0000 1.0000
35.5800 1048.0000 1.0000
35.5900 1079.0000 1.0000
35.6000 1122.0000 1.0000
35.6100 1098.0000 1.0000
35.6200 1059.0000 1.0000
35.6300 1076.0000 1.0000
35.6400 1105.0000 1.0000
35.6500 1121.0000 1.0000
35.6600 1058.0000 1.0000
35.6700 1053.0000 1.0000
35.6800 1005.0000 1.0000
35.6900 1063.0000 1.0000
35.7000 1089.0000 1.0000
35.7100 1092.0000 1.0000
35.7200 1113.0000 1.0000
35.7300 1082.0000 1.0000
35.7400 1100.0000 1.0000
35.7500 1045.0000 1.0000
35.7600 1134.0000 1.0000
35.7700 1048.0000 1.0000
35.7800 1070.0000 1.0000
35.7900 1045.0000 1.0000
35.8000 1068.0000 1.0000
35.8100 1098.0000 1.0000
35.8200 1026.0000 1.0000
35.8300 1037.0000 1.0000
35.8400 1063.0000 1.0000
35.8500 1040.0000 1.0000
35.8600 1048.0000 1.0000
35.8700 1102.0000 1.0000
35.8800 1002.0000 1.0000
35.8900 1086.0000 1.0000
35.9000 1066.0000 1.0000
35.9100 1045.0000 1.0000
35.9200 1091.0000 1.0000
35.9300 1078.0000 1.0000
35.9400 1058.0000 1.0000
35.9500 1027.0000 1.0000
35.9600 1058.0000 1.0000
35.9700 1057.0000 1.0000
35.9800 1051.0000 1.0000
35.9900 1080.0000 1.0000
36.0000 1058.0000 1.0000
36.0100 1053.0000 1.0000
36.0200 1025.0000 1.0000
36.0300 1132.0000 1.0000
36.0400 1047.0000 1.0000
36.0500 1070.0000 1.0000
36.0600 1100.0000 1.0000
36.0700 1006.0000 1.0000
36.0800 1077.0000 1.0000
36.0900 1035.0000 1.0000
36.1000 1083.0000 1.0000
36.1100 1144.0000 1.0000
36.1200 1078.0000 1.0000
36.1300 1089.0000 1.0000
36.1400 1073.0000 1.0000
36.1500 1086.0000 1.0000
36.1600 1086.0000 1.0000
36.1700 1114.0000 1.0000
36.1800 1110.0000 1.0000
36.1900 1141.0000 1.0000
36.2000 1113.0000 1.0000
36.2100 1046.0000 1.0000
36.2200 1120.0000 1.0000
36.2300 1150.0000 1.0000
36.2400 1133.0000 1.0000
36.2500 1096.0000 1.0000
36.2600 1125.0000 1.0000
36.2700 1165.0000 1.0000
36.2800 1125.0000 1.0000
36.2900 1111.0000 1.0000
36.3000 1106.0000 1.0000
36.3100 1197.0000 1.0000
36.3200 1108.0000 1.0000
36.3300 1151.0000 1.0000
36.3400 1163.0000 1.0000
36.3500 1223.0000 1.0000
36.3600 1213.0000 1.0000
36.3700 1149.0000 1.0000
36.3800 1140.0000 1.0000
36.3900 1209.0000 1.0000
36.4000 1198.0000 1.0000
36.4100 1133.0000 1.0000
36.4200 1158.0000 1.0000
36.4300 1130.0000 1.0000
36.4400 1182.0000 1.0000
36.4500 1159.0000 1.0000
36.4600 1169.0000 1.0000
36.4700 1138.0000 1.0000
36.4800 1174.0000 1.0000
36.4900 1132.0000 1.0000
36.5000 1149.0000 1.0000
36.5100 1169.0000 1.0000
36.5200 1098.0000 1.0000
36.5300 1101.0000 1.0000
36.5400 1125.0000 1.0000
36.5500 1115.0000 1.0000
36.5600 1106.0000 1.0000
36.5700 1058.0000 1.0000
36.5800 1104.0000 1.0000
36.5900 1082.0000 1.0000
36.6000 1138.0000 1.0000
36.6100 1070.0000 1.0000
36.6200 1050.0000 1.0000
36.6300 1092.0000 1.0000
36.6400 1043.0000 1.0000
36.6500 1031.0000 1.0000
36.6600 1064.0000 1.0000
36.6700 1035.0000 1.0000
36.6800 1045.0000 1.0000
36.6900 1071.0000 1.0000
36.7000 1048.0000 1.0000
36.7100 1023.0000 1.0000
36.7200 1077.0000 1.0000
36.7300 1031.0000 1.0000
36.7400 980.0000 1.0000
36.7500 1043.0000 1.0000
36.7600 985.0000 1.0000
36.7700 1011.0000 1.0000
36.7800 987.0000 1.0000
36.7900 1017.0000 1.0000
36.8000 1026.0000 1.0000
36.8100 1011.0000 1.0000
36.8200 1029.0000 1.0000
36.8300 985.0000 1.0000
36.8400 1011.0000 1.0000
36.8500 990.0000 1.0000
36.8600 1010.0000 1.0000
36.8700 1005.0000 1.0000
36.8800 986.0000 1.0000
36.8900 1012.0000 1.0000
36.9000 973.0000 1.0000
36.9100 948.0000 1.0000
36.9200 1010.0000 1.0000
36.9300 989.0000 1.0000
36.9400 1028.0000 1.0000
36.9500 990.0000 1.0000
36.9600 967.0000 1.0000
36.9700 993.0000 1.0000
36.9800 1023.0000 1.0000
36.9900 945.0000 1.0000
37.0000 975.0000 1.0000
37.0100 977.0000 1.0000
37.0200 971.0000 1.0000
37.0300 984.0000 1.0000
37.0400 1001.0000 1.0000
37.0500 987.0000 1.0000
37.0600 980.0000 1.0000
37.0700 961.0000 1.0000
37.0800 956.0000 1.0000
37.0900 943.0000 1.0000
37.1000 1021.0000 1.0000
37.1100 984.0000 1.0000
37.1200 1004.0000 1.0000
37.1300 950.0000 1.0000
37.1400 979.0000 1.0000
37.1500 992.0000 1.0000
37.1600 990.0000 1.0000
37.1700 999.0000 1.0000
37.1800 1001.0000 1.0000
37.1900 1022.0000 1.0000
37.2000 985.0000 1.0000
37.2100 997.0000 1.0000
37.2200 1029.0000 1.0000
37.2300 981.0000 1.0000
37.2400 925.0000 1.0000
37.2500 1015.0000 1.0000
37.2600 988.0000 1.0000
37.2700 999.0000 1.0000
37.2800 938.0000 1.0000
37.2900 1008.0000 1.0000
37.3000 1021.0000 1.0000
37.3100 1037.0000 1.0000
37.3200 1050.0000 1.0000
37.3300 983.0000 1.0000
37.3400 1007.0000 1.0000
37.3500 929.0000 1.0000
37.3600 975.0000 1.0000
37.3700 957.0000 1.0000
37.3800 980.0000 1.0000
37.3900 923.0000 1.0000
37.4000 969.0000 1.0000
37.4100 1014.0000 1.0000
37.4200 991.0000 1.0000
37.4300 995.0000 1.0000
37.4400 980.0000 1.0000
37.4500 948.0000 1.0000
37.4600 969.0000 1.0000
37.4700 959.0000 1.0000
37.4800 998.0000 1.0000
37.4900 980.0000 1.0000
37.5000 1013.0000 1.0000
37.5100 1010.0000 1.0000
37.5200 951.0000 1.0000
37.5300 1001.0000 1.0000
37.5400 1039.0000 1.0000
37.5500 956.0000 1.0000
37.5600 964.0000 1.0000
37.5700 948.0000 1.0000
37.5800 993.0000 1.0000
37.5900 992.0000 1.0000
37.6000 937.0000 1.0000
37.6100 1017.0000 1.0000
37.6200 986.0000 1.0000
37.6300 987.0000 1.0000
37.6400 1017.0000 1.0000
37.6500 996.0000 1.0000
37.6600 1018.0000 1.0000
37.6700 994.0000 1.0000
37.6800 951.0000 1.0000
37.6900 975.0000 1.0000
37.7000 1018.0000 1.0000
37.7100 1004.0000 1.0000
37.7200 957.0000 1.0000
37.7300 969.0000 1.0000
37.7400 1033.0000 1.0000
37.7500 1036.0000 1.0000
37.7600 1029.0000 1.0000
37.7700 941.0000 1.0000
37.7800 994.0000 1.0000
37.7900 972.0000 1.0000
37.8000 968.0000 1.0000
37.8100 1012.0000 1.0000
37.8200 1002.0000 1.0000
37.8300 1017.0000 1.0000
37.8400 995.0000 1.0000
37.8500 978.0000 1.0000
37.8600 1028.0000 1.0000
37.8700 984.0000 1.0000
37.8800 941.0000 1.0000
37.8900 1018.0000 1.0000
37.9000 945.0000 1.0000
37.9100 1001.0000 1.0000
37.9200 979.0000 1.0000
37.9300 1033.0000 1.0000
37.9400 1050.0000 1.0000
37.9500 1008.0000 1.0000
37.9600 1034.0000 1.0000
37.9700 1018.0000 1.0000
37.9800 1019.0000 1.0000
37.9900 1014.0000 1.0000
38.0000 1023.0000 1.0000
38.0100 1059.0000 1.0000
38.0200 1090.0000 1.0000
38.0300 1106.0000 1.0000
38.0400 1091.0000 1.0000
38.0500 1104.0000 1.0000
38.0600 1045.0000 1.0000
38.0700 1080.0000 1.0000
38.0800 1131.0000 1.0000
38.0900 1151.0000 1.0000
38.1000 1145.0000 1.0000
38.1100 1172.0000 1.0000
38.1200 1167.0000 1.0000
38.1300 1132.0000 1.0000
38.1400 1210.0000 1.0000
38.1500 1202.0000 1.0000
38.1600 1239.0000 1.0000
38.1700 1300.0000 1.0000
38.1800 1336.0000 1.0000
38.1900 1317.0000 1.0000
38.2000 1377.0000 1.0000
38.2100 1408.0000 1.0000
38.2200 1436.0000 1.0000
38.2300 1478.0000 1.0000
38.2400 1574.0000 1.0000
38.2500 1524.0000 1.0000
38.2600 1614.0000 1.0000
38.2700 1698.0000 1.0000
38.2800 1719.0000 1.0000
38.2900 1818.0000 1.0000
38.3000 1886.0000 1.0000
38.3100 1954.0000 1.0000
38.3200 2118.0000 1.0000
38.3300 2152.0000 1.0000
38.3400 2291.0000 1.0000
38.3500 2414.0000 1.0000
38.3600 2547.0000 1.0000
38.3700 2690.0000 1.0000
38.3800 2883.0000 1.0000
38.3900 3036.0000 1.0000
38.4000 3220.0000 1.0000
38.4100 3462.0000 1.0000
38.4200 3731.0000 1.0000
38.4300 4181.0000 1.0000
38.4400 4381.0000 1.0000
38.4500 4604.0000 1.0000
38.4600 5011.0000 1.0000
38.4700 5320.0000 1.0000
38.4800 5569.0000 1.0000
38.4900 5726.0000 1.0000
38.5000 5961.0000 1.0000
38.5100 6122.0000 1.0000
38.5200 6294.0000 1.0000
38.5300 6157.0000 1.0000
38.5400 6115.0000 1.0000
38.5500 6089.0000 1.0000
38.5600 5969.0000 1.0000
38.5700 5771.0000 1.0000
38.5800 5716.0000 1.0000
38.5900 5333.0000 1.0000
38.6000 5219.0000 1.0000
38.6100 5101.0000 1.0000
38.6200 4826.0000 1.0000
38.6300 4619.0000 1.0000
38.6400 4419.0000 1.0000
38.6500 4180.0000 1.0000
38.6600 3828.0000 1.0000
38.6700 3678.0000 1.0000
38.6800 3359.0000 1.0000
38.6900 3154.0000 1.0000
38.7000 2947.0000 1.0000
38.7100 2766.0000 1.0000
38.7200 2650.0000 1.0000
38.7300 2464.0000 1.0000
38.7400 2370.0000 1.0000
38.7500 2141.0000 1.0000
38.7600 1991.0000 1.0000
38.7700 1872.0000 1.0000
38.7800 1829.0000 1.0000
38.7900 1711.0000 1.0000
38.8000 1665.0000 1.0000
38.8100 1537.0000 1.0000
38.8200 1591.0000 1.0000
38.8300 1466.0000 1.0000
38.8400 1427.0000 1.0000
38.8500 1440.0000 1.0000
38.8600 1339.0000 1.0000
38.8700 1313.0000 1.0000
38.8800 1258.0000 1.0000
38.8900 1314.0000 1.0000
38.9000 1183.0000 1.0000
38.9100 1225.0000 1.0000
38.9200 1139.0000 1.0000
38.9300 1094.0000 1.0000
38.9400 1120.0000 1.0000
38.9500 1126.0000 1.0000
38.9600 1113.0000 1.0000
38.9700 1061.0000 1.0000
38.9800 1082.0000 1.0000
38.9900 1033.0000 1.0000
39.0000 1018.0000 1.0000
39.0100 1047.0000 1.0000
39.0200 973.0000 1.0000
39.0300 1035.0000 1.0000
39.0400 1013.0000 1.0000
39.0500 1011.0000 1.0000
39.0600 983.0000 1.0000
39.0700 950.0000 1.0000
39.0800 952.0000 1.0000
39.0900 991.0000 1.0000
39.1000 973.0000 1.0000
39.1100 962.0000 1.0000
39.1200 913.0000 1.0000
39.1300 906.0000 1.0000
39.1400 968.0000 1.0000
39.1500 896.0000 1.0000
39.1600 962.0000 1.0000
39.1700 914.0000 1.0000
39.1800 903.0000 1.0000
39.1900 929.0000 1.0000
39.2000 899.0000 1.0000
39.2100 877.0000 1.0000
39.2200 910.0000 1.0000
39.2300 864.0000 1.0000
39.2400 904.0000 1.0000
39.2500 896.0000 1.0000
39.2600 906.0000 1.0000
39.2700 905.0000 1.0000
39.2800 883.0000 1.0000
39.2900 922.0000 1.0000
39.3000 953.0000 1.0000
39.3100 896.0000 1.0000
39.3200 839.0000 1.0000
39.3300 876.0000 1.0000
39.3400 872.0000 1.0000
39.3500 912.0000 1.0000
39.3600 898.0000 1.0000
39.3700 900.0000 1.0000
39.3800 933.0000 1.0000
39.3900 928.0000 1.0000
39.4000 871.0000 1.0000
39.4100 889.0000 1.0000
39.4200 861.0000 1.0000
39.4300 851.0000 1.0000
39.4400 882.0000 1.0000
39.4500 850.0000 1.0000
39.4600 879.0000 1.0000
39.4700 911.0000 1.0000
39.4800 933.0000 1.0000
39.4900 921.0000 1.0000
39.5000 890.0000 1.0000
39.5100 951.0000 1.0000
39.5200 908.0000 1.0000
39.5300 947.0000 1.0000
39.5400 914.0000 1.0000
39.5500 941.0000 1.0000
39.5600 950.0000 1.0000
39.5700 921.0000 1.0000
39.5800 941.0000 1.0000
39.5900 924.0000 1.0000
39.6000 980.0000 1.0000
39.6100 947.0000 1.0000
39.6200 954.0000 1.0000
39.6300 911.0000 1.0000
39.6400 940.0000 1.0000
39.6500 920.0000 1.0000
39.6600 940.0000 1.0000
39.6700 909.0000 1.0000
39.6800 917.0000 1.0000
39.6900 870.0000 1.0000
39.7000 904.0000 1.0000
39.7100 930.0000 1.0000
39.7200 884.0000 1.0000
39.7300 862.0000 1.0000
39.7400 891.0000 1.0000
39.7500 873.0000 1.0000
39.7600 855.0000 1.0000
39.7700 868.0000 1.0000
39.7800 855.0000 1.0000
39.7900 869.0000 1.0000
39.8000 857.0000 1.0000
39.8100 850.0000 1.0000
39.8200 870.0000 1.0000
39.8300 864.0000 1.0000
39.8400 893.0000 1.0000
39.8500 844.0000 1.0000
39.8600 830.0000 1.0000
39.8700 845.0000 1.0000
39.8800 862.0000 1.0000
39.8900 870.0000 1.0000
39.9000 903.0000 1.0000
39.9100 858.0000 1.0000
39.9200 856.0000 1.0000
39.9300 819.0000 1.0000
39.9400 778.0000 1.0000
39.9500 801.0000 1.0000
39.9600 855.0000 1.0000
39.9700 862.0000 1.0000
39.9800 831.0000 1.0000
39.9900 859.0000 1.0000
40.0000 854.0000 1.0000
40.0100 856.0000 1.0000
40.0200 867.0000 1.0000
40.0300 802.0000 1.0000
40.0400 891.0000 1.0000
40.0500 824.0000 1.0000
40.0600 797.0000 1.0000
40.0700 843.0000 1.0000
40.0800 786.0000 1.0000
40.0900 835.0000 1.0000
40.1000 808.0000 1.0000
40.1100 792.0000 1.0000
40.1200 823.0000 1.0000
40.1300 790.0000 1.0000
40.1400 840.0000 1.0000
40.1500 813.0000 1.0000
40.1600 845.0000 1.0000
40.1700 813.0000 1.0000
40.1800 783.0000 1.0000
40.1900 836.0000 1.0000
40.2000 827.0000 1.0000
40.2100 836.0000 1.0000
40.2200 798.0000 1.0000
40.2300 796.0000 1.0000
40.2400 780.0000 1.0000
40.2500 821.0000 1.0000
40.2600 823.0000 1.0000
40.2700 863.0000 1.0000
40.2800 842.0000 1.0000
40.2900 810.0000 1.0000
40.3000 805.0000 1.0000
40.3100 803.0000 1.0000
40.3200 825.0000 1.0000
40.3300 815.0000 1.0000
40.3400 794.0000 1.0000
40.3500 829.0000 1.0000
40.3600 823.0000 1.0000
40.3700 775.0000 1.0000
40.3800 797.0000 1.0000
40.3900 832.0000 1.0000
40.4000 833.0000 1.0000
40.4100 865.0000 1.0000
40.4200 787.0000 1.0000
40.4300 799.0000 1.0000
40.4400 807.0000 1.0000
40.4500 814.0000 1.0000
40.4600 826.0000 1.0000
40.4700 788.0000 1.0000
40.4800 802.0000 1.0000
40.4900 845.0000 1.0000
40.5000 825.0000 1.0000
40.5100 784.0000 1.0000
40.5200 777.0000 1.0000
40.5300 838.0000 1.0000
40.5400 797.0000 1.0000
40.5500 813.0000 1.0000
40.5600 810.0000 1.0000
40.5700 819.0000 1.0000
40.5800 746.0000 1.0000
40.5900 740.0000 1.0000
40.6000 822.0000 1.0000
40.6100 834.0000 1.0000
40.6200 878.0000 1.0000
40.6300 801.0000 1.0000
40.6400 799.0000 1.0000
40.6500 799.0000 1.0000
40.6600 797.0000 1.0000
40.6700 787.0000 1.0000
40.6800 802.0000 1.0000
40.6900 791.0000 1.0000
40.7000 812.0000 1.0000
40.7100 803.0000 1.0000
40.7200 759.0000 1.0000
40.7300 854.0000 1.0000
40.7400 837.0000 1.0000
40.7500 831.0000 1.0000
40.7600 815.0000 1.0000
40.7700 799.0000 1.0000
40.7800 785.0000 1.0000
40.7900 767.0000 1.0000
40.8000 799.0000 1.0000
40.8100 817.0000 1.0000
40.8200 758.0000 1.0000
40.8300 772.0000 1.0000
40.8400 784.0000 1.0000
40.8500 816.0000 1.0000
40.8600 773.0000 1.0000
40.8700 777.0000 1.0000
40.8800 779.0000 1.0000
40.8900 814.0000 1.0000
40.9000 825.0000 1.0000
40.9100 835.0000 1.0000
40.9200 763.0000 1.0000
40.9300 778.0000 1.0000
40.9400 838.0000 1.0000
40.9500 843.0000 1.0000
40.9600 805.0000 1.0000
40.9700 816.0000 1.0000
40.9800 821.0000 1.0000
40.9900 825.0000 1.0000
41.0000 832.0000 1.0000
41.0100 834.0000 1.0000
41.0200 801.0000 1.0000
41.0300 796.0000 1.0000
41.0400 791.0000 1.0000
41.0500 803.0000 1.0000
41.0600 805.0000 1.0000
41.0700 819.0000 1.0000
41.0800 790.0000 1.0000
41.0900 787.0000 1.0000
41.1000 762.0000 1.0000
41.1100 804.0000 1.0000
41.1200 815.0000 1.0000
41.1300 797.0000 1.0000
41.1400 811.0000 1.0000
41.1500 811.0000 1.0000
41.1600 789.0000 1.0000
41.1700 778.0000 1.0000
41.1800 805.0000 1.0000
41.1900 779.0000 1.0000
41.2000 780.0000 1.0000
41.2100 822.0000 1.0000
41.2200 808.0000 1.0000
41.2300 795.0000 1.0000
41.2400 810.0000 1.0000
41.2500 806.0000 1.0000
41.2600 814.0000 1.0000
41.2700 807.0000 1.0000
41.2800 829.0000 1.0000
41.2900 788.0000 1.0000
41.3000 814.0000 1.0000
41.3100 765.0000 1.0000
41.3200 814.0000 1.0000
41.3300 786.0000 1.0000
41.3400 793.0000 1.0000
41.3500 794.0000 1.0000
41.3600 756.0000 1.0000
41.3700 782.0000 1.0000
41.3800 813.0000 1.0000
41.3900 784.0000 1.0000
41.4000 793.0000 1.0000
41.4100 817.0000 1.0000
41.4200 806.0000 1.0000
41.4300 799.0000 1.0000
41.4400 776.0000 1.0000
41.4500 822.0000 1.0000
41.4600 788.0000 1.0000
41.4700 815.0000 1.0000
41.4800 829.0000 1.0000
41.4900 774.0000 1.0000
41.5000 744.0000 1.0000
41.5100 830.0000 1.0000
41.5200 804.0000 1.0000
41.5300 818.0000 1.0000
41.5400 807.0000 1.0000
41.5500 806.0000 1.0000
41.5600 786.0000 1.0000
41.5700 786.0000 1.0000
41.5800 843.0000 1.0000
41.5900 762.0000 1.0000
41.6000 806.0000 1.0000
41.6100 782.0000 1.0000
41.6200 828.0000 1.0000
41.6300 792.0000 1.0000
41.6400 818.0000 1.0000
41.6500 787.0000 1.0000
41.6600 785.0000 1.0000
41.6700 788.0000 1.0000
41.6800 819.0000 1.0000
41.6900 780.0000 1.0000
41.7000 789.0000 1.0000
41.7100 756.0000 1.0000
41.7200 804.0000 1.0000
41.7300 801.0000 1.0000
41.7400 789.0000 1.0000
41.7500 805.0000 1.0000
41.7600 805.0000 1.0000
41.7700 781.0000 1.0000
41.7800 751.0000 1.0000
41.7900 829.0000 1.0000
41.8000 787.0000 1.0000
41.8100 782.0000 1.0000
41.8200 830.0000 1.0000
41.8300 814.0000 1.0000
41.8400 815.0000 1.0000
41.8500 807.0000 1.0000
41.8600 826.0000 1.0000
41.8700 780.0000 1.0000
41.8800 768.0000 1.0000
41.8900 784.0000 1.0000
41.9000 820.0000 1.0000
41.9100 786.0000 1.0000
41.9200 810.0000 1.0000
41.9300 795.0000 1.0000
41.9400 801.0000 1.0000
41.9500 778.0000 1.0000
41.9600 745.0000 1.0000
41.9700 769.0000 1.0000
41.9800 773.0000 1.0000
41.9900 791.0000 1.0000
42.0000 781.0000 1.0000
42.0100 783.0000 1.0000
42.0200 815.0000 1.0000
42.0300 841.0000 1.0000
42.0400 795.0000 1.0000
42.0500 769.0000 1.0000
42.0600 752.0000 1.0000
42.0700 775.0000 1.0000
42.0800 793.0000 1.0000
42.0900 804.0000 1.0000
42.1000 797.0000 1.0000
42.1100 794.0000 1.0000
42.1200 812.0000 1.0000
42.1300 748.0000 1.0000
42.1400 730.0000 1.0000
42.1500 817.0000 1.0000
42.1600 851.0000 1.0000
42.1700 774.0000 1.0000
42.1800 733.0000 1.0000
42.1900 748.0000 1.0000
42.2000 779.0000 1.0000
42.2100 782.0000 1.0000
42.2200 810.0000 1.0000
42.2300 804.0000 1.0000
42.2400 776.0000 1.0000
42.2500 774.0000 1.0000
42.2600 784.0000 1.0000
42.2700 792.0000 1.0000
42.2800 799.0000 1.0000
42.2900 766.0000 1.0000
42.3000 780.0000 1.0000
42.3100 772.0000 1.0000
42.3200 815.0000 1.0000
42.3300 823.0000 1.0000
42.3400 796.0000 1.0000
42.3500 787.0000 1.0000
42.3600 787.0000 1.0000
42.3700 738.0000 1.0000
42.3800 773.0000 1.0000
42.3900 784.0000 1.0000
42.4000 783.0000 1.0000
42.4100 752.0000 1.0000
42.4200 791.0000 1.0000
42.4300 816.0000 1.0000
42.4400 818.0000 1.0000
42.4500 776.0000 1.0000
42.4600 760.0000 1.0000
42.4700 742.0000 1.0000
42.4800 754.0000 1.0000
42.4900 797.0000 1.0000
42.5000 761.0000 1.0000
42.5100 746.0000 1.0000
42.5200 796.0000 1.0000
42.5300 799.0000 1.0000
42.5400 803.0000 1.0000
42.5500 802.0000 1.0000
42.5600 787.0000 1.0000
42.5700 743.0000 1.0000
42.5800 801.0000 1.0000
42.5900 797.0000 1.0000
42.6000 791.0000 1.0000
42.6100 790.0000 1.0000
42.6200 770.0000 1.0000
42.6300 788.0000 1.0000
42.6400 818.0000 1.0000
42.6500 775.0000 1.0000
42.6600 798.0000 1.0000
42.6700 738.0000 1.0000
42.6800 768.0000 1.0000
42.6900 775.0000 1.0000
42.7000 758.0000 1.0000
42.7100 785.0000 1.0000
42.7200 749.0000 1.0000
42.7300 795.0000 1.0000
42.7400 783.0000 1.0000
42.7500 758.0000 1.0000
42.7600 780.0000 1.0000
42.7700 798.0000 1.0000
42.7800 717.0000 1.0000
42.7900 771.0000 1.0000
42.8000 753.0000 1.0000
42.8100 758.0000 1.0000
42.8200 733.0000 1.0000
42.8300 761.0000 1.0000
42.8400 753.0000 1.0000
42.8500 732.0000 1.0000
42.8600 784.0000 1.0000
42.8700 760.0000 1.0000
42.8800 752.0000 1.0000
42.8900 777.0000 1.0000
42.9000 804.0000 1.0000
42.9100 779.0000 1.0000
42.9200 775.0000 1.0000
42.9300 757.0000 1.0000
42.9400 784.0000 1.0000
42.9500 789.0000 1.0000
42.9600 798.0000 1.0000
42.9700 792.0000 1.0000
42.9800 774.0000 1.0000
42.9900 811.0000 1.0000
43.0000 780.0000 1.0000
43.0100 737.0000 1.0000
43.0200 798.0000 1.0000
43.0300 789.0000 1.0000
43.0400 803.0000 1.0000
43.0500 799.0000 1.0000
43.0600 798.0000 1.0000
43.0700 788.0000 1.0000
43.0800 754.0000 1.0000
43.0900 831.0000 1.0000
43.1000 814.0000 1.0000
43.1100 828.0000 1.0000
43.1200 831.0000 1.0000
43.1300 842.0000 1.0000
43.1400 826.0000 1.0000
43.1500 831.0000 1.0000
43.1600 847.0000 1.0000
43.1700 830.0000 1.0000
43.1800 875.0000 1.0000
43.1900 874.0000 1.0000
43.2000 870.0000 1.0000
43.2100 916.0000 1.0000
43.2200 881.0000 1.0000
43.2300 884.0000 1.0000
43.2400 910.0000 1.0000
43.2500 869.0000 1.0000
43.2600 890.0000 1.0000
43.2700 837.0000 1.0000
43.2800 872.0000 1.0000
43.2900 863.0000 1.0000
43.3000 854.0000 1.0000
43.3100 856.0000 1.0000
43.3200 824.0000 1.0000
43.3300 836.0000 1.0000
43.3400 837.0000 1.0000
43.3500 805.0000 1.0000
43.3600 836.0000 1.0000
43.3700 819.0000 1.0000
43.3800 806.0000 1.0000
43.3900 770.0000 1.0000
43.4000 823.0000 1.0000
43.4100 799.0000 1.0000
43.4200 808.0000 1.0000
43.4300 790.0000 1.0000
43.4400 786.0000 1.0000
43.4500 835.0000 1.0000
43.4600 794.0000 1.0000
43.4700 750.0000 1.0000
43.4800 785.0000 1.0000
43.4900 793.0000 1.0000
43.5000 772.0000 1.0000
43.5100 810.0000 1.0000
43.5200 788.0000 1.0000
43.5300 747.0000 1.0000
43.5400 798.0000 1.0000
43.5500 768.0000 1.0000
43.5600 756.0000 1.0000
43.5700 774.0000 1.0000
43.5800 768.0000 1.0000
43.5900 799.0000 1.0000
43.6000 776.0000 1.0000
43.6100 762.0000 1.0000
43.6200 763.0000 1.0000
43.6300 786.0000 1.0000
43.6400 736.0000 1.0000
43.6500 770.0000 1.0000
43.6600 812.0000 1.0000
43.6700 751.0000 1.0000
43.6800 759.0000 1.0000
43.6900 774.0000 1.0000
43.7000 774.0000 1.0000
43.7100 757.0000 1.0000
43.7200 772.0000 1.0000
43.7300 772.0000 1.0000
43.7400 771.0000 1.0000
43.7500 748.0000 1.0000
43.7600 758.0000 1.0000
43.7700 762.0000 1.0000
43.7800 757.0000 1.0000
43.7900 730.0000 1.0000
43.8000 743.0000 1.0000
43.8100 763.0000 1.0000
43.8200 728.0000 1.0000
43.8300 770.0000 1.0000
43.8400 746.0000 1.0000
43.8500 711.0000 1.0000
43.8600 715.0000 1.0000
43.8700 745.0000 1.0000
43.8800 721.0000 1.0000
43.8900 744.0000 1.0000
43.9000 792.0000 1.0000
43.9100 756.0000 1.0000
43.9200 761.0000 1.0000
43.9300 816.0000 1.0000
43.9400 817.0000 1.0000
43.9500 704.0000 1.0000
43.9600 720.0000 1.0000
43.9700 756.0000 1.0000
43.9800 722.0000 1.0000
43.9900 764.0000 1.0000
44.0000 732.0000 1.0000
44.0100 755.0000 1.0000
44.0200 760.0000 1.0000
44.0300 757.0000 1.0000
44.0400 758.0000 1.0000
44.0500 721.0000 1.0000
44.0600 724.0000 1.0000
44.0700 770.0000 1.0000
44.0800 756.0000 1.0000
44.0900 770.0000 1.0000
44.1000 776.0000 1.0000
44.1100 777.0000 1.0000
44.1200 738.0000 1.0000
44.1300 742.0000 1.0000
44.1400 744.0000 1.0000
44.1500 750.0000 1.0000
44.1600 748.0000 1.0000
44.1700 754.0000 1.0000
44.1800 753.0000 1.0000
44.1900 770.0000 1.0000
44.2000 785.0000 1.0000
44.2100 768.0000 1.0000
44.2200 767.0000 1.0000
44.2300 775.0000 1.0000
44.2400 752.0000 1.0000
44.2500 775.0000 1.0000
44.2600 734.0000 1.0000
44.2700 753.0000 1.0000
44.2800 792.0000 1.0000
44.2900 751.0000 1.0000
44.3000 729.0000 1.0000
44.3100 722.0000 1.0000
44.3200 721.0000 1.0000
44.3300 797.0000 1.0000
44.3400 747.0000 1.0000
44.3500 746.0000 1.0000
44.3600 774.0000 1.0000
44.3700 732.0000 1.0000
44.3800 727.0000 1.0000
44.3900 762.0000 1.0000
44.4000 719.0000 1.0000
44.4100 700.0000 1.0000
44.4200 746.0000 1.0000
44.4300 718.0000 1.0000
44.4400 779.0000 1.0000
44.4500 745.0000 1.0000
44.4600 746.0000 1.0000
44.4700 724.0000 1.0000
44.4800 756.0000 1.0000
44.4900 719.0000 1.0000
44.5000 754.0000 1.0000
44.5100 744.0000 1.0000
44.5200 741.0000 1.0000
44.5300 756.0000 1.0000
44.5400 745.0000 1.0000
44.5500 758.0000 1.0000
44.5600 717.0000 1.0000
44.5700 758.0000 1.0000
44.5800 760.0000 1.0000
44.5900 758.0000 1.0000
44.6000 736.0000 1.0000
44.6100 716.0000 1.0000
44.6200 729.0000 1.0000
44.6300 722.0000 1.0000
44.6400 759.0000 1.0000
44.6500 717.0000 1.0000
44.6600 757.0000 1.0000
44.6700 739.0000 1.0000
44.6800 732.0000 1.0000
44.6900 721.0000 1.0000
44.7000 696.0000 1.0000
44.7100 730.0000 1.0000
44.7200 732.0000 1.0000
44.7300 754.0000 1.0000
44.7400 758.0000 1.0000
44.7500 713.0000 1.0000
44.7600 725.0000 1.0000
44.7700 760.0000 1.0000
44.7800 738.0000 1.0000
44.7900 744.0000 1.0000
44.8000 756.0000 1.0000
44.8100 706.0000 1.0000
44.8200 752.0000 1.0000
44.8300 753.0000 1.0000
44.8400 789.0000 1.0000
44.8500 751.0000 1.0000
44.8600 766.0000 1.0000
44.8700 738.0000 1.0000
44.8800 742.0000 1.0000
44.8900 737.0000 1.0000
44.9000 726.0000 1.0000
44.9100 745.0000 1.0000
44.9200 721.0000 1.0000
44.9300 724.0000 1.0000
44.9400 733.0000 1.0000
44.9500 724.0000 1.0000
44.9600 712.0000 1.0000
44.9700 715.0000 1.0000
44.9800 763.0000 1.0000
44.9900 742.0000 1.0000
45.0000 758.0000 1.0000
45.0100 745.0000 1.0000
45.0200 729.0000 1.0000
45.0300 738.0000 1.0000
45.0400 711.0000 1.0000
45.0500 735.0000 1.0000
45.0600 764.0000 1.0000
45.0700 764.0000 1.0000
45.0800 737.0000 1.0000
45.0900 759.0000 1.0000
45.1000 715.0000 1.0000
45.1100 768.0000 1.0000
45.1200 696.0000 1.0000
45.1300 701.0000 1.0000
45.1400 751.0000 1.0000
45.1500 727.0000 1.0000
45.1600 756.0000 1.0000
45.1700 783.0000 1.0000
45.1800 728.0000 1.0000
45.1900 740.0000 1.0000
45.2000 750.0000 1.0000
45.2100 710.0000 1.0000
45.2200 709.0000 1.0000
45.2300 736.0000 1.0000
45.2400 750.0000 1.0000
45.2500 724.0000 1.0000
45.2600 739.0000 1.0000
45.2700 762.0000 1.0000
45.2800 729.0000 1.0000
45.2900 753.0000 1.0000
45.3000 761.0000 1.0000
45.3100 722.0000 1.0000
45.3200 753.0000 1.0000
45.3300 720.0000 1.0000
45.3400 728.0000 1.0000
45.3500 676.0000 1.0000
45.3600 712.0000 1.0000
45.3700 731.0000 1.0000
45.3800 708.0000 1.0000
45.3900 751.0000 1.0000
45.4000 746.0000 1.0000
45.4100 737.0000 1.0000
45.4200 726.0000 1.0000
45.4300 731.0000 1.0000
45.4400 733.0000 1.0000
45.4500 696.0000 1.0000
45.4600 667.0000 1.0000
45.4700 745.0000 1.0000
45.4800 740.0000 1.0000
45.4900 747.0000 1.0000
45.5000 713.0000 1.0000
45.5100 740.0000 1.0000
45.5200 737.0000 1.0000
45.5300 739.0000 1.0000
45.5400 738.0000 1.0000
45.5500 674.0000 1.0000
45.5600 732.0000 1.0000
45.5700 691.0000 1.0000
45.5800 751.0000 1.0000
45.5900 722.0000 1.0000
45.6000 727.0000 1.0000
45.6100 731.0000 1.0000
45.6200 713.0000 1.0000
45.6300 701.0000 1.0000
45.6400 732.0000 1.0000
45.6500 763.0000 1.0000
45.6600 727.0000 1.0000
45.6700 721.0000 1.0000
45.6800 729.0000 1.0000
45.6900 745.0000 1.0000
45.7000 751.0000 1.0000
45.7100 726.0000 1.0000
45.7200 709.0000 1.0000
45.7300 683.0000 1.0000
45.7400 737.0000 1.0000
45.7500 733.0000 1.0000
45.7600 721.0000 1.0000
45.7700 737.0000 1.0000
45.7800 671.0000 1.0000
45.7900 701.0000 1.0000
45.8000 711.0000 1.0000
45.8100 718.0000 1.0000
45.8200 750.0000 1.0000
45.8300 736.0000 1.0000
45.8400 711.0000 1.0000
45.8500 723.0000 1.0000
45.8600 717.0000 1.0000
45.8700 752.0000 1.0000
45.8800 694.0000 1.0000
45.8900 716.0000 1.0000
45.9000 690.0000 1.0000
45.9100 700.0000 1.0000
45.9200 679.0000 1.0000
45.9300 678.0000 1.0000
45.9400 742.0000 1.0000
45.9500 726.0000 1.0000
45.9600 710.0000 1.0000
45.9700 735.0000 1.0000
45.9800 735.0000 1.0000
45.9900 755.0000 1.0000
46.0000 725.0000 1.0000
46.0100 802.0000 1.0000
46.0200 755.0000 1.0000
46.0300 700.0000 1.0000
46.0400 733.0000 1.0000
46.0500 737.0000 1.0000
46.0600 703.0000 1.0000
46.0700 687.0000 1.0000
46.0800 734.0000 1.0000
46.0900 686.0000 1.0000
46.1000 729.0000 1.0000
46.1100 754.0000 1.0000
46.1200 684.0000 1.0000
46.1300 718.0000 1.0000
46.1400 679.0000 1.0000
46.1500 634.0000 1.0000
46.1600 691.0000 1.0000
46.1700 724.0000 1.0000
46.1800 708.0000 1.0000
46.1900 747.0000 1.0000
46.2000 698.0000 1.0000
46.2100 682.0000 1.0000
46.2200 720.0000 1.0000
46.2300 701.0000 1.0000
46.2400 701.0000 1.0000
46.2500 741.0000 1.0000
46.2600 721.0000 1.0000
46.2700 761.0000 1.0000
46.2800 680.0000 1.0000
46.2900 682.0000 1.0000
46.3000 644.0000 1.0000
46.3100 686.0000 1.0000
46.3200 730.0000 1.0000
46.3300 677.0000 1.0000
46.3400 736.0000 1.0000
46.3500 699.0000 1.0000
46.3600 750.0000 1.0000
46.3700 690.0000 1.0000
46.3800 727.0000 1.0000
46.3900 719.0000 1.0000
46.4000 702.0000 1.0000
46.4100 722.0000 1.0000
46.4200 710.0000 1.0000
46.4300 691.0000 1.0000
46.4400 693.0000 1.0000
46.4500 730.0000 1.0000
46.4600 686.0000 1.0000
46.4700 696.0000 1.0000
46.4800 716.0000 1.0000
46.4900 701.0000 1.0000
46.5000 688.0000 1.0000
46.5100 668.0000 1.0000
46.5200 665.0000 1.0000
46.5300 717.0000 1.0000
46.5400 772.0000 1.0000
46.5500 706.0000 1.0000
46.5600 733.0000 1.0000
46.5700 688.0000 1.0000
46.5800 696.0000 1.0000
46.5900 706.0000 1.0000
46.6000 721.0000 1.0000
46.6100 723.0000 1.0000
46.6200 680.0000 1.0000
46.6300 699.0000 1.0000
46.6400 681.0000 1.0000
46.6500 705.0000 1.0000
46.6600 708.0000 1.0000
46.6700 737.0000 1.0000
46.6800 693.0000 1.0000
46.6900 731.0000 1.0000
46.7000 726.0000 1.0000
46.7100 702.0000 1.0000
46.7200 686.0000 1.0000
46.7300 742.0000 1.0000
46.7400 713.0000 1.0000
46.7500 728.0000 1.0000
46.7600 709.0000 1.0000
46.7700 695.0000 1.0000
46.7800 708.0000 1.0000
46.7900 721.0000 1.0000
46.8000 668.0000 1.0000
46.8100 720.0000 1.0000
46.8200 683.0000 1.0000
46.8300 689.0000 1.0000
46.8400 701.0000 1.0000
46.8500 689.0000 1.0000
46.8600 719.0000 1.0000
46.8700 675.0000 1.0000
46.8800 711.0000 1.0000
46.8900 711.0000 1.0000
46.9000 724.0000 1.0000
46.9100 728.0000 1.0000
46.9200 744.0000 1.0000
46.9300 711.0000 1.0000
46.9400 704.0000 1.0000
46.9500 731.0000 1.0000
46.9600 690.0000 1.0000
46.9700 716.0000 1.0000
46.9800 727.0000 1.0000
46.9900 769.0000 1.0000
47.0000 710.0000 1.0000
47.0100 753.0000 1.0000
47.0200 708.0000 1.0000
47.0300 771.0000 1.0000
47.0400 699.0000 1.0000
47.0500 688.0000 1.0000
47.0600 674.0000 1.0000
47.0700 711.0000 1.0000
47.0800 718.0000 1.0000
47.0900 721.0000 1.0000
47.1000 693.0000 1.0000
47.1100 743.0000 1.0000
47.1200 760.0000 1.0000
47.1300 689.0000 1.0000
47.1400 706.0000 1.0000
47.1500 708.0000 1.0000
47.1600 706.0000 1.0000
47.1700 684.0000 1.0000
47.1800 669.0000 1.0000
47.1900 676.0000 1.0000
47.2000 698.0000 1.0000
47.2100 739.0000 1.0000
47.2200 704.0000 1.0000
47.2300 693.0000 1.0000
47.2400 704.0000 1.0000
47.2500 683.0000 1.0000
47.2600 686.0000 1.0000
47.2700 666.0000 1.0000
47.2800 692.0000 1.0000
47.2900 706.0000 1.0000
47.3000 703.0000 1.0000
47.3100 704.0000 1.0000
47.3200 713.0000 1.0000
47.3300 672.0000 1.0000
47.3400 657.0000 1.0000
47.3500 727.0000 1.0000
47.3600 738.0000 1.0000
47.3700 752.0000 1.0000
47.3800 726.0000 1.0000
47.3900 692.0000 1.0000
47.4000 710.0000 1.0000
47.4100 733.0000 1.0000
47.4200 709.0000 1.0000
47.4300 705.0000 1.0000
47.4400 698.0000 1.0000
47.4500 702.0000 1.0000
47.4600 663.0000 1.0000
47.4700 659.0000 1.0000
47.4800 697.0000 1.0000
47.4900 719.0000 1.0000
47.5000 730.0000 1.0000
47.5100 648.0000 1.0000
47.5200 663.0000 1.0000
47.5300 712.0000 1.0000
47.5400 726.0000 1.0000
47.5500 690.0000 1.0000
47.5600 670.0000 1.0000
47.5700 709.0000 1.0000
47.5800 693.0000 1.0000
47.5900 668.0000 1.0000
47.6000 702.0000 1.0000
47.6100 703.0000 1.0000
47.6200 664.0000 1.0000
47.6300 686.0000 1.0000
47.6400 719.0000 1.0000
47.6500 703.0000 1.0000
47.6600 663.0000 1.0000
47.6700 710.0000 1.0000
47.6800 658.0000 1.0000
47.6900 655.0000 1.0000
47.7000 699.0000 1.0000
47.7100 685.0000 1.0000
47.7200 685.0000 1.0000
47.7300 693.0000 1.0000
47.7400 698.0000 1.0000
47.7500 684.0000 1.0000
47.7600 648.0000 1.0000
47.7700 696.0000 1.0000
47.7800 655.0000 1.0000
47.7900 710.0000 1.0000
47.8000 677.0000 1.0000
47.8100 670.0000 1.0000
47.8200 686.0000 1.0000
47.8300 687.0000 1.0000
47.8400 703.0000 1.0000
47.8500 676.0000 1.0000
47.8600 687.0000 1.0000
47.8700 682.0000 1.0000
47.8800 694.0000 1.0000
47.8900 709.0000 1.0000
47.9000 684.0000 1.0000
47.9100 641.0000 1.0000
47.9200 638.0000 1.0000
47.9300 681.0000 1.0000
47.9400 674.0000 1.0000
47.9500 673.0000 1.0000
47.9600 685.0000 1.0000
47.9700 724.0000 1.0000
47.9800 620.0000 1.0000
47.9900 659.0000 1.0000
48.0000 671.0000 1.0000
48.0100 648.0000 1.0000
48.0200 647.0000 1.0000
48.0300 661.0000 1.0000
48.0400 661.0000 1.0000
48.0500 624.0000 1.0000
48.0600 674.0000 1.0000
48.0700 654.0000 1.0000
48.0800 715.0000 1.0000
48.0900 687.0000 1.0000
48.1000 700.0000 1.0000
48.1100 704.0000 1.0000
48.1200 681.0000 1.0000
48.1300 666.0000 1.0000
48.1400 678.0000 1.0000
48.1500 689.0000 1.0000
48.1600 646.0000 1.0000
48.1700 655.0000 1.0000
48.1800 666.0000 1.0000
48.1900 665.0000 1.0000
48.2000 731.0000 1.0000
48.2100 680.0000 1.0000
48.2200 689.0000 1.0000
48.2300 692.0000 1.0000
48.2400 657.0000 1.0000
48.2500 654.0000 1.0000
48.2600 645.0000 1.0000
48.2700 650.0000 1.0000
48.2800 657.0000 1.0000
48.2900 664.0000 1.0000
48.3000 712.0000 1.0000
48.3100 742.0000 1.0000
48.3200 668.0000 1.0000
48.3300 717.0000 1.0000
48.3400 666.0000 1.0000
48.3500 683.0000 1.0000
48.3600 691.0000 1.0000
48.3700 700.0000 1.0000
48.3800 686.0000 1.0000
48.3900 693.0000 1.0000
48.4000 670.0000 1.0000
48.4100 670.0000 1.0000
48.4200 688.0000 1.0000
48.4300 638.0000 1.0000
48.4400 629.0000 1.0000
48.4500 666.0000 1.0000
48.4600 678.0000 1.0000
48.4700 690.0000 1.0000
48.4800 636.0000 1.0000
48.4900 676.0000 1.0000
48.5000 661.0000 1.0000
48.5100 653.0000 1.0000
48.5200 628.0000 1.0000
48.5300 628.0000 1.0000
48.5400 661.0000 1.0000
48.5500 628.0000 1.0000
48.5600 679.0000 1.0000
48.5700 676.0000 1.0000
48.5800 673.0000 1.0000
48.5900 671.0000 1.0000
48.6000 670.0000 1.0000
48.6100 694.0000 1.0000
48.6200 663.0000 1.0000
48.6300 670.0000 1.0000
48.6400 685.0000 1.0000
48.6500 669.0000 1.0000
48.6600 661.0000 1.0000
48.6700 645.0000 1.0000
48.6800 647.0000 1.0000
48.6900 653.0000 1.0000
48.7000 662.0000 1.0000
48.7100 660.0000 1.0000
48.7200 705.0000 1.0000
48.7300 697.0000 1.0000
48.7400 703.0000 1.0000
48.7500 652.0000 1.0000
48.7600 637.0000 1.0000
48.7700 649.0000 1.0000
48.7800 698.0000 1.0000
48.7900 668.0000 1.0000
48.8000 679.0000 1.0000
48.8100 643.0000 1.0000
48.8200 651.0000 1.0000
48.8300 650.0000 1.0000
48.8400 684.0000 1.0000
48.8500 664.0000 1.0000
48.8600 642.0000 1.0000
48.8700 647.0000 1.0000
48.8800 653.0000 1.0000
48.8900 689.0000 1.0000
48.9000 673.0000 1.0000
48.9100 634.0000 1.0000
48.9200 633.0000 1.0000
48.9300 637.0000 1.0000
48.9400 655.0000 1.0000
48.9500 665.0000 1.0000
48.9600 654.0000 1.0000
48.9700 659.0000 1.0000
48.9800 643.0000 1.0000
48.9900 687.0000 1.0000
49.0000 665.0000 1.0000
49.0100 661.0000 1.0000
49.0200 675.0000 1.0000
49.0300 637.0000 1.0000
49.0400 692.0000 1.0000
49.0500 743.0000 1.0000
49.0600 670.0000 1.0000
49.0700 625.0000 1.0000
49.0800 639.0000 1.0000
49.0900 612.0000 1.0000
49.1000 658.0000 1.0000
49.1100 669.0000 1.0000
49.1200 655.0000 1.0000
49.1300 676.0000 1.0000
49.1400 677.0000 1.0000
49.1500 640.0000 1.0000
49.1600 647.0000 1.0000
49.1700 666.0000 1.0000
49.1800 649.0000 1.0000
49.1900 661.0000 1.0000
49.2000 639.0000 1.0000
49.2100 646.0000 1.0000
49.2200 664.0000 1.0000
49.2300 610.0000 1.0000
49.2400 662.0000 1.0000
49.2500 655.0000 1.0000
49.2600 618.0000 1.0000
49.2700 668.0000 1.0000
49.2800 604.0000 1.0000
49.2900 658.0000 1.0000
49.3000 642.0000 1.0000
49.3100 637.0000 1.0000
49.3200 636.0000 1.0000
49.3300 670.0000 1.0000
49.3400 673.0000 1.0000
49.3500 639.0000 1.0000
49.3600 659.0000 1.0000
49.3700 613.0000 1.0000
49.3800 638.0000 1.0000
49.3900 673.0000 1.0000
49.4000 627.0000 1.0000
49.4100 660.0000 1.0000
49.4200 661.0000 1.0000
49.4300 636.0000 1.0000
49.4400 709.0000 1.0000
49.4500 656.0000 1.0000
49.4600 658.0000 1.0000
49.4700 658.0000 1.0000
49.4800 653.0000 1.0000
49.4900 655.0000 1.0000
49.5000 663.0000 1.0000
49.5100 657.0000 1.0000
49.5200 672.0000 1.0000
49.5300 710.0000 1.0000
49.5400 669.0000 1.0000
49.5500 642.0000 1.0000
49.5600 657.0000 1.0000
49.5700 639.0000 1.0000
49.5800 671.0000 1.0000
49.5900 643.0000 1.0000
49.6000 657.0000 1.0000
49.6100 639.0000 1.0000
49.6200 621.0000 1.0000
49.6300 659.0000 1.0000
49.6400 656.0000 1.0000
49.6500 607.0000 1.0000
49.6600 686.0000 1.0000
49.6700 639.0000 1.0000
49.6800 644.0000 1.0000
49.6900 651.0000 1.0000
49.7000 667.0000 1.0000
49.7100 647.0000 1.0000
49.7200 656.0000 1.0000
49.7300 661.0000 1.0000
49.7400 680.0000 1.0000
49.7500 704.0000 1.0000
49.7600 672.0000 1.0000
49.7700 665.0000 1.0000
49.7800 664.0000 1.0000
49.7900 671.0000 1.0000
49.8000 653.0000 1.0000
49.8100 671.0000 1.0000
49.8200 726.0000 1.0000
49.8300 694.0000 1.0000
49.8400 682.0000 1.0000
49.8500 685.0000 1.0000
49.8600 617.0000 1.0000
49.8700 649.0000 1.0000
49.8800 656.0000 1.0000
49.8900 658.0000 1.0000
49.9000 722.0000 1.0000
49.9100 669.0000 1.0000
49.9200 652.0000 1.0000
49.9300 669.0000 1.0000
49.9400 657.0000 1.0000
49.9500 628.0000 1.0000
49.9600 657.0000 1.0000
49.9700 648.0000 1.0000
49.9800 680.0000 1.0000
49.9900 685.0000 1.0000
50.0000 629.0000 1.0000
50.0100 648.0000 1.0000
50.0200 657.0000 1.0000
50.0300 669.0000 1.0000
50.0400 688.0000 1.0000
50.0500 705.0000 1.0000
50.0600 671.0000 1.0000
50.0700 666.0000 1.0000
50.0800 643.0000 1.0000
50.0900 641.0000 1.0000
50.1000 673.0000 1.0000
50.1100 642.0000 1.0000
50.1200 668.0000 1.0000
50.1300 674.0000 1.0000
50.1400 675.0000 1.0000
50.1500 675.0000 1.0000
50.1600 655.0000 1.0000
50.1700 643.0000 1.0000
50.1800 690.0000 1.0000
50.1900 650.0000 1.0000
50.2000 642.0000 1.0000
50.2100 630.0000 1.0000
50.2200 676.0000 1.0000
50.2300 670.0000 1.0000
50.2400 687.0000 1.0000
50.2500 690.0000 1.0000
50.2600 625.0000 1.0000
50.2700 656.0000 1.0000
50.2800 653.0000 1.0000
50.2900 689.0000 1.0000
50.3000 674.0000 1.0000
50.3100 693.0000 1.0000
50.3200 680.0000 1.0000
50.3300 648.0000 1.0000
50.3400 699.0000 1.0000
50.3500 693.0000 1.0000
50.3600 651.0000 1.0000
50.3700 651.0000 1.0000
50.3800 665.0000 1.0000
50.3900 680.0000 1.0000
50.4000 650.0000 1.0000
50.4100 633.0000 1.0000
50.4200 650.0000 1.0000
50.4300 662.0000 1.0000
50.4400 655.0000 1.0000
50.4500 650.0000 1.0000
50.4600 697.0000 1.0000
50.4700 680.0000 1.0000
50.4800 677.0000 1.0000
50.4900 635.0000 1.0000
50.5000 679.0000 1.0000
50.5100 695.0000 1.0000
50.5200 689.0000 1.0000
50.5300 688.0000 1.0000
50.5400 686.0000 1.0000
50.5500 665.0000 1.0000
50.5600 697.0000 1.0000
50.5700 692.0000 1.0000
50.5800 693.0000 1.0000
50.5900 639.0000 1.0000
50.6000 728.0000 1.0000
50.6100 677.0000 1.0000
50.6200 686.0000 1.0000
50.6300 682.0000 1.0000
50.6400 677.0000 1.0000
50.6500 689.0000 1.0000
50.6600 689.0000 1.0000
50.6700 713.0000 1.0000
50.6800 661.0000 1.0000
50.6900 668.0000 1.0000
50.7000 683.0000 1.0000
50.7100 684.0000 1.0000
50.7200 647.0000 1.0000
50.7300 702.0000 1.0000
50.7400 661.0000 1.0000
50.7500 665.0000 1.0000
50.7600 710.0000 1.0000
50.7700 639.0000 1.0000
50.7800 703.0000 1.0000
50.7900 686.0000 1.0000
50.8000 662.0000 1.0000
50.8100 665.0000 1.0000
50.8200 651.0000 1.0000
50.8300 716.0000 1.0000
50.8400 664.0000 1.0000
50.8500 684.0000 1.0000
50.8600 701.0000 1.0000
50.8700 685.0000 1.0000
50.8800 697.0000 1.0000
50.8900 665.0000 1.0000
50.9000 671.0000 1.0000
50.9100 650.0000 1.0000
50.9200 664.0000 1.0000
50.9300 665.0000 1.0000
50.9400 658.0000 1.0000
50.9500 637.0000 1.0000
50.9600 646.0000 1.0000
50.9700 686.0000 1.0000
50.9800 661.0000 1.0000
50.9900 687.0000 1.0000
51.0000 693.0000 1.0000
51.0100 661.0000 1.0000
51.0200 683.0000 1.0000
51.0300 712.0000 1.0000
51.0400 710.0000 1.0000
51.0500 661.0000 1.0000
51.0600 635.0000 1.0000
51.0700 668.0000 1.0000
51.0800 648.0000 1.0000
51.0900 684.0000 1.0000
51.1000 650.0000 1.0000
51.1100 634.0000 1.0000
51.1200 671.0000 1.0000
51.1300 646.0000 1.0000
51.1400 683.0000 1.0000
51.1500 666.0000 1.0000
51.1600 720.0000 1.0000
51.1700 685.0000 1.0000
51.1800 717.0000 1.0000
51.1900 717.0000 1.0000
51.2000 667.0000 1.0000
51.2100 684.0000 1.0000
51.2200 678.0000 1.0000
51.2300 666.0000 1.0000
51.2400 643.0000 1.0000
51.2500 664.0000 1.0000
51.2600 710.0000 1.0000
51.2700 665.0000 1.0000
51.2800 664.0000 1.0000
51.2900 692.0000 1.0000
51.3000 685.0000 1.0000
51.3100 670.0000 1.0000
51.3200 642.0000 1.0000
51.3300 657.0000 1.0000
51.3400 682.0000 1.0000
51.3500 723.0000 1.0000
51.3600 695.0000 1.0000
51.3700 655.0000 1.0000
51.3800 652.0000 1.0000
51.3900 678.0000 1.0000
51.4000 652.0000 1.0000
51.4100 682.0000 1.0000
51.4200 675.0000 1.0000
51.4300 701.0000 1.0000
51.4400 685.0000 1.0000
51.4500 697.0000 1.0000
51.4600 678.0000 1.0000
51.4700 660.0000 1.0000
51.4800 656.0000 1.0000
51.4900 700.0000 1.0000
51.5000 675.0000 1.0000
51.5100 705.0000 1.0000
51.5200 669.0000 1.0000
51.5300 720.0000 1.0000
51.5400 674.0000 1.0000
51.5500 664.0000 1.0000
51.5600 704.0000 1.0000
51.5700 725.0000 1.0000
51.5800 713.0000 1.0000
51.5900 700.0000 1.0000
51.6000 703.0000 1.0000
51.6100 709.0000 1.0000
51.6200 747.0000 1.0000
51.6300 708.0000 1.0000
51.6400 697.0000 1.0000
51.6500 716.0000 1.0000
51.6600 715.0000 1.0000
51.6700 731.0000 1.0000
51.6800 727.0000 1.0000
51.6900 712.0000 1.0000
51.7000 774.0000 1.0000
51.7100 721.0000 1.0000
51.7200 711.0000 1.0000
51.7300 709.0000 1.0000
51.7400 682.0000 1.0000
51.7500 745.0000 1.0000
51.7600 731.0000 1.0000
51.7700 793.0000 1.0000
51.7800 750.0000 1.0000
51.7900 761.0000 1.0000
51.8000 756.0000 1.0000
51.8100 798.0000 1.0000
51.8200 796.0000 1.0000
51.8300 840.0000 1.0000
51.8400 866.0000 1.0000
51.8500 864.0000 1.0000
51.8600 817.0000 1.0000
51.8700 882.0000 1.0000
51.8800 831.0000 1.0000
51.8900 879.0000 1.0000
51.9000 898.0000 1.0000
51.9100 926.0000 1.0000
51.9200 867.0000 1.0000
51.9300 949.0000 1.0000
51.9400 1029.0000 1.0000
51.9500 996.0000 1.0000
51.9600 995.0000 1.0000
51.9700 1028.0000 1.0000
51.9800 1151.0000 1.0000
51.9900 1166.0000 1.0000
52.0000 1194.0000 1.0000
52.0100 1179.0000 1.0000
52.0200 1293.0000 1.0000
52.0300 1371.0000 1.0000
52.0400 1361.0000 1.0000
52.0500 1457.0000 1.0000
52.0600 1489.0000 1.0000
52.0700 1600.0000 1.0000
52.0800 1659.0000 1.0000
52.0900 1805.0000 1.0000
52.1000 1890.0000 1.0000
52.1100 1924.0000 1.0000
52.1200 2171.0000 1.0000
52.1300 2344.0000 1.0000
52.1400 2536.0000 1.0000
52.1500 2753.0000 1.0000
52.1600 2991.0000 1.0000
52.1700 3198.0000 1.0000
52.1800 3616.0000 1.0000
52.1900 3942.0000 1.0000
52.2000 4224.0000 1.0000
52.2100 4543.0000 1.0000
52.2200 4951.0000 1.0000
52.2300 5127.0000 1.0000
52.2400 5470.0000 1.0000
52.2500 5722.0000 1.0000
52.2600 5747.0000 1.0000
52.2700 5804.0000 1.0000
52.2800 5627.0000 1.0000
52.2900 5527.0000 1.0000
52.3000 5433.0000 1.0000
52.3100 5099.0000 1.0000
52.3200 4978.0000 1.0000
52.3300 4890.0000 1.0000
52.3400 4732.0000 1.0000
52.3500 4642.0000 1.0000
52.3600 4444.0000 1.0000
52.3700 4413.0000 1.0000
52.3800 4209.0000 1.0000
52.3900 4191.0000 1.0000
52.4000 4050.0000 1.0000
52.4100 3846.0000 1.0000
52.4200 3796.0000 1.0000
52.4300 3513.0000 1.0000
52.4400 3258.0000 1.0000
52.4500 3029.0000 1.0000
52.4600 2855.0000 1.0000
52.4700 2559.0000 1.0000
52.4800 2300.0000 1.0000
52.4900 2130.0000 1.0000
52.5000 1970.0000 1.0000
52.5100 1856.0000 1.0000
52.5200 1835.0000 1.0000
52.5300 1664.0000 1.0000
52.5400 1657.0000 1.0000
52.5500 1546.0000 1.0000
52.5600 1413.0000 1.0000
52.5700 1338.0000 1.0000
52.5800 1346.0000 1.0000
52.5900 1304.0000 1.0000
52.6000 1223.0000 1.0000
52.6100 1198.0000 1.0000
52.6200 1095.0000 1.0000
52.6300 1088.0000 1.0000
52.6400 1052.0000 1.0000
52.6500 986.0000 1.0000
52.6600 1055.0000 1.0000
52.6700 978.0000 1.0000
52.6800 960.0000 1.0000
52.6900 941.0000 1.0000
52.7000 906.0000 1.0000
52.7100 920.0000 1.0000
52.7200 850.0000 1.0000
52.7300 899.0000 1.0000
52.7400 847.0000 1.0000
52.7500 851.0000 1.0000
52.7600 839.0000 1.0000
52.7700 823.0000 1.0000
52.7800 817.0000 1.0000
52.7900 820.0000 1.0000
52.8000 823.0000 1.0000
52.8100 812.0000 1.0000
52.8200 833.0000 1.0000
52.8300 816.0000 1.0000
52.8400 751.0000 1.0000
52.8500 770.0000 1.0000
52.8600 789.0000 1.0000
52.8700 735.0000 1.0000
52.8800 704.0000 1.0000
52.8900 736.0000 1.0000
52.9000 725.0000 1.0000
52.9100 790.0000 1.0000
52.9200 749.0000 1.0000
52.9300 771.0000 1.0000
52.9400 733.0000 1.0000
52.9500 788.0000 1.0000
52.9600 736.0000 1.0000
52.9700 741.0000 1.0000
52.9800 757.0000 1.0000
52.9900 711.0000 1.0000
53.0000 716.0000 1.0000
53.0100 715.0000 1.0000
53.0200 749.0000 1.0000
53.0300 783.0000 1.0000
53.0400 681.0000 1.0000
53.0500 746.0000 1.0000
53.0600 737.0000 1.0000
53.0700 729.0000 1.0000
53.0800 725.0000 1.0000
53.0900 709.0000 1.0000
53.1000 698.0000 1.0000
53.1100 663.0000 1.0000
53.1200 689.0000 1.0000
53.1300 697.0000 1.0000
53.1400 716.0000 1.0000
53.1500 717.0000 1.0000
53.1600 728.0000 1.0000
53.1700 684.0000 1.0000
53.1800 682.0000 1.0000
53.1900 685.0000 1.0000
53.2000 724.0000 1.0000
53.2100 688.0000 1.0000
53.2200 679.0000 1.0000
53.2300 714.0000 1.0000
53.2400 690.0000 1.0000
53.2500 688.0000 1.0000
53.2600 677.0000 1.0000
53.2700 666.0000 1.0000
53.2800 665.0000 1.0000
53.2900 655.0000 1.0000
53.3000 661.0000 1.0000
53.3100 652.0000 1.0000
53.3200 651.0000 1.0000
53.3300 646.0000 1.0000
53.3400 688.0000 1.0000
53.3500 686.0000 1.0000
53.3600 691.0000 1.0000
53.3700 682.0000 1.0000
53.3800 675.0000 1.0000
53.3900 662.0000 1.0000
53.4000 669.0000 1.0000
53.4100 649.0000 1.0000
53.4200 684.0000 1.0000
53.4300 676.0000 1.0000
53.4400 620.0000 1.0000
53.4500 646.0000 1.0000
53.4600 678.0000 1.0000
53.4700 675.0000 1.0000
53.4800 718.0000 1.0000
53.4900 622.0000 1.0000
53.5000 705.0000 1.0000
53.5100 699.0000 1.0000
53.5200 672.0000 1.0000
53.5300 687.0000 1.0000
53.5400 645.0000 1.0000
53.5500 649.0000 1.0000
53.5600 678.0000 1.0000
53.5700 683.0000 1.0000
53.5800 670.0000 1.0000
53.5900 692.0000 1.0000
53.6000 676.0000 1.0000
53.6100 622.0000 1.0000
53.6200 635.0000 1.0000
53.6300 677.0000 1.0000
53.6400 671.0000 1.0000
53.6500 642.0000 1.0000
53.6600 666.0000 1.0000
53.6700 632.0000 1.0000
53.6800 623.0000 1.0000
53.6900 637.0000 1.0000
53.7000 688.0000 1.0000
53.7100 644.0000 1.0000
53.7200 670.0000 1.0000
53.7300 656.0000 1.0000
53.7400 670.0000 1.0000
53.7500 625.0000 1.0000
53.7600 656.0000 1.0000
53.7700 616.0000 1.0000
53.7800 648.0000 1.0000
53.7900 639.0000 1.0000
53.8000 649.0000 1.0000
53.8100 696.0000 1.0000
53.8200 676.0000 1.0000
53.8300 630.0000 1.0000
53.8400 646.0000 1.0000
53.8500 636.0000 1.0000
53.8600 652.0000 1.0000
53.8700 673.0000 1.0000
53.8800 607.0000 1.0000
53.8900 647.0000 1.0000
53.9000 662.0000 1.0000
53.9100 673.0000 1.0000
53.9200 651.0000 1.0000
53.9300 648.0000 1.0000
53.9400 650.0000 1.0000
53.9500 635.0000 1.0000
53.9600 625.0000 1.0000
53.9700 658.0000 1.0000
53.9800 651.0000 1.0000
53.9900 680.0000 1.0000
54.0000 697.0000 1.0000
54.0100 648.0000 1.0000
54.0200 664.0000 1.0000
54.0300 648.0000 1.0000
54.0400 677.0000 1.0000
54.0500 678.0000 1.0000
54.0600 680.0000 1.0000
54.0700 680.0000 1.0000
54.0800 675.0000 1.0000
54.0900 665.0000 1.0000
54.1000 676.0000 1.0000
54.1100 648.0000 1.0000
54.1200 662.0000 1.0000
54.1300 665.0000 1.0000
54.1400 634.0000 1.0000
54.1500 649.0000 1.0000
54.1600 644.0000 1.0000
54.1700 686.0000 1.0000
54.1800 656.0000 1.0000
54.1900 650.0000 1.0000
54.2000 647.0000 1.0000
54.2100 643.0000 1.0000
54.2200 643.0000 1.0000
54.2300 649.0000 1.0000
54.2400 655.0000 1.0000
54.2500 660.0000 1.0000
54.2600 657.0000 1.0000
54.2700 661.0000 1.0000
54.2800 662.0000 1.0000
54.2900 588.0000 1.0000
54.3000 626.0000 1.0000
54.3100 626.0000 1.0000
54.3200 659.0000 1.0000
54.3300 629.0000 1.0000
54.3400 635.0000 1.0000
54.3500 670.0000 1.0000
54.3600 602.0000 1.0000
54.3700 658.0000 1.0000
54.3800 620.0000 1.0000
54.3900 643.0000 1.0000
54.4000 653.0000 1.0000
54.4100 695.0000 1.0000
54.4200 668.0000 1.0000
54.4300 705.0000 1.0000
54.4400 675.0000 1.0000
54.4500 682.0000 1.0000
54.4600 650.0000 1.0000
54.4700 663.0000 1.0000
54.4800 638.0000 1.0000
54.4900 635.0000 1.0000
54.5000 650.0000 1.0000
54.5100 625.0000 1.0000
54.5200 628.0000 1.0000
54.5300 625.0000 1.0000
54.5400 669.0000 1.0000
54.5500 668.0000 1.0000
54.5600 622.0000 1.0000
54.5700 664.0000 1.0000
54.5800 671.0000 1.0000
54.5900 683.0000 1.0000
54.6000 726.0000 1.0000
54.6100 672.0000 1.0000
54.6200 634.0000 1.0000
54.6300 646.0000 1.0000
54.6400 639.0000 1.0000
54.6500 651.0000 1.0000
54.6600 650.0000 1.0000
54.6700 646.0000 1.0000
54.6800 645.0000 1.0000
54.6900 709.0000 1.0000
54.7000 678.0000 1.0000
54.7100 675.0000 1.0000
54.7200 698.0000 1.0000
54.7300 699.0000 1.0000
54.7400 684.0000 1.0000
54.7500 624.0000 1.0000
54.7600 641.0000 1.0000
54.7700 642.0000 1.0000
54.7800 659.0000 1.0000
54.7900 666.0000 1.0000
54.8000 696.0000 1.0000
54.8100 639.0000 1.0000
54.8200 662.0000 1.0000
54.8300 692.0000 1.0000
54.8400 666.0000 1.0000
54.8500 650.0000 1.0000
54.8600 673.0000 1.0000
54.8700 703.0000 1.0000
54.8800 677.0000 1.0000
54.8900 659.0000 1.0000
54.9000 694.0000 1.0000
54.9100 652.0000 1.0000
54.9200 684.0000 1.0000
54.9300 691.0000 1.0000
54.9400 683.0000 1.0000
54.9500 716.0000 1.0000
54.9600 737.0000 1.0000
54.9700 727.0000 1.0000
54.9800 715.0000 1.0000
54.9900 718.0000 1.0000
55.0000 723.0000 1.0000
55.0100 706.0000 1.0000
55.0200 737.0000 1.0000
55.0300 729.0000 1.0000
55.0400 805.0000 1.0000
55.0500 748.0000 1.0000
55.0600 740.0000 1.0000
55.0700 772.0000 1.0000
55.0800 803.0000 1.0000
55.0900 765.0000 1.0000
55.1000 763.0000 1.0000
55.1100 773.0000 1.0000
55.1200 787.0000 1.0000
55.1300 782.0000 1.0000
55.1400 852.0000 1.0000
55.1500 836.0000 1.0000
55.1600 852.0000 1.0000
55.1700 894.0000 1.0000
55.1800 892.0000 1.0000
55.1900 889.0000 1.0000
55.2000 935.0000 1.0000
55.2100 1011.0000 1.0000
55.2200 962.0000 1.0000
55.2300 964.0000 1.0000
55.2400 1001.0000 1.0000
55.2500 1025.0000 1.0000
55.2600 1043.0000 1.0000
55.2700 1065.0000 1.0000
55.2800 1105.0000 1.0000
55.2900 1029.0000 1.0000
55.3000 1061.0000 1.0000
55.3100 1058.0000 1.0000
55.3200 1018.0000 1.0000
55.3300 1002.0000 1.0000
55.3400 977.0000 1.0000
55.3500 1006.0000 1.0000
55.3600 1006.0000 1.0000
55.3700 971.0000 1.0000
55.3800 974.0000 1.0000
55.3900 910.0000 1.0000
55.4000 991.0000 1.0000
55.4100 946.0000 1.0000
55.4200 952.0000 1.0000
55.4300 975.0000 1.0000
55.4400 918.0000 1.0000
55.4500 923.0000 1.0000
55.4600 887.0000 1.0000
55.4700 877.0000 1.0000
55.4800 907.0000 1.0000
55.4900 849.0000 1.0000
55.5000 861.0000 1.0000
55.5100 818.0000 1.0000
55.5200 815.0000 1.0000
55.5300 785.0000 1.0000
55.5400 760.0000 1.0000
55.5500 774.0000 1.0000
55.5600 790.0000 1.0000
55.5700 793.0000 1.0000
55.5800 730.0000 1.0000
55.5900 777.0000 1.0000
55.6000 778.0000 1.0000
55.6100 763.0000 1.0000
55.6200 742.0000 1.0000
55.6300 719.0000 1.0000
55.6400 699.0000 1.0000
55.6500 743.0000 1.0000
55.6600 708.0000 1.0000
55.6700 731.0000 1.0000
55.6800 734.0000 1.0000
55.6900 712.0000 1.0000
55.7000 656.0000 1.0000
55.7100 659.0000 1.0000
55.7200 687.0000 1.0000
55.7300 707.0000 1.0000
55.7400 660.0000 1.0000
55.7500 641.0000 1.0000
55.7600 652.0000 1.0000
55.7700 677.0000 1.0000
55.7800 661.0000 1.0000
55.7900 682.0000 1.0000
55.8000 666.0000 1.0000
55.8100 652.0000 1.0000
55.8200 662.0000 1.0000
55.8300 674.0000 1.0000
55.8400 675.0000 1.0000
55.8500 675.0000 1.0000
55.8600 649.0000 1.0000
55.8700 639.0000 1.0000
55.8800 636.0000 1.0000
55.8900 617.0000 1.0000
55.9000 629.0000 1.0000
55.9100 689.0000 1.0000
55.9200 665.0000 1.0000
55.9300 634.0000 1.0000
55.9400 626.0000 1.0000
55.9500 692.0000 1.0000
55.9600 641.0000 1.0000
55.9700 636.0000 1.0000
55.9800 598.0000 1.0000
55.9900 645.0000 1.0000
56.0000 635.0000 1.0000
56.0100 663.0000 1.0000
56.0200 701.0000 1.0000
56.0300 631.0000 1.0000
56.0400 676.0000 1.0000
56.0500 651.0000 1.0000
56.0600 637.0000 1.0000
56.0700 628.0000 1.0000
56.0800 662.0000 1.0000
56.0900 636.0000 1.0000
56.1000 607.0000 1.0000
56.1100 634.0000 1.0000
56.1200 619.0000 1.0000
56.1300 650.0000 1.0000
56.1400 647.0000 1.0000
56.1500 657.0000 1.0000
56.1600 622.0000 1.0000
56.1700 579.0000 1.0000
56.1800 600.0000 1.0000
56.1900 605.0000 1.0000
56.2000 601.0000 1.0000
56.2100 632.0000 1.0000
56.2200 614.0000 1.0000
56.2300 643.0000 1.0000
56.2400 625.0000 1.0000
56.2500 674.0000 1.0000
56.2600 643.0000 1.0000
56.2700 621.0000 1.0000
56.2800 647.0000 1.0000
56.2900 652.0000 1.0000
56.3000 630.0000 1.0000
56.3100 567.0000 1.0000
56.3200 636.0000 1.0000
56.3300 621.0000 1.0000
56.3400 620.0000 1.0000
56.3500 647.0000 1.0000
56.3600 645.0000 1.0000
56.3700 631.0000 1.0000
56.3800 610.0000 1.0000
56.3900 597.0000 1.0000
56.4000 600.0000 1.0000
56.4100 629.0000 1.0000
56.4200 613.0000 1.0000
56.4300 589.0000 1.0000
56.4400 657.0000 1.0000
56.4500 618.0000 1.0000
56.4600 632.0000 1.0000
56.4700 617.0000 1.0000
56.4800 636.0000 1.0000
56.4900 635.0000 1.0000
56.5000 641.0000 1.0000
56.5100 621.0000 1.0000
56.5200 645.0000 1.0000
56.5300 616.0000 1.0000
56.5400 620.0000 1.0000
56.5500 656.0000 1.0000
56.5600 612.0000 1.0000
56.5700 574.0000 1.0000
56.5800 616.0000 1.0000
56.5900 639.0000 1.0000
56.6000 626.0000 1.0000
56.6100 642.0000 1.0000
56.6200 669.0000 1.0000
56.6300 645.0000 1.0000
56.6400 633.0000 1.0000
56.6500 617.0000 1.0000
56.6600 591.0000 1.0000
56.6700 631.0000 1.0000
56.6800 584.0000 1.0000
56.6900 637.0000 1.0000
56.7000 632.0000 1.0000
56.7100 603.0000 1.0000
56.7200 597.0000 1.0000
56.7300 623.0000 1.0000
56.7400 611.0000 1.0000
56.7500 650.0000 1.0000
56.7600 636.0000 1.0000
56.7700 653.0000 1.0000
56.7800 624.0000 1.0000
56.7900 626.0000 1.0000
56.8000 628.0000 1.0000
56.8100 635.0000 1.0000
56.8200 619.0000 1.0000
56.8300 586.0000 1.0000
56.8400 609.0000 1.0000
56.8500 641.0000 1.0000
56.8600 624.0000 1.0000
56.8700 629.0000 1.0000
56.8800 604.0000 1.0000
56.8900 599.0000 1.0000
56.9000 637.0000 1.0000
56.9100 644.0000 1.0000
56.9200 608.0000 1.0000
56.9300 587.0000 1.0000
56.9400 606.0000 1.0000
56.9500 639.0000 1.0000
56.9600 616.0000 1.0000
56.9700 616.0000 1.0000
56.9800 682.0000 1.0000
56.9900 646.0000 1.0000
57.0000 647.0000 1.0000
57.0100 606.0000 1.0000
57.0200 626.0000 1.0000
57.0300 624.0000 1.0000
57.0400 607.0000 1.0000
57.0500 620.0000 1.0000
57.0600 584.0000 1.0000
57.0700 663.0000 1.0000
57.0800 608.0000 1.0000
57.0900 618.0000 1.0000
57.1000 609.0000 1.0000
57.1100 620.0000 1.0000
57.1200 636.0000 1.0000
57.1300 615.0000 1.0000
57.1400 641.0000 1.0000
57.1500 635.0000 1.0000
57.1600 650.0000 1.0000
57.1700 629.0000 1.0000
57.1800 645.0000 1.0000
57.1900 590.0000 1.0000
57.2000 612.0000 1.0000
57.2100 619.0000 1.0000
57.2200 620.0000 1.0000
57.2300 650.0000 1.0000
57.2400 629.0000 1.0000
57.2500 624.0000 1.0000
57.2600 640.0000 1.0000
57.2700 576.0000 1.0000
57.2800 631.0000 1.0000
57.2900 620.0000 1.0000
57.3000 649.0000 1.0000
57.3100 633.0000 1.0000
57.3200 668.0000 1.0000
57.3300 624.0000 1.0000
57.3400 633.0000 1.0000
57.3500 621.0000 1.0000
57.3600 633.0000 1.0000
57.3700 647.0000 1.0000
57.3800 602.0000 1.0000
57.3900 664.0000 1.0000
57.4000 614.0000 1.0000
57.4100 629.0000 1.0000
57.4200 623.0000 1.0000
57.4300 634.0000 1.0000
57.4400 630.0000 1.0000
57.4500 626.0000 1.0000
57.4600 611.0000 1.0000
57.4700 593.0000 1.0000
57.4800 618.0000 1.0000
57.4900 626.0000 1.0000
57.5000 624.0000 1.0000
57.5100 657.0000 1.0000
57.5200 645.0000 1.0000
57.5300 635.0000 1.0000
57.5400 625.0000 1.0000
57.5500 629.0000 1.0000
57.5600 596.0000 1.0000
57.5700 607.0000 1.0000
57.5800 553.0000 1.0000
57.5900 617.0000 1.0000
57.6000 652.0000 1.0000
57.6100 670.0000 1.0000
57.6200 597.0000 1.0000
57.6300 632.0000 1.0000
57.6400 658.0000 1.0000
57.6500 641.0000 1.0000
57.6600 654.0000 1.0000
57.6700 658.0000 1.0000
57.6800 613.0000 1.0000
57.6900 652.0000 1.0000
57.7000 578.0000 1.0000
57.7100 618.0000 1.0000
57.7200 591.0000 1.0000
57.7300 600.0000 1.0000
57.7400 635.0000 1.0000
57.7500 636.0000 1.0000
57.7600 651.0000 1.0000
57.7700 592.0000 1.0000
57.7800 636.0000 1.0000
57.7900 631.0000 1.0000
57.8000 625.0000 1.0000
57.8100 644.0000 1.0000
57.8200 630.0000 1.0000
57.8300 646.0000 1.0000
57.8400 599.0000 1.0000
57.8500 629.0000 1.0000
57.8600 606.0000 1.0000
57.8700 606.0000 1.0000
57.8800 631.0000 1.0000
57.8900 637.0000 1.0000
57.9000 637.0000 1.0000
57.9100 641.0000 1.0000
57.9200 662.0000 1.0000
57.9300 634.0000 1.0000
57.9400 621.0000 1.0000
57.9500 615.0000 1.0000
57.9600 614.0000 1.0000
57.9700 621.0000 1.0000
57.9800 639.0000 1.0000
57.9900 649.0000 1.0000
58.0000 616.0000 1.0000
58.0100 604.0000 1.0000
58.0200 631.0000 1.0000
58.0300 651.0000 1.0000
58.0400 626.0000 1.0000
58.0500 584.0000 1.0000
58.0600 638.0000 1.0000
58.0700 635.0000 1.0000
58.0800 645.0000 1.0000
58.0900 630.0000 1.0000
58.1000 621.0000 1.0000
58.1100 643.0000 1.0000
58.1200 627.0000 1.0000
58.1300 635.0000 1.0000
58.1400 622.0000 1.0000
58.1500 599.0000 1.0000
58.1600 615.0000 1.0000
58.1700 610.0000 1.0000
58.1800 599.0000 1.0000
58.1900 620.0000 1.0000
58.2000 626.0000 1.0000
58.2100 670.0000 1.0000
58.2200 630.0000 1.0000
58.2300 659.0000 1.0000
58.2400 636.0000 1.0000
58.2500 653.0000 1.0000
58.2600 654.0000 1.0000
58.2700 649.0000 1.0000
58.2800 617.0000 1.0000
58.2900 638.0000 1.0000
58.3000 651.0000 1.0000
58.3100 655.0000 1.0000
58.3200 662.0000 1.0000
58.3300 581.0000 1.0000
58.3400 618.0000 1.0000
58.3500 597.0000 1.0000
58.3600 645.0000 1.0000
58.3700 659.0000 1.0000
58.3800 656.0000 1.0000
58.3900 618.0000 1.0000
58.4000 620.0000 1.0000
58.4100 649.0000 1.0000
58.4200 636.0000 1.0000
58.4300 629.0000 1.0000
58.4400 623.0000 1.0000
58.4500 596.0000 1.0000
58.4600 645.0000 1.0000
58.4700 597.0000 1.0000
58.4800 625.0000 1.0000
58.4900 653.0000 1.0000
58.5000 641.0000 1.0000
58.5100 629.0000 1.0000
58.5200 647.0000 1.0000
58.5300 687.0000 1.0000
58.5400 658.0000 1.0000
58.5500 679.0000 1.0000
58.5600 608.0000 1.0000
58.5700 650.0000 1.0000
58.5800 692.0000 1.0000
58.5900 641.0000 1.0000
58.6000 640.0000 1.0000
58.6100 613.0000 1.0000
58.6200 591.0000 1.0000
58.6300 623.0000 1.0000
58.6400 654.0000 1.0000
58.6500 593.0000 1.0000
58.6600 660.0000 1.0000
58.6700 601.0000 1.0000
58.6800 633.0000 1.0000
58.6900 582.0000 1.0000
58.7000 672.0000 1.0000
58.7100 622.0000 1.0000
58.7200 605.0000 1.0000
58.7300 605.0000 1.0000
58.7400 649.0000 1.0000
58.7500 644.0000 1.0000
58.7600 651.0000 1.0000
58.7700 616.0000 1.0000
58.7800 625.0000 1.0000
58.7900 644.0000 1.0000
58.8000 643.0000 1.0000
58.8100 578.0000 1.0000
58.8200 584.0000 1.0000
58.8300 649.0000 1.0000
58.8400 614.0000 1.0000
58.8500 612.0000 1.0000
58.8600 644.0000 1.0000
58.8700 624.0000 1.0000
58.8800 629.0000 1.0000
58.8900 607.0000 1.0000
58.9000 610.0000 1.0000
58.9100 605.0000 1.0000
58.9200 618.0000 1.0000
58.9300 629.0000 1.0000
58.9400 622.0000 1.0000
58.9500 636.0000 1.0000
58.9600 609.0000 1.0000
58.9700 657.0000 1.0000
58.9800 665.0000 1.0000
58.9900 626.0000 1.0000
59.0000 610.0000 1.0000
59.0100 611.0000 1.0000
59.0200 631.0000 1.0000
59.0300 636.0000 1.0000
59.0400 629.0000 1.0000
59.0500 624.0000 1.0000
59.0600 656.0000 1.0000
59.0700 615.0000 1.0000
59.0800 620.0000 1.0000
59.0900 623.0000 1.0000
59.1000 636.0000 1.0000
59.1100 646.0000 1.0000
59.1200 640.0000 1.0000
59.1300 657.0000 1.0000
59.1400 652.0000 1.0000
59.1500 619.0000 1.0000
59.1600 608.0000 1.0000
59.1700 595.0000 1.0000
59.1800 642.0000 1.0000
59.1900 638.0000 1.0000
59.2000 674.0000 1.0000
59.2100 634.0000 1.0000
59.2200 649.0000 1.0000
59.2300 631.0000 1.0000
59.2400 639.0000 1.0000
59.2500 604.0000 1.0000
59.2600 673.0000 1.0000
59.2700 616.0000 1.0000
59.2800 618.0000 1.0000
59.2900 627.0000 1.0000
59.3000 645.0000 1.0000
59.3100 641.0000 1.0000
59.3200 701.0000 1.0000
59.3300 655.0000 1.0000
59.3400 618.0000 1.0000
59.3500 657.0000 1.0000
59.3600 676.0000 1.0000
59.3700 634.0000 1.0000
59.3800 626.0000 1.0000
59.3900 623.0000 1.0000
59.4000 643.0000 1.0000
59.4100 660.0000 1.0000
59.4200 615.0000 1.0000
59.4300 618.0000 1.0000
59.4400 641.0000 1.0000
59.4500 592.0000 1.0000
59.4600 612.0000 1.0000
59.4700 598.0000 1.0000
59.4800 601.0000 1.0000
59.4900 602.0000 1.0000
59.5000 627.0000 1.0000
59.5100 604.0000 1.0000
59.5200 594.0000 1.0000
59.5300 620.0000 1.0000
59.5400 631.0000 1.0000
59.5500 659.0000 1.0000
59.5600 692.0000 1.0000
59.5700 633.0000 1.0000
59.5800 668.0000 1.0000
59.5900 635.0000 1.0000
59.6000 650.0000 1.0000
59.6100 612.0000 1.0000
59.6200 620.0000 1.0000
59.6300 611.0000 1.0000
59.6400 627.0000 1.0000
59.6500 623.0000 1.0000
59.6600 578.0000 1.0000
59.6700 583.0000 1.0000
59.6800 629.0000 1.0000
59.6900 643.0000 1.0000
59.7000 592.0000 1.0000
59.7100 609.0000 1.0000
59.7200 615.0000 1.0000
59.7300 634.0000 1.0000
59.7400 629.0000 1.0000
59.7500 612.0000 1.0000
59.7600 665.0000 1.0000
59.7700 624.0000 1.0000
59.7800 634.0000 1.0000
59.7900 634.0000 1.0000
59.8000 650.0000 1.0000
59.8100 636.0000 1.0000
59.8200 602.0000 1.0000
59.8300 612.0000 1.0000
59.8400 635.0000 1.0000
59.8500 643.0000 1.0000
59.8600 661.0000 1.0000
59.8700 615.0000 1.0000
59.8800 641.0000 1.0000
59.8900 602.0000 1.0000
59.9000 591.0000 1.0000
59.9100 599.0000 1.0000
59.9200 602.0000 1.0000
59.9300 576.0000 1.0000
59.9400 584.0000 1.0000
59.9500 637.0000 1.0000
59.9600 650.0000 1.0000
59.9700 618.0000 1.0000
59.9800 608.0000 1.0000
59.9900 634.0000 1.0000
60.0000 628.0000 1.0000
60.0100 660.0000 1.0000
60.0200 615.0000 1.0000
60.0300 607.0000 1.0000
60.0400 632.0000 1.0000
60.0500 617.0000 1.0000
60.0600 660.0000 1.0000
60.0700 598.0000 1.0000
60.0800 609.0000 1.0000
60.0900 600.0000 1.0000
60.1000 597.0000 1.0000
60.1100 608.0000 1.0000
60.1200 618.0000 1.0000
60.1300 643.0000 1.0000
60.1400 608.0000 1.0000
60.1500 598.0000 1.0000
60.1600 594.0000 1.0000
60.1700 594.0000 1.0000
60.1800 585.0000 1.0000
60.1900 609.0000 1.0000
60.2000 612.0000 1.0000
60.2100 604.0000 1.0000
60.2200 610.0000 1.0000
60.2300 640.0000 1.0000
60.2400 591.0000 1.0000
60.2500 651.0000 1.0000
60.2600 606.0000 1.0000
60.2700 625.0000 1.0000
60.2800 608.0000 1.0000
60.2900 608.0000 1.0000
60.3000 616.0000 1.0000
60.3100 620.0000 1.0000
60.3200 630.0000 1.0000
60.3300 629.0000 1.0000
60.3400 616.0000 1.0000
60.3500 648.0000 1.0000
60.3600 617.0000 1.0000
60.3700 592.0000 1.0000
60.3800 633.0000 1.0000
60.3900 609.0000 1.0000
60.4000 626.0000 1.0000
60.4100 631.0000 1.0000
60.4200 616.0000 1.0000
60.4300 649.0000 1.0000
60.4400 616.0000 1.0000
60.4500 601.0000 1.0000
60.4600 588.0000 1.0000
60.4700 623.0000 1.0000
60.4800 610.0000 1.0000
60.4900 626.0000 1.0000
60.5000 630.0000 1.0000
60.5100 627.0000 1.0000
60.5200 596.0000 1.0000
60.5300 609.0000 1.0000
60.5400 582.0000 1.0000
60.5500 647.0000 1.0000
60.5600 601.0000 1.0000
60.5700 617.0000 1.0000
60.5800 622.0000 1.0000
60.5900 607.0000 1.0000
60.6000 619.0000 1.0000
60.6100 616.0000 1.0000
60.6200 608.0000 1.0000
60.6300 614.0000 1.0000
60.6400 609.0000 1.0000
60.6500 593.0000 1.0000
60.6600 614.0000 1.0000
60.6700 612.0000 1.0000
60.6800 612.0000 1.0000
60.6900 615.0000 1.0000
60.7000 611.0000 1.0000
60.7100 643.0000 1.0000
60.7200 593.0000 1.0000
60.7300 614.0000 1.0000
60.7400 608.0000 1.0000
60.7500 662.0000 1.0000
60.7600 598.0000 1.0000
60.7700 620.0000 1.0000
60.7800 580.0000 1.0000
60.7900 620.0000 1.0000
60.8000 620.0000 1.0000
60.8100 667.0000 1.0000
60.8200 637.0000 1.0000
60.8300 638.0000 1.0000
60.8400 631.0000 1.0000
60.8500 616.0000 1.0000
60.8600 600.0000 1.0000
60.8700 632.0000 1.0000
60.8800 608.0000 1.0000
60.8900 632.0000 1.0000
60.9000 621.0000 1.0000
60.9100 639.0000 1.0000
60.9200 661.0000 1.0000
60.9300 638.0000 1.0000
60.9400 644.0000 1.0000
60.9500 644.0000 1.0000
60.9600 677.0000 1.0000
60.9700 631.0000 1.0000
60.9800 600.0000 1.0000
60.9900 623.0000 1.0000
61.0000 633.0000 1.0000
61.0100 590.0000 1.0000
61.0200 635.0000 1.0000
61.0300 639.0000 1.0000
61.0400 591.0000 1.0000
61.0500 613.0000 1.0000
61.0600 622.0000 1.0000
61.0700 624.0000 1.0000
61.0800 609.0000 1.0000
61.0900 599.0000 1.0000
61.1000 586.0000 1.0000
61.1100 632.0000 1.0000
61.1200 634.0000 1.0000
61.1300 642.0000 1.0000
61.1400 597.0000 1.0000
61.1500 583.0000 1.0000
61.1600 597.0000 1.0000
61.1700 593.0000 1.0000
61.1800 617.0000 1.0000
61.1900 642.0000 1.0000
61.2000 598.0000 1.0000
61.2100 600.0000 1.0000
61.2200 627.0000 1.0000
61.2300 637.0000 1.0000
61.2400 601.0000 1.0000
61.2500 656.0000 1.0000
61.2600 658.0000 1.0000
61.2700 655.0000 1.0000
61.2800 624.0000 1.0000
61.2900 636.0000 1.0000
61.3000 651.0000 1.0000
61.3100 633.0000 1.0000
61.3200 602.0000 1.0000
61.3300 616.0000 1.0000
61.3400 629.0000 1.0000
61.3500 650.0000 1.0000
61.3600 636.0000 1.0000
61.3700 600.0000 1.0000
61.3800 637.0000 1.0000
61.3900 635.0000 1.0000
61.4000 638.0000 1.0000
61.4100 627.0000 1.0000
61.4200 631.0000 1.0000
61.4300 642.0000 1.0000
61.4400 618.0000 1.0000
61.4500 617.0000 1.0000
61.4600 629.0000 1.0000
61.4700 634.0000 1.0000
61.4800 602.0000 1.0000
61.4900 616.0000 1.0000
61.5000 612.0000 1.0000
61.5100 606.0000 1.0000
61.5200 626.0000 1.0000
61.5300 651.0000 1.0000
61.5400 626.0000 1.0000
61.5500 649.0000 1.0000
61.5600 659.0000 1.0000
61.5700 612.0000 1.0000
61.5800 638.0000 1.0000
61.5900 633.0000 1.0000
61.6000 634.0000 1.0000
61.6100 669.0000 1.0000
61.6200 651.0000 1.0000
61.6300 653.0000 1.0000
61.6400 663.0000 1.0000
61.6500 646.0000 1.0000
61.6600 644.0000 1.0000
61.6700 639.0000 1.0000
61.6800 621.0000 1.0000
61.6900 654.0000 1.0000
61.7000 686.0000 1.0000
61.7100 698.0000 1.0000
61.7200 665.0000 1.0000
61.7300 658.0000 1.0000
61.7400 641.0000 1.0000
61.7500 673.0000 1.0000
61.7600 654.0000 1.0000
61.7700 708.0000 1.0000
61.7800 695.0000 1.0000
61.7900 649.0000 1.0000
61.8000 682.0000 1.0000
61.8100 688.0000 1.0000
61.8200 670.0000 1.0000
61.8300 699.0000 1.0000
61.8400 676.0000 1.0000
61.8500 675.0000 1.0000
61.8600 640.0000 1.0000
61.8700 724.0000 1.0000
61.8800 745.0000 1.0000
61.8900 730.0000 1.0000
61.9000 712.0000 1.0000
61.9100 721.0000 1.0000
61.9200 748.0000 1.0000
61.9300 757.0000 1.0000
61.9400 747.0000 1.0000
61.9500 740.0000 1.0000
61.9600 782.0000 1.0000
61.9700 778.0000 1.0000
61.9800 812.0000 1.0000
61.9900 819.0000 1.0000
62.0000 846.0000 1.0000
62.0100 810.0000 1.0000
62.0200 833.0000 1.0000
62.0300 855.0000 1.0000
62.0400 877.0000 1.0000
62.0500 924.0000 1.0000
62.0600 922.0000 1.0000
62.0700 957.0000 1.0000
62.0800 929.0000 1.0000
62.0900 1003.0000 1.0000
62.1000 960.0000 1.0000
62.1100 993.0000 1.0000
62.1200 1048.0000 1.0000
62.1300 1052.0000 1.0000
62.1400 1149.0000 1.0000
62.1500 1175.0000 1.0000
62.1600 1185.0000 1.0000
62.1700 1233.0000 1.0000
62.1800 1262.0000 1.0000
62.1900 1240.0000 1.0000
62.2000 1332.0000 1.0000
62.2100 1370.0000 1.0000
62.2200 1445.0000 1.0000
62.2300 1398.0000 1.0000
62.2400 1493.0000 1.0000
62.2500 1446.0000 1.0000
62.2600 1426.0000 1.0000
62.2700 1483.0000 1.0000
62.2800 1465.0000 1.0000
62.2900 1429.0000 1.0000
62.3000 1399.0000 1.0000
62.3100 1419.0000 1.0000
62.3200 1407.0000 1.0000
62.3300 1454.0000 1.0000
62.3400 1460.0000 1.0000
62.3500 1409.0000 1.0000
62.3600 1402.0000 1.0000
62.3700 1383.0000 1.0000
62.3800 1373.0000 1.0000
62.3900 1369.0000 1.0000
62.4000 1347.0000 1.0000
62.4100 1360.0000 1.0000
62.4200 1341.0000 1.0000
62.4300 1297.0000 1.0000
62.4400 1233.0000 1.0000
62.4500 1221.0000 1.0000
62.4600 1248.0000 1.0000
62.4700 1252.0000 1.0000
62.4800 1163.0000 1.0000
62.4900 1172.0000 1.0000
62.5000 1145.0000 1.0000
62.5100 1104.0000 1.0000
62.5200 1087.0000 1.0000
62.5300 1039.0000 1.0000
62.5400 1040.0000 1.0000
62.5500 1027.0000 1.0000
62.5600 988.0000 1.0000
62.5700 1033.0000 1.0000
62.5800 898.0000 1.0000
62.5900 912.0000 1.0000
62.6000 933.0000 1.0000
62.6100 854.0000 1.0000
62.6200 868.0000 1.0000
62.6300 815.0000 1.0000
62.6400 858.0000 1.0000
62.6500 808.0000 1.0000
62.6600 829.0000 1.0000
62.6700 815.0000 1.0000
62.6800 793.0000 1.0000
62.6900 786.0000 1.0000
62.7000 768.0000 1.0000
62.7100 798.0000 1.0000
62.7200 788.0000 1.0000
62.7300 745.0000 1.0000
62.7400 799.0000 1.0000
62.7500 769.0000 1.0000
62.7600 703.0000 1.0000
62.7700 749.0000 1.0000
62.7800 730.0000 1.0000
62.7900 716.0000 1.0000
62.8000 724.0000 1.0000
62.8100 698.0000 1.0000
62.8200 683.0000 1.0000
62.8300 771.0000 1.0000
62.8400 680.0000 1.0000
62.8500 708.0000 1.0000
62.8600 738.0000 1.0000
62.8700 701.0000 1.0000
62.8800 693.0000 1.0000
62.8900 694.0000 1.0000
62.9000 700.0000 1.0000
62.9100 672.0000 1.0000
62.9200 694.0000 1.0000
62.9300 727.0000 1.0000
62.9400 690.0000 1.0000
62.9500 673.0000 1.0000
62.9600 718.0000 1.0000
62.9700 682.0000 1.0000
62.9800 641.0000 1.0000
62.9900 658.0000 1.0000
63.0000 656.0000 1.0000
63.0100 649.0000 1.0000
63.0200 688.0000 1.0000
63.0300 632.0000 1.0000
63.0400 703.0000 1.0000
63.0500 668.0000 1.0000
63.0600 648.0000 1.0000
63.0700 679.0000 1.0000
63.0800 634.0000 1.0000
63.0900 661.0000 1.0000
63.1000 660.0000 1.0000
63.1100 591.0000 1.0000
63.1200 656.0000 1.0000
63.1300 609.0000 1.0000
63.1400 646.0000 1.0000
63.1500 678.0000 1.0000
63.1600 651.0000 1.0000
63.1700 631.0000 1.0000
63.1800 667.0000 1.0000
63.1900 624.0000 1.0000
63.2000 621.0000 1.0000
63.2100 638.0000 1.0000
63.2200 679.0000 1.0000
63.2300 628.0000 1.0000
63.2400 641.0000 1.0000
63.2500 637.0000 1.0000
63.2600 603.0000 1.0000
63.2700 643.0000 1.0000
63.2800 657.0000 1.0000
63.2900 643.0000 1.0000
63.3000 584.0000 1.0000
63.3100 644.0000 1.0000
63.3200 651.0000 1.0000
63.3300 641.0000 1.0000
63.3400 595.0000 1.0000
63.3500 582.0000 1.0000
63.3600 597.0000 1.0000
63.3700 636.0000 1.0000
63.3800 643.0000 1.0000
63.3900 599.0000 1.0000
63.4000 605.0000 1.0000
63.4100 652.0000 1.0000
63.4200 626.0000 1.0000
63.4300 633.0000 1.0000
63.4400 655.0000 1.0000
63.4500 660.0000 1.0000
63.4600 616.0000 1.0000
63.4700 666.0000 1.0000
63.4800 662.0000 1.0000
63.4900 658.0000 1.0000
63.5000 622.0000 1.0000
63.5100 595.0000 1.0000
63.5200 669.0000 1.0000
63.5300 648.0000 1.0000
63.5400 655.0000 1.0000
63.5500 624.0000 1.0000
63.5600 604.0000 1.0000
63.5700 590.0000 1.0000
63.5800 598.0000 1.0000
63.5900 597.0000 1.0000
63.6000 607.0000 1.0000
63.6100 615.0000 1.0000
63.6200 616.0000 1.0000
63.6300 652.0000 1.0000
63.6400 631.0000 1.0000
63.6500 623.0000 1.0000
63.6600 607.0000 1.0000
63.6700 616.0000 1.0000
63.6800 619.0000 1.0000
63.6900 600.0000 1.0000
63.7000 641.0000 1.0000
63.7100 689.0000 1.0000
63.7200 637.0000 1.0000
63.7300 685.0000 1.0000
63.7400 676.0000 1.0000
63.7500 627.0000 1.0000
63.7600 637.0000 1.0000
63.7700 641.0000 1.0000
63.7800 666.0000 1.0000
63.7900 634.0000 1.0000
63.8000 599.0000 1.0000
63.8100 658.0000 1.0000
63.8200 652.0000 1.0000
63.8300 701.0000 1.0000
63.8400 661.0000 1.0000
63.8500 627.0000 1.0000
63.8600 625.0000 1.0000
63.8700 635.0000 1.0000
63.8800 655.0000 1.0000
63.8900 617.0000 1.0000
63.9000 660.0000 1.0000
63.9100 620.0000 1.0000
63.9200 649.0000 1.0000
63.9300 623.0000 1.0000
63.9400 611.0000 1.0000
63.9500 650.0000 1.0000
63.9600 630.0000 1.0000
63.9700 610.0000 1.0000
63.9800 628.0000 1.0000
63.9900 536.0000 1.0000
64.0000 620.0000 1.0000
64.0100 624.0000 1.0000
64.0200 597.0000 1.0000
64.0300 640.0000 1.0000
64.0400 622.0000 1.0000
64.0500 588.0000 1.0000
64.0600 633.0000 1.0000
64.0700 590.0000 1.0000
64.0800 643.0000 1.0000
64.0900 623.0000 1.0000
64.1000 627.0000 1.0000
64.1100 587.0000 1.0000
64.1200 592.0000 1.0000
64.1300 592.0000 1.0000
64.1400 638.0000 1.0000
64.1500 667.0000 1.0000
64.1600 629.0000 1.0000
64.1700 619.0000 1.0000
64.1800 613.0000 1.0000
64.1900 604.0000 1.0000
64.2000 623.0000 1.0000
64.2100 637.0000 1.0000
64.2200 623.0000 1.0000
64.2300 659.0000 1.0000
64.2400 636.0000 1.0000
64.2500 636.0000 1.0000
64.2600 635.0000 1.0000
64.2700 655.0000 1.0000
64.2800 667.0000 1.0000
64.2900 659.0000 1.0000
64.3000 616.0000 1.0000
64.3100 628.0000 1.0000
64.3200 632.0000 1.0000
64.3300 633.0000 1.0000
64.3400 617.0000 1.0000
64.3500 662.0000 1.0000
64.3600 667.0000 1.0000
64.3700 643.0000 1.0000
64.3800 701.0000 1.0000
64.3900 628.0000 1.0000
64.4000 645.0000 1.0000
64.4100 657.0000 1.0000
64.4200 649.0000 1.0000
64.4300 683.0000 1.0000
64.4400 615.0000 1.0000
64.4500 637.0000 1.0000
64.4600 579.0000 1.0000
64.4700 617.0000 1.0000
64.4800 629.0000 1.0000
64.4900 608.0000 1.0000
64.5000 668.0000 1.0000
64.5100 664.0000 1.0000
64.5200 670.0000 1.0000
64.5300 669.0000 1.0000
64.5400 652.0000 1.0000
64.5500 648.0000 1.0000
64.5600 700.0000 1.0000
64.5700 632.0000 1.0000
64.5800 610.0000 1.0000
64.5900 638.0000 1.0000
64.6000 680.0000 1.0000
64.6100 662.0000 1.0000
64.6200 666.0000 1.0000
64.6300 670.0000 1.0000
64.6400 626.0000 1.0000
64.6500 646.0000 1.0000
64.6600 662.0000 1.0000
64.6700 650.0000 1.0000
64.6800 702.0000 1.0000
64.6900 672.0000 1.0000
64.7000 642.0000 1.0000
64.7100 646.0000 1.0000
64.7200 649.0000 1.0000
64.7300 625.0000 1.0000
64.7400 669.0000 1.0000
64.7500 693.0000 1.0000
64.7600 670.0000 1.0000
64.7700 648.0000 1.0000
64.7800 664.0000 1.0000
64.7900 682.0000 1.0000
64.8000 662.0000 1.0000
64.8100 693.0000 1.0000
64.8200 696.0000 1.0000
64.8300 684.0000 1.0000
64.8400 625.0000 1.0000
64.8500 656.0000 1.0000
64.8600 732.0000 1.0000
64.8700 727.0000 1.0000
64.8800 678.0000 1.0000
64.8900 718.0000 1.0000
64.9000 690.0000 1.0000
64.9100 725.0000 1.0000
64.9200 701.0000 1.0000
64.9300 704.0000 1.0000
64.9400 666.0000 1.0000
64.9500 645.0000 1.0000
64.9600 662.0000 1.0000
64.9700 674.0000 1.0000
64.9800 666.0000 1.0000
64.9900 680.0000 1.0000
65.0000 627.0000 1.0000
65.0100 655.0000 1.0000
65.0200 633.0000 1.0000
65.0300 628.0000 1.0000
65.0400 609.0000 1.0000
65.0500 695.0000 1.0000
65.0600 673.0000 1.0000
65.0700 730.0000 1.0000
65.0800 704.0000 1.0000
65.0900 673.0000 1.0000
65.1000 689.0000 1.0000
65.1100 650.0000 1.0000
65.1200 634.0000 1.0000
65.1300 655.0000 1.0000
65.1400 681.0000 1.0000
65.1500 708.0000 1.0000
65.1600 681.0000 1.0000
65.1700 647.0000 1.0000
65.1800 685.0000 1.0000
65.1900 689.0000 1.0000
65.2000 703.0000 1.0000
65.2100 651.0000 1.0000
65.2200 668.0000 1.0000
65.2300 631.0000 1.0000
65.2400 652.0000 1.0000
65.2500 639.0000 1.0000
65.2600 665.0000 1.0000
65.2700 642.0000 1.0000
65.2800 631.0000 1.0000
65.2900 657.0000 1.0000
65.3000 680.0000 1.0000
65.3100 623.0000 1.0000
65.3200 650.0000 1.0000
65.3300 680.0000 1.0000
65.3400 684.0000 1.0000
65.3500 656.0000 1.0000
65.3600 637.0000 1.0000
65.3700 671.0000 1.0000
65.3800 658.0000 1.0000
65.3900 658.0000 1.0000
65.4000 662.0000 1.0000
65.4100 645.0000 1.0000
65.4200 665.0000 1.0000
65.4300 662.0000 1.0000
65.4400 668.0000 1.0000
65.4500 628.0000 1.0000
65.4600 641.0000 1.0000
65.4700 676.0000 1.0000
65.4800 664.0000 1.0000
65.4900 640.0000 1.0000
65.5000 656.0000 1.0000
65.5100 662.0000 1.0000
65.5200 664.0000 1.0000
65.5300 652.0000 1.0000
65.5400 653.0000 1.0000
65.5500 655.0000 1.0000
65.5600 645.0000 1.0000
65.5700 675.0000 1.0000
65.5800 680.0000 1.0000
65.5900 650.0000 1.0000
65.6000 661.0000 1.0000
65.6100 622.0000 1.0000
65.6200 669.0000 1.0000
65.6300 680.0000 1.0000
65.6400 700.0000 1.0000
65.6500 757.0000 1.0000
65.6600 715.0000 1.0000
65.6700 624.0000 1.0000
65.6800 674.0000 1.0000
65.6900 675.0000 1.0000
65.7000 722.0000 1.0000
65.7100 711.0000 1.0000
65.7200 722.0000 1.0000
65.7300 725.0000 1.0000
65.7400 746.0000 1.0000
65.7500 701.0000 1.0000
65.7600 721.0000 1.0000
65.7700 766.0000 1.0000
65.7800 750.0000 1.0000
65.7900 725.0000 1.0000
65.8000 741.0000 1.0000
65.8100 763.0000 1.0000
65.8200 750.0000 1.0000
65.8300 819.0000 1.0000
65.8400 755.0000 1.0000
65.8500 762.0000 1.0000
65.8600 757.0000 1.0000
65.8700 789.0000 1.0000
65.8800 820.0000 1.0000
65.8900 791.0000 1.0000
65.9000 826.0000 1.0000
65.9100 848.0000 1.0000
65.9200 851.0000 1.0000
65.9300 831.0000 1.0000
65.9400 890.0000 1.0000
65.9500 902.0000 1.0000
65.9600 936.0000 1.0000
65.9700 969.0000 1.0000
65.9800 953.0000 1.0000
65.9900 1021.0000 1.0000
66.0000 1044.0000 1.0000
66.0100 1037.0000 1.0000
66.0200 1084.0000 1.0000
66.0300 1170.0000 1.0000
66.0400 1160.0000 1.0000
66.0500 1189.0000 1.0000
66.0600 1287.0000 1.0000
66.0700 1314.0000 1.0000
66.0800 1449.0000 1.0000
66.0900 1468.0000 1.0000
66.1000 1541.0000 1.0000
66.1100 1622.0000 1.0000
66.1200 1666.0000 1.0000
66.1300 1835.0000 1.0000
66.1400 1921.0000 1.0000
66.1500 1966.0000 1.0000
66.1600 2116.0000 1.0000
66.1700 2263.0000 1.0000
66.1800 2364.0000 1.0000
66.1900 2493.0000 1.0000
66.2000 2609.0000 1.0000
66.2100 2687.0000 1.0000
66.2200 2770.0000 1.0000
66.2300 2782.0000 1.0000
66.2400 2801.0000 1.0000
66.2500 2787.0000 1.0000
66.2600 2818.0000 1.0000
66.2700 2850.0000 1.0000
66.2800 2664.0000 1.0000
66.2900 2604.0000 1.0000
66.3000 2685.0000 1.0000
66.3100 2601.0000 1.0000
66.3200 2467.0000 1.0000
66.3300 2455.0000 1.0000
66.3400 2431.0000 1.0000
66.3500 2391.0000 1.0000
66.3600 2336.0000 1.0000
66.3700 2294.0000 1.0000
66.3800 2383.0000 1.0000
66.3900 2359.0000 1.0000
66.4000 2281.0000 1.0000
66.4100 2256.0000 1.0000
66.4200 2198.0000 1.0000
66.4300 2132.0000 1.0000
66.4400 2098.0000 1.0000
66.4500 1986.0000 1.0000
66.4600 1924.0000 1.0000
66.4700 1897.0000 1.0000
66.4800 1773.0000 1.0000
66.4900 1725.0000 1.0000
66.5000 1628.0000 1.0000
66.5100 1630.0000 1.0000
66.5200 1525.0000 1.0000
66.5300 1446.0000 1.0000
66.5400 1385.0000 1.0000
66.5500 1348.0000 1.0000
66.5600 1255.0000 1.0000
66.5700 1189.0000 1.0000
66.5800 1233.0000 1.0000
66.5900 1155.0000 1.0000
66.6000 1114.0000 1.0000
66.6100 1047.0000 1.0000
66.6200 1047.0000 1.0000
66.6300 1015.0000 1.0000
66.6400 1002.0000 1.0000
66.6500 989.0000 1.0000
66.6600 1030.0000 1.0000
66.6700 930.0000 1.0000
66.6800 913.0000 1.0000
66.6900 850.0000 1.0000
66.7000 879.0000 1.0000
66.7100 852.0000 1.0000
66.7200 830.0000 1.0000
66.7300 827.0000 1.0000
66.7400 841.0000 1.0000
66.7500 813.0000 1.0000
66.7600 767.0000 1.0000
66.7700 740.0000 1.0000
66.7800 751.0000 1.0000
66.7900 761.0000 1.0000
66.8000 702.0000 1.0000
66.8100 729.0000 1.0000
66.8200 753.0000 1.0000
66.8300 739.0000 1.0000
66.8400 750.0000 1.0000
66.8500 719.0000 1.0000
66.8600 756.0000 1.0000
66.8700 718.0000 1.0000
66.8800 714.0000 1.0000
66.8900 699.0000 1.0000
66.9000 706.0000 1.0000
66.9100 691.0000 1.0000
66.9200 683.0000 1.0000
66.9300 670.0000 1.0000
66.9400 647.0000 1.0000
66.9500 652.0000 1.0000
66.9600 653.0000 1.0000
66.9700 639.0000 1.0000
66.9800 658.0000 1.0000
66.9900 672.0000 1.0000
67.0000 633.0000 1.0000
67.0100 650.0000 1.0000
67.0200 665.0000 1.0000
67.0300 590.0000 1.0000
67.0400 633.0000 1.0000
67.0500 629.0000 1.0000
67.0600 638.0000 1.0000
67.0700 661.0000 1.0000
67.0800 635.0000 1.0000
67.0900 627.0000 1.0000
67.1000 590.0000 1.0000
67.1100 632.0000 1.0000
67.1200 611.0000 1.0000
67.1300 601.0000 1.0000
67.1400 638.0000 1.0000
67.1500 662.0000 1.0000
67.1600 637.0000 1.0000
67.1700 638.0000 1.0000
67.1800 604.0000 1.0000
67.1900 610.0000 1.0000
67.2000 647.0000 1.0000
67.2100 629.0000 1.0000
67.2200 541.0000 1.0000
67.2300 595.0000 1.0000
67.2400 628.0000 1.0000
67.2500 631.0000 1.0000
67.2600 597.0000 1.0000
67.2700 660.0000 1.0000
67.2800 615.0000 1.0000
67.2900 581.0000 1.0000
67.3000 616.0000 1.0000
67.3100 634.0000 1.0000
67.3200 609.0000 1.0000
67.3300 671.0000 1.0000
67.3400 581.0000 1.0000
67.3500 630.0000 1.0000
67.3600 562.0000 1.0000
67.3700 582.0000 1.0000
67.3800 574.0000 1.0000
67.3900 603.0000 1.0000
67.4000 631.0000 1.0000
67.4100 565.0000 1.0000
67.4200 606.0000 1.0000
67.4300 580.0000 1.0000
67.4400 596.0000 1.0000
67.4500 604.0000 1.0000
67.4600 588.0000 1.0000
67.4700 626.0000 1.0000
67.4800 632.0000 1.0000
67.4900 590.0000 1.0000
67.5000 584.0000 1.0000
67.5100 590.0000 1.0000
67.5200 594.0000 1.0000
67.5300 585.0000 1.0000
67.5400 627.0000 1.0000
67.5500 595.0000 1.0000
67.5600 604.0000 1.0000
67.5700 612.0000 1.0000
67.5800 568.0000 1.0000
67.5900 593.0000 1.0000
67.6000 607.0000 1.0000
67.6100 575.0000 1.0000
67.6200 591.0000 1.0000
67.6300 595.0000 1.0000
67.6400 597.0000 1.0000
67.6500 599.0000 1.0000
67.6600 564.0000 1.0000
67.6700 559.0000 1.0000
67.6800 595.0000 1.0000
67.6900 591.0000 1.0000
67.7000 583.0000 1.0000
67.7100 589.0000 1.0000
67.7200 590.0000 1.0000
67.7300 599.0000 1.0000
67.7400 598.0000 1.0000
67.7500 574.0000 1.0000
67.7600 552.0000 1.0000
67.7700 629.0000 1.0000
67.7800 609.0000 1.0000
67.7900 583.0000 1.0000
67.8000 578.0000 1.0000
67.8100 595.0000 1.0000
67.8200 562.0000 1.0000
67.8300 579.0000 1.0000
67.8400 539.0000 1.0000
67.8500 564.0000 1.0000
67.8600 572.0000 1.0000
67.8700 548.0000 1.0000
67.8800 598.0000 1.0000
67.8900 583.0000 1.0000
67.9000 584.0000 1.0000
67.9100 575.0000 1.0000
67.9200 553.0000 1.0000
67.9300 579.0000 1.0000
67.9400 572.0000 1.0000
67.9500 588.0000 1.0000
67.9600 566.0000 1.0000
67.9700 566.0000 1.0000
67.9800 568.0000 1.0000
67.9900 553.0000 1.0000
68.0000 573.0000 1.0000
68.0100 599.0000 1.0000
68.0200 569.0000 1.0000
68.0300 565.0000 1.0000
68.0400 592.0000 1.0000
68.0500 561.0000 1.0000
68.0600 580.0000 1.0000
68.0700 566.0000 1.0000
68.0800 599.0000 1.0000
68.0900 552.0000 1.0000
68.1000 582.0000 1.0000
68.1100 544.0000 1.0000
68.1200 543.0000 1.0000
68.1300 562.0000 1.0000
68.1400 573.0000 1.0000
68.1500 547.0000 1.0000
68.1600 589.0000 1.0000
68.1700 556.0000 1.0000
68.1800 594.0000 1.0000
68.1900 597.0000 1.0000
68.2000 583.0000 1.0000
68.2100 624.0000 1.0000
68.2200 567.0000 1.0000
68.2300 558.0000 1.0000
68.2400 555.0000 1.0000
68.2500 598.0000 1.0000
68.2600 568.0000 1.0000
68.2700 562.0000 1.0000
68.2800 557.0000 1.0000
68.2900 587.0000 1.0000
68.3000 570.0000 1.0000
68.3100 554.0000 1.0000
68.3200 582.0000 1.0000
68.3300 572.0000 1.0000
68.3400 549.0000 1.0000
68.3500 592.0000 1.0000
68.3600 596.0000 1.0000
68.3700 570.0000 1.0000
68.3800 548.0000 1.0000
68.3900 559.0000 1.0000
68.4000 557.0000 1.0000
68.4100 546.0000 1.0000
68.4200 576.0000 1.0000
68.4300 557.0000 1.0000
68.4400 566.0000 1.0000
68.4500 574.0000 1.0000
68.4600 591.0000 1.0000
68.4700 574.0000 1.0000
68.4800 571.0000 1.0000
68.4900 555.0000 1.0000
68.5000 567.0000 1.0000
68.5100 562.0000 1.0000
68.5200 541.0000 1.0000
68.5300 548.0000 1.0000
68.5400 578.0000 1.0000
68.5500 597.0000 1.0000
68.5600 560.0000 1.0000
68.5700 534.0000 1.0000
68.5800 573.0000 1.0000
68.5900 539.0000 1.0000
68.6000 543.0000 1.0000
68.6100 564.0000 1.0000
68.6200 560.0000 1.0000
68.6300 567.0000 1.0000
68.6400 547.0000 1.0000
68.6500 585.0000 1.0000
68.6600 590.0000 1.0000
68.6700 554.0000 1.0000
68.6800 555.0000 1.0000
68.6900 537.0000 1.0000
68.7000 534.0000 1.0000
68.7100 519.0000 1.0000
68.7200 545.0000 1.0000
68.7300 570.0000 1.0000
68.7400 555.0000 1.0000
68.7500 538.0000 1.0000
68.7600 567.0000 1.0000
68.7700 573.0000 1.0000
68.7800 539.0000 1.0000
68.7900 547.0000 1.0000
68.8000 535.0000 1.0000
68.8100 559.0000 1.0000
68.8200 550.0000 1.0000
68.8300 550.0000 1.0000
68.8400 561.0000 1.0000
68.8500 556.0000 1.0000
68.8600 566.0000 1.0000
68.8700 551.0000 1.0000
68.8800 543.0000 1.0000
68.8900 527.0000 1.0000
68.9000 517.0000 1.0000
68.9100 535.0000 1.0000
68.9200 516.0000 1.0000
68.9300 564.0000 1.0000
68.9400 558.0000 1.0000
68.9500 549.0000 1.0000
68.9600 537.0000 1.0000
68.9700 553.0000 1.0000
68.9800 565.0000 1.0000
68.9900 536.0000 1.0000
69.0000 533.0000 1.0000
69.0100 532.0000 1.0000
69.0200 542.0000 1.0000
69.0300 539.0000 1.0000
69.0400 576.0000 1.0000
69.0500 549.0000 1.0000
69.0600 565.0000 1.0000
69.0700 574.0000 1.0000
69.0800 583.0000 1.0000
69.0900 609.0000 1.0000
69.1000 581.0000 1.0000
69.1100 602.0000 1.0000
69.1200 558.0000 1.0000
69.1300 542.0000 1.0000
69.1400 540.0000 1.0000
69.1500 526.0000 1.0000
69.1600 549.0000 1.0000
69.1700 533.0000 1.0000
69.1800 565.0000 1.0000
69.1900 542.0000 1.0000
69.2000 506.0000 1.0000
69.2100 540.0000 1.0000
69.2200 623.0000 1.0000
69.2300 609.0000 1.0000
69.2400 581.0000 1.0000
69.2500 590.0000 1.0000
69.2600 524.0000 1.0000
69.2700 527.0000 1.0000
69.2800 568.0000 1.0000
69.2900 527.0000 1.0000
69.3000 557.0000 1.0000
69.3100 564.0000 1.0000
69.3200 571.0000 1.0000
69.3300 539.0000 1.0000
69.3400 556.0000 1.0000
69.3500 585.0000 1.0000
69.3600 598.0000 1.0000
69.3700 554.0000 1.0000
69.3800 571.0000 1.0000
69.3900 554.0000 1.0000
69.4000 535.0000 1.0000
69.4100 551.0000 1.0000
69.4200 563.0000 1.0000
69.4300 577.0000 1.0000
69.4400 550.0000 1.0000
69.4500 527.0000 1.0000
69.4600 568.0000 1.0000
69.4700 577.0000 1.0000
69.4800 563.0000 1.0000
69.4900 555.0000 1.0000
69.5000 582.0000 1.0000
69.5100 536.0000 1.0000
69.5200 530.0000 1.0000
69.5300 601.0000 1.0000
69.5400 529.0000 1.0000
69.5500 543.0000 1.0000
69.5600 533.0000 1.0000
69.5700 538.0000 1.0000
69.5800 573.0000 1.0000
69.5900 547.0000 1.0000
69.6000 534.0000 1.0000
69.6100 561.0000 1.0000
69.6200 555.0000 1.0000
69.6300 544.0000 1.0000
69.6400 547.0000 1.0000
69.6500 585.0000 1.0000
69.6600 582.0000 1.0000
69.6700 592.0000 1.0000
69.6800 561.0000 1.0000
69.6900 596.0000 1.0000
69.7000 537.0000 1.0000
69.7100 584.0000 1.0000
69.7200 543.0000 1.0000
69.7300 570.0000 1.0000
69.7400 555.0000 1.0000
69.7500 548.0000 1.0000
69.7600 543.0000 1.0000
69.7700 565.0000 1.0000
69.7800 555.0000 1.0000
69.7900 553.0000 1.0000
69.8000 569.0000 1.0000
69.8100 541.0000 1.0000
69.8200 563.0000 1.0000
69.8300 549.0000 1.0000
69.8400 554.0000 1.0000
69.8500 547.0000 1.0000
69.8600 506.0000 1.0000
69.8700 528.0000 1.0000
69.8800 533.0000 1.0000
69.8900 533.0000 1.0000
69.9000 528.0000 1.0000
69.9100 532.0000 1.0000
69.9200 558.0000 1.0000
69.9300 563.0000 1.0000
69.9400 537.0000 1.0000
69.9500 537.0000 1.0000
69.9600 536.0000 1.0000
69.9700 536.0000 1.0000
69.9800 520.0000 1.0000
69.9900 545.0000 1.0000
70.0000 587.0000 1.0000
*RAS_INT_END
*RAS_TEMPERATURE_START
*RAS_TEMPERATURE_END
*RAS_DATA_END
