*RAS_DATA_START
*RAS_HEADER_START
*DISP_FMT_X "%.2f"
*DISP_FMT_Y "%.0f"
*DISP_FULLSCALE "13960.0000000000"
*DISP_LINE_COLOR "255.0000000000"
*DISP_LINE_STYLE "0.0000000000"
*DISP_LINE_WIDTH "0.2500000000"
*DISP_NOTE "測定データ-5"
*DISP_OFFSET_Y "0.0000000000"
*DISP_PEAKSEARCH_UNIT_Y "cps"
*DISP_RANGE_BOTTOM "0.0000000000"
*DISP_RANGE_LEFT "20.0000000000"
*DISP_RANGE_LOGCUTOFF "0.0100000000"
*DISP_RANGE_RIGHT "70.0000000000"
*DISP_RANGE_TOP "13960.0000000000"
*DISP_SCALE_MODE_Y "0.0000000000"
*DISP_TAB_NAME "2θ/θ"
*DISP_TITLE_Y "強度"
*DISP_UNIT_Y "cps"
*DISP_WINDOW_NAME "MSG_MACROENGINE"
*FILE_COMMENT " "
*FILE_MD5 ""
*FILE_MEMO " "
*FILE_OPERATOR "Administrator"
*FILE_SAMPLE " "
*FILE_TYPE "RAS_RAW"
*FILE_USERGROUP "システムマネージャ"
*FILE_VERSION "1.0000000000"
*HW_ATTACHMENT_ID "ATT0025"
*HW_ATTACHMENT_NAME "標準|Standard"
*HW_COUNTER_ID-0 "CUT0025"
*HW_COUNTER_ID-1 "CUT0020"
*HW_COUNTER_ID-2 "CUT0020"
*HW_COUNTER_ID-3 "CSL0021"
*HW_COUNTER_ID-4 "CMC0021"
*HW_COUNTER_NAME-0 "D/teX Ultra|D/teX Ultra"
*HW_COUNTER_NAME-1 "None|None"
*HW_COUNTER_NAME-2 "None|None"
*HW_COUNTER_NAME-3 "BBM|BBM"
*HW_COUNTER_NAME-4 "検出器モノクロメータ|Detector monochromator"
*HW_COUNTER_SELECT_NAME "D/teX Ultra|D/teX Ultra"
*HW_GONIOMETER_ID "GON0023"
*HW_GONIOMETER_NAME "SmartLab|SmartLab"
*HW_GONIOMETER_RADIUS-0 "90.0"
*HW_GONIOMETER_RADIUS-1 "114.0"
*HW_GONIOMETER_RADIUS-2 "190.0"
*HW_GONIOMETER_RADIUS-3 "300.0"
*HW_GONIOMETER_RADIUS-4 "187.0"
*HW_GONIOMETER_RADIUS-5 "300.0"
*HW_GONIOMETER_RADIUS-6 "113.0"
*HW_GONIOMETER_RADIUS-7 "331.0"
*HW_I_OPT_ID-0 "CBO0021"
*HW_I_OPT_ID-1 "ICR0023"
*HW_I_OPT_ID-2 "ISL0021"
*HW_I_OPT_ID-3 "ISO0021"
*HW_I_OPT_ID-4 "IAD0021"
*HW_I_OPT_ID-5 "IPR0001"
*HW_I_OPT_NAME-0 "CBOユニット|CBO unit"
*HW_I_OPT_NAME-1 "標準入射光学ユニット|Standard incident optical unit"
*HW_I_OPT_NAME-2 "標準入射スリットボックス|Standard incident slit box"
*HW_I_OPT_NAME-3 "入射平行スリット|Incident parallel slit"
*HW_I_OPT_NAME-4 "長手制限スリット|Length limiting slit"
*HW_I_OPT_NAME-5 "None|None"
*HW_R_ATTENUATER_AUTOMODE "0"
*HW_R_OPT_ID-0 "RSS0021"
*HW_R_OPT_ID-1 "RCR0023"
*HW_R_OPT_ID-2 "RSO0021"
*HW_R_OPT_ID-3 "RRS0021"
*HW_R_OPT_ID-4 "ATN0021"
*HW_R_OPT_ID-5 "RFL0021"
*HW_R_OPT_ID-6 "RAD0021"
*HW_R_OPT_NAME-0 "標準受光スリットボックス1|Standard receiving slit box # 1"
*HW_R_OPT_NAME-1 "標準受光光学ユニット1|Standard receiving unit # 1"
*HW_R_OPT_NAME-2 "標準受光光学ユニット2|Standard receiving optical unit # 2"
*HW_R_OPT_NAME-3 "標準受光スリットボックス2|Standard receiving slit box # 2"
*HW_R_OPT_NAME-4 "標準アッテネータ|Standard Attenuator"
*HW_R_OPT_NAME-5 "Cu Kβ|Cu K-beta"
*HW_R_OPT_NAME-6 "調整用受光スリット|Alignment receiving slit"
*HW_SAMPLE_HOLDER_ID "SMP0023"
*HW_SAMPLE_HOLDER_NAME "標準Zステージ|Standard Z stage"
*HW_XG_CURRENT_MAX "50"
*HW_XG_CURRENT_MIN "2"
*HW_XG_CURRENT_RESOLUTION "1"
*HW_XG_CURRENT_UNIT "mA"
*HW_XG_FOCUS "1mm x 10mm"
*HW_XG_FOCUS_TYPE "Normal"
*HW_XG_ID ""
*HW_XG_NAME "3kW 封入管(ID:1200)|3kW Sealed tube(ID:1200)"
*HW_XG_TARGET_ATOMIC_NUMBER "29.0000000000"
*HW_XG_TARGET_NAME "Cu"
*HW_XG_TYPE "Hermetic"
*HW_XG_VOLTAGE_MAX "60"
*HW_XG_VOLTAGE_MIN "20"
*HW_XG_VOLTAGE_RESOLUTION "1"
*HW_XG_VOLTAGE_UNIT "kV"
*HW_XG_WATT_MAX "1.500"
*HW_XG_WATT_UNIT "kW"
*HW_XG_WAVE_LENGTH_ALPHA1 "1.540593"
*HW_XG_WAVE_LENGTH_ALPHA2 "1.544414"
*HW_XG_WAVE_LENGTH_BETA "1.392250"
*MEAS_COND_AXIS_NAME-0 "2θ/θ"
*MEAS_COND_AXIS_NAME-1 "2θ"
*MEAS_COND_AXIS_NAME-2 "ω"
*MEAS_COND_AXIS_NAME-3 "Z"
*MEAS_COND_AXIS_NAME-4 "2θ/ω"
*MEAS_COND_AXIS_NAME-5 "θs"
*MEAS_COND_AXIS_NAME-6 "θd"
*MEAS_COND_AXIS_NAME-7 "Ts"
*MEAS_COND_AXIS_NAME-8 "CBO選択スリット"
*MEAS_COND_AXIS_NAME-9 "M"
*MEAS_COND_AXIS_NAME-10 "入射平行スリット"
*MEAS_COND_AXIS_NAME-11 "入射スリット"
*MEAS_COND_AXIS_NAME-12 ""
*MEAS_COND_AXIS_NAME-13 "Zs"
*MEAS_COND_AXIS_NAME-14 "入射光学素子"
*MEAS_COND_AXIS_NAME-15 "長手制限スリット"
*MEAS_COND_AXIS_NAME-16 "センタースリット"
*MEAS_COND_AXIS_NAME-17 "フィルター"
*MEAS_COND_AXIS_NAME-18 "受光スリット1"
*MEAS_COND_AXIS_NAME-19 "受光スリット2"
*MEAS_COND_AXIS_NAME-20 "受光光学素子"
*MEAS_COND_AXIS_NAME-21 "受光平行スリット"
*MEAS_COND_AXIS_NAME-22 "調整用受光スリット"
*MEAS_COND_AXIS_NAME-23 ""
*MEAS_COND_AXIS_NAME-24 ""
*MEAS_COND_AXIS_NAME-25 "Zd"
*MEAS_COND_AXIS_NAME-26 "アッテネータ"
*MEAS_COND_AXIS_NAME-27 "検出器モノクロメータ"
*MEAS_COND_AXIS_NAME-28 "モノクロメータスリット"
*MEAS_COND_AXIS_NAME-29 "プライマリビーム"
*MEAS_COND_AXIS_NAME-30 "PHA"
*MEAS_COND_AXIS_NAME_INTERNAL-0 "TwoThetaTheta"
*MEAS_COND_AXIS_NAME_INTERNAL-1 "TwoTheta"
*MEAS_COND_AXIS_NAME_INTERNAL-2 "Omega"
*MEAS_COND_AXIS_NAME_INTERNAL-3 "Z"
*MEAS_COND_AXIS_NAME_INTERNAL-4 "TwoThetaOmega"
*MEAS_COND_AXIS_NAME_INTERNAL-5 "ThetaS"
*MEAS_COND_AXIS_NAME_INTERNAL-6 "ThetaD"
*MEAS_COND_AXIS_NAME_INTERNAL-7 "Ts"
*MEAS_COND_AXIS_NAME_INTERNAL-8 "CBO"
*MEAS_COND_AXIS_NAME_INTERNAL-9 "CBO-M"
*MEAS_COND_AXIS_NAME_INTERNAL-10 "IncidentSollerSlit"
*MEAS_COND_AXIS_NAME_INTERNAL-11 "IncidentSlitBox"
*MEAS_COND_AXIS_NAME_INTERNAL-12 "IncidentSlitBox-_Axis"
*MEAS_COND_AXIS_NAME_INTERNAL-13 "Zs"
*MEAS_COND_AXIS_NAME_INTERNAL-14 "IncidentMonochromator"
*MEAS_COND_AXIS_NAME_INTERNAL-15 "IncidentAxdSlit"
*MEAS_COND_AXIS_NAME_INTERNAL-16 "CenterSlit"
*MEAS_COND_AXIS_NAME_INTERNAL-17 "Filter"
*MEAS_COND_AXIS_NAME_INTERNAL-18 "ReceivingSlitBox1"
*MEAS_COND_AXIS_NAME_INTERNAL-19 "ReceivingSlitBox2"
*MEAS_COND_AXIS_NAME_INTERNAL-20 "ReceivingOptics"
*MEAS_COND_AXIS_NAME_INTERNAL-21 "ReceivingSollerSlit"
*MEAS_COND_AXIS_NAME_INTERNAL-22 "ReceivingAxdSlit"
*MEAS_COND_AXIS_NAME_INTERNAL-23 "ReceivingSlitBox1-_Axis"
*MEAS_COND_AXIS_NAME_INTERNAL-24 "ReceivingSlitBox2-_Axis"
*MEAS_COND_AXIS_NAME_INTERNAL-25 "ReceivingSlitBox2-Zd"
*MEAS_COND_AXIS_NAME_INTERNAL-26 "Attenuator"
*MEAS_COND_AXIS_NAME_INTERNAL-27 "CounterMonochromator"
*MEAS_COND_AXIS_NAME_INTERNAL-28 "CounterSlit"
*MEAS_COND_AXIS_NAME_INTERNAL-29 "IncidentPrimary"
*MEAS_COND_AXIS_NAME_INTERNAL-30 "PHA"
*MEAS_COND_AXIS_NAME_MAGICNO-0 "83951616.0000000000"
*MEAS_COND_AXIS_NAME_MAGICNO-1 "268632064.0000000000"
*MEAS_COND_AXIS_NAME_MAGICNO-2 "268500992.0000000000"
*MEAS_COND_AXIS_NAME_MAGICNO-3 "285278208.0000000000"
*MEAS_COND_AXIS_NAME_MAGICNO-4 "83951616.0000000000"
*MEAS_COND_AXIS_NAME_MAGICNO-5 "131072.0000000000"
*MEAS_COND_AXIS_NAME_MAGICNO-6 "131072.0000000000"
*MEAS_COND_AXIS_NAME_MAGICNO-7 "318898176.0000000000"
*MEAS_COND_AXIS_NAME_MAGICNO-8 "20971521.0000000000"
*MEAS_COND_AXIS_NAME_MAGICNO-9 "285343744.0000000000"
*MEAS_COND_AXIS_NAME_MAGICNO-10 "20971521.0000000000"
*MEAS_COND_AXIS_NAME_MAGICNO-11 "22020097.0000000000"
*MEAS_COND_AXIS_NAME_MAGICNO-12 "25165824.0000000000"
*MEAS_COND_AXIS_NAME_MAGICNO-13 "318898176.0000000000"
*MEAS_COND_AXIS_NAME_MAGICNO-14 "1.0000000000"
*MEAS_COND_AXIS_NAME_MAGICNO-15 "20971521.0000000000"
*MEAS_COND_AXIS_NAME_MAGICNO-16 "20971521.0000000000"
*MEAS_COND_AXIS_NAME_MAGICNO-17 "20971521.0000000000"
*MEAS_COND_AXIS_NAME_MAGICNO-18 "23068673.0000000000"
*MEAS_COND_AXIS_NAME_MAGICNO-19 "23068673.0000000000"
*MEAS_COND_AXIS_NAME_MAGICNO-20 "20971521.0000000000"
*MEAS_COND_AXIS_NAME_MAGICNO-21 "20971521.0000000000"
*MEAS_COND_AXIS_NAME_MAGICNO-22 "20971521.0000000000"
*MEAS_COND_AXIS_NAME_MAGICNO-23 "25165824.0000000000"
*MEAS_COND_AXIS_NAME_MAGICNO-24 "25165824.0000000000"
*MEAS_COND_AXIS_NAME_MAGICNO-25 "285343744.0000000000"
*MEAS_COND_AXIS_NAME_MAGICNO-26 "17301505.0000000000"
*MEAS_COND_AXIS_NAME_MAGICNO-27 "20971521.0000000000"
*MEAS_COND_AXIS_NAME_MAGICNO-28 "20971521.0000000000"
*MEAS_COND_AXIS_NAME_MAGICNO-29 "20971521.0000000000"
*MEAS_COND_AXIS_NAME_MAGICNO-30 "0.0000000000"
*MEAS_COND_AXIS_OFFSET-0 "-"
*MEAS_COND_AXIS_OFFSET-1 "-0.1081000000"
*MEAS_COND_AXIS_OFFSET-2 "0.3758000000"
*MEAS_COND_AXIS_OFFSET-3 "-"
*MEAS_COND_AXIS_OFFSET-4 "-"
*MEAS_COND_AXIS_OFFSET-5 "0.3758000000"
*MEAS_COND_AXIS_OFFSET-6 "-0.4839000000"
*MEAS_COND_AXIS_OFFSET-7 "-"
*MEAS_COND_AXIS_OFFSET-8 "-"
*MEAS_COND_AXIS_OFFSET-9 "-"
*MEAS_COND_AXIS_OFFSET-10 "-"
*MEAS_COND_AXIS_OFFSET-11 "-"
*MEAS_COND_AXIS_OFFSET-12 "-"
*MEAS_COND_AXIS_OFFSET-13 "-"
*MEAS_COND_AXIS_OFFSET-14 "-"
*MEAS_COND_AXIS_OFFSET-15 "-"
*MEAS_COND_AXIS_OFFSET-16 "-"
*MEAS_COND_AXIS_OFFSET-17 "-"
*MEAS_COND_AXIS_OFFSET-18 "-"
*MEAS_COND_AXIS_OFFSET-19 "-"
*MEAS_COND_AXIS_OFFSET-20 "-"
*MEAS_COND_AXIS_OFFSET-21 "-"
*MEAS_COND_AXIS_OFFSET-22 "-"
*MEAS_COND_AXIS_OFFSET-23 "-"
*MEAS_COND_AXIS_OFFSET-24 "-"
*MEAS_COND_AXIS_OFFSET-25 "-"
*MEAS_COND_AXIS_OFFSET-26 "-"
*MEAS_COND_AXIS_OFFSET-27 "-"
*MEAS_COND_AXIS_OFFSET-28 "-"
*MEAS_COND_AXIS_OFFSET-29 "-"
*MEAS_COND_AXIS_OFFSET-30 "-"
*MEAS_COND_AXIS_POSITION-0 "0.0000000000"
*MEAS_COND_AXIS_POSITION-1 "0.0000000000"
*MEAS_COND_AXIS_POSITION-2 "0.0000000000"
*MEAS_COND_AXIS_POSITION-3 "-0.5500000000"
*MEAS_COND_AXIS_POSITION-4 "0.0000000000"
*MEAS_COND_AXIS_POSITION-5 "0.0000000000"
*MEAS_COND_AXIS_POSITION-6 "0.0000000000"
*MEAS_COND_AXIS_POSITION-7 "-0.4278800000"
*MEAS_COND_AXIS_POSITION-8 "BB"
*MEAS_COND_AXIS_POSITION-9 "0.0000000000"
*MEAS_COND_AXIS_POSITION-10 "Soller_slit_5.0deg"
*MEAS_COND_AXIS_POSITION-11 "2/3deg"
*MEAS_COND_AXIS_POSITION-12 "2.2088000000"
*MEAS_COND_AXIS_POSITION-13 "-0.4140600000"
*MEAS_COND_AXIS_POSITION-14 "0.0000000000"
*MEAS_COND_AXIS_POSITION-15 "10.0mm"
*MEAS_COND_AXIS_POSITION-16 "None"
*MEAS_COND_AXIS_POSITION-17 "Cu_K-beta"
*MEAS_COND_AXIS_POSITION-18 "13.000mm"
*MEAS_COND_AXIS_POSITION-19 "13.000mm"
*MEAS_COND_AXIS_POSITION-20 "No_unit"
*MEAS_COND_AXIS_POSITION-21 "Soller_slit_5.0deg"
*MEAS_COND_AXIS_POSITION-22 "None"
*MEAS_COND_AXIS_POSITION-23 "13.0000000000"
*MEAS_COND_AXIS_POSITION-24 "13.0000000000"
*MEAS_COND_AXIS_POSITION-25 "0.0109400000"
*MEAS_COND_AXIS_POSITION-26 "Open"
*MEAS_COND_AXIS_POSITION-27 "None"
*MEAS_COND_AXIS_POSITION-28 "None"
*MEAS_COND_AXIS_POSITION-29 "None"
*MEAS_COND_AXIS_POSITION-30 "38.0000000000"
*MEAS_COND_AXIS_UNIT-0 "deg"
*MEAS_COND_AXIS_UNIT-1 "deg"
*MEAS_COND_AXIS_UNIT-2 "deg"
*MEAS_COND_AXIS_UNIT-3 "mm"
*MEAS_COND_AXIS_UNIT-4 "deg"
*MEAS_COND_AXIS_UNIT-5 "deg"
*MEAS_COND_AXIS_UNIT-6 "deg"
*MEAS_COND_AXIS_UNIT-7 "mm"
*MEAS_COND_AXIS_UNIT-8 ""
*MEAS_COND_AXIS_UNIT-9 "pulse"
*MEAS_COND_AXIS_UNIT-10 ""
*MEAS_COND_AXIS_UNIT-11 ""
*MEAS_COND_AXIS_UNIT-12 "mm"
*MEAS_COND_AXIS_UNIT-13 "mm"
*MEAS_COND_AXIS_UNIT-14 ""
*MEAS_COND_AXIS_UNIT-15 ""
*MEAS_COND_AXIS_UNIT-16 ""
*MEAS_COND_AXIS_UNIT-17 ""
*MEAS_COND_AXIS_UNIT-18 ""
*MEAS_COND_AXIS_UNIT-19 ""
*MEAS_COND_AXIS_UNIT-20 ""
*MEAS_COND_AXIS_UNIT-21 ""
*MEAS_COND_AXIS_UNIT-22 ""
*MEAS_COND_AXIS_UNIT-23 "mm"
*MEAS_COND_AXIS_UNIT-24 "mm"
*MEAS_COND_AXIS_UNIT-25 "mm"
*MEAS_COND_AXIS_UNIT-26 ""
*MEAS_COND_AXIS_UNIT-27 ""
*MEAS_COND_AXIS_UNIT-28 ""
*MEAS_COND_AXIS_UNIT-29 ""
*MEAS_COND_AXIS_UNIT-30 "div"
*MEAS_COND_COUNTER_CNTLOSS_CORR "0.0000000000"
*MEAS_COND_COUNTER_PHABASE "38.0000000000"
*MEAS_COND_COUNTER_PHAWINDOW "16.0000000000"
*MEAS_COND_COUNTER_PHA_UNIT "div"
*MEAS_COND_COUNTER_TAUDIFF "30.0000000000"
*MEAS_COND_COUNTER_TAUINT "0.0000000000"
*MEAS_COND_IRRADIATION_MODE "OFF"
*MEAS_COND_IRRADIATION_WIDTH ""
*MEAS_COND_OPT_ATTR "集中法"
*MEAS_COND_OPT_NAME "@集中法"
*MEAS_COND_UNSYMMETRIC_MODE "OFF"
*MEAS_COND_XG_CURRENT "30.0000000000"
*MEAS_COND_XG_VOLTAGE "40.0000000000"
*MEAS_COND_XG_WAVE_TYPE "Ka"
*MEAS_DATA_COUNT "5001.0000000000"
*MEAS_SCAN_AXIS_X "2θ/θ"
*MEAS_SCAN_AXIS_X_INTERNAL "TwoThetaTheta"
*MEAS_SCAN_END_TIME "07/14/21 15:47:08"
*MEAS_SCAN_MODE "CONTINUOUS"
*MEAS_SCAN_MONITOR "0"
*MEAS_SCAN_RESOLUTION_X "0.0002"
*MEAS_SCAN_SPEED "1.0"
*MEAS_SCAN_SPEED_UNIT "deg/min"
*MEAS_SCAN_START "20.0000000000"
*MEAS_SCAN_START_TIME "07/14/21 14:54:14"
*MEAS_SCAN_STEP "0.0100000000"
*MEAS_SCAN_STOP "70.0000000000"
*MEAS_SCAN_UNIT_X "deg"
*MEAS_SCAN_UNIT_Y "counts"
*RAS_HEADER_END
*RAS_INT_START
20.0000 1509.0000 1.0000
20.0100 1472.0000 1.0000
20.0200 1509.0000 1.0000
20.0300 1429.0000 1.0000
20.0400 1453.0000 1.0000
20.0500 1516.0000 1.0000
20.0600 1441.0000 1.0000
20.0700 1487.0000 1.0000
20.0800 1552.0000 1.0000
20.0900 1444.0000 1.0000
20.1000 1521.0000 1.0000
20.1100 1495.0000 1.0000
20.1200 1463.0000 1.0000
20.1300 1507.0000 1.0000
20.1400 1495.0000 1.0000
20.1500 1496.0000 1.0000
20.1600 1534.0000 1.0000
20.1700 1544.0000 1.0000
20.1800 1488.0000 1.0000
20.1900 1523.0000 1.0000
20.2000 1511.0000 1.0000
20.2100 1537.0000 1.0000
20.2200 1532.0000 1.0000
20.2300 1543.0000 1.0000
20.2400 1542.0000 1.0000
20.2500 1507.0000 1.0000
20.2600 1467.0000 1.0000
20.2700 1497.0000 1.0000
20.2800 1544.0000 1.0000
20.2900 1512.0000 1.0000
20.3000 1479.0000 1.0000
20.3100 1446.0000 1.0000
20.3200 1508.0000 1.0000
20.3300 1524.0000 1.0000
20.3400 1530.0000 1.0000
20.3500 1528.0000 1.0000
20.3600 1463.0000 1.0000
20.3700 1538.0000 1.0000
20.3800 1583.0000 1.0000
20.3900 1551.0000 1.0000
20.4000 1545.0000 1.0000
20.4100 1448.0000 1.0000
20.4200 1524.0000 1.0000
20.4300 1559.0000 1.0000
20.4400 1552.0000 1.0000
20.4500 1515.0000 1.0000
20.4600 1456.0000 1.0000
20.4700 1520.0000 1.0000
20.4800 1533.0000 1.0000
20.4900 1506.0000 1.0000
20.5000 1485.0000 1.0000
20.5100 1568.0000 1.0000
20.5200 1522.0000 1.0000
20.5300 1533.0000 1.0000
20.5400 1506.0000 1.0000
20.5500 1520.0000 1.0000
20.5600 1545.0000 1.0000
20.5700 1514.0000 1.0000
20.5800 1511.0000 1.0000
20.5900 1486.0000 1.0000
20.6000 1497.0000 1.0000
20.6100 1505.0000 1.0000
20.6200 1539.0000 1.0000
20.6300 1497.0000 1.0000
20.6400 1525.0000 1.0000
20.6500 1526.0000 1.0000
20.6600 1517.0000 1.0000
20.6700 1522.0000 1.0000
20.6800 1547.0000 1.0000
20.6900 1572.0000 1.0000
20.7000 1482.0000 1.0000
20.7100 1519.0000 1.0000
20.7200 1531.0000 1.0000
20.7300 1530.0000 1.0000
20.7400 1544.0000 1.0000
20.7500 1530.0000 1.0000
20.7600 1488.0000 1.0000
20.7700 1514.0000 1.0000
20.7800 1573.0000 1.0000
20.7900 1473.0000 1.0000
20.8000 1556.0000 1.0000
20.8100 1508.0000 1.0000
20.8200 1506.0000 1.0000
20.8300 1492.0000 1.0000
20.8400 1518.0000 1.0000
20.8500 1503.0000 1.0000
20.8600 1515.0000 1.0000
20.8700 1560.0000 1.0000
20.8800 1506.0000 1.0000
20.8900 1528.0000 1.0000
20.9000 1567.0000 1.0000
20.9100 1529.0000 1.0000
20.9200 1512.0000 1.0000
20.9300 1519.0000 1.0000
20.9400 1489.0000 1.0000
20.9500 1531.0000 1.0000
20.9600 1545.0000 1.0000
20.9700 1566.0000 1.0000
20.9800 1611.0000 1.0000
20.9900 1487.0000 1.0000
21.0000 1476.0000 1.0000
21.0100 1577.0000 1.0000
21.0200 1547.0000 1.0000
21.0300 1493.0000 1.0000
21.0400 1520.0000 1.0000
21.0500 1524.0000 1.0000
21.0600 1492.0000 1.0000
21.0700 1505.0000 1.0000
21.0800 1489.0000 1.0000
21.0900 1520.0000 1.0000
21.1000 1504.0000 1.0000
21.1100 1543.0000 1.0000
21.1200 1553.0000 1.0000
21.1300 1482.0000 1.0000
21.1400 1534.0000 1.0000
21.1500 1494.0000 1.0000
21.1600 1504.0000 1.0000
21.1700 1552.0000 1.0000
21.1800 1540.0000 1.0000
21.1900 1545.0000 1.0000
21.2000 1533.0000 1.0000
21.2100 1556.0000 1.0000
21.2200 1578.0000 1.0000
21.2300 1505.0000 1.0000
21.2400 1481.0000 1.0000
21.2500 1574.0000 1.0000
21.2600 1505.0000 1.0000
21.2700 1537.0000 1.0000
21.2800 1537.0000 1.0000
21.2900 1562.0000 1.0000
21.3000 1529.0000 1.0000
21.3100 1566.0000 1.0000
21.3200 1510.0000 1.0000
21.3300 1571.0000 1.0000
21.3400 1561.0000 1.0000
21.3500 1544.0000 1.0000
21.3600 1511.0000 1.0000
21.3700 1500.0000 1.0000
21.3800 1549.0000 1.0000
21.3900 1522.0000 1.0000
21.4000 1467.0000 1.0000
21.4100 1552.0000 1.0000
21.4200 1558.0000 1.0000
21.4300 1503.0000 1.0000
21.4400 1479.0000 1.0000
21.4500 1547.0000 1.0000
21.4600 1568.0000 1.0000
21.4700 1511.0000 1.0000
21.4800 1473.0000 1.0000
21.4900 1471.0000 1.0000
21.5000 1497.0000 1.0000
21.5100 1528.0000 1.0000
21.5200 1506.0000 1.0000
21.5300 1540.0000 1.0000
21.5400 1514.0000 1.0000
21.5500 1503.0000 1.0000
21.5600 1464.0000 1.0000
21.5700 1550.0000 1.0000
21.5800 1457.0000 1.0000
21.5900 1487.0000 1.0000
21.6000 1515.0000 1.0000
21.6100 1517.0000 1.0000
21.6200 1514.0000 1.0000
21.6300 1574.0000 1.0000
21.6400 1574.0000 1.0000
21.6500 1493.0000 1.0000
21.6600 1571.0000 1.0000
21.6700 1504.0000 1.0000
21.6800 1565.0000 1.0000
21.6900 1522.0000 1.0000
21.7000 1511.0000 1.0000
21.7100 1458.0000 1.0000
21.7200 1494.0000 1.0000
21.7300 1562.0000 1.0000
21.7400 1519.0000 1.0000
21.7500 1564.0000 1.0000
21.7600 1516.0000 1.0000
21.7700 1527.0000 1.0000
21.7800 1568.0000 1.0000
21.7900 1529.0000 1.0000
21.8000 1524.0000 1.0000
21.8100 1549.0000 1.0000
21.8200 1559.0000 1.0000
21.8300 1546.0000 1.0000
21.8400 1522.0000 1.0000
21.8500 1519.0000 1.0000
21.8600 1534.0000 1.0000
21.8700 1555.0000 1.0000
21.8800 1521.0000 1.0000
21.8900 1528.0000 1.0000
21.9000 1572.0000 1.0000
21.9100 1508.0000 1.0000
21.9200 1582.0000 1.0000
21.9300 1589.0000 1.0000
21.9400 1553.0000 1.0000
21.9500 1584.0000 1.0000
21.9600 1518.0000 1.0000
21.9700 1502.0000 1.0000
21.9800 1553.0000 1.0000
21.9900 1574.0000 1.0000
22.0000 1534.0000 1.0000
22.0100 1524.0000 1.0000
22.0200 1475.0000 1.0000
22.0300 1517.0000 1.0000
22.0400 1560.0000 1.0000
22.0500 1555.0000 1.0000
22.0600 1499.0000 1.0000
22.0700 1524.0000 1.0000
22.0800 1548.0000 1.0000
22.0900 1494.0000 1.0000
22.1000 1523.0000 1.0000
22.1100 1654.0000 1.0000
22.1200 1528.0000 1.0000
22.1300 1531.0000 1.0000
22.1400 1554.0000 1.0000
22.1500 1573.0000 1.0000
22.1600 1488.0000 1.0000
22.1700 1555.0000 1.0000
22.1800 1548.0000 1.0000
22.1900 1615.0000 1.0000
22.2000 1618.0000 1.0000
22.2100 1519.0000 1.0000
22.2200 1493.0000 1.0000
22.2300 1514.0000 1.0000
22.2400 1537.0000 1.0000
22.2500 1602.0000 1.0000
22.2600 1579.0000 1.0000
22.2700 1572.0000 1.0000
22.2800 1532.0000 1.0000
22.2900 1570.0000 1.0000
22.3000 1572.0000 1.0000
22.3100 1546.0000 1.0000
22.3200 1477.0000 1.0000
22.3300 1478.0000 1.0000
22.3400 1518.0000 1.0000
22.3500 1601.0000 1.0000
22.3600 1557.0000 1.0000
22.3700 1534.0000 1.0000
22.3800 1542.0000 1.0000
22.3900 1536.0000 1.0000
22.4000 1560.0000 1.0000
22.4100 1501.0000 1.0000
22.4200 1550.0000 1.0000
22.4300 1562.0000 1.0000
22.4400 1582.0000 1.0000
22.4500 1525.0000 1.0000
22.4600 1579.0000 1.0000
22.4700 1560.0000 1.0000
22.4800 1573.0000 1.0000
22.4900 1566.0000 1.0000
22.5000 1553.0000 1.0000
22.5100 1585.0000 1.0000
22.5200 1561.0000 1.0000
22.5300 1632.0000 1.0000
22.5400 1565.0000 1.0000
22.5500 1545.0000 1.0000
22.5600 1548.0000 1.0000
22.5700 1575.0000 1.0000
22.5800 1556.0000 1.0000
22.5900 1584.0000 1.0000
22.6000 1547.0000 1.0000
22.6100 1565.0000 1.0000
22.6200 1635.0000 1.0000
22.6300 1456.0000 1.0000
22.6400 1546.0000 1.0000
22.6500 1590.0000 1.0000
22.6600 1562.0000 1.0000
22.6700 1516.0000 1.0000
22.6800 1558.0000 1.0000
22.6900 1550.0000 1.0000
22.7000 1561.0000 1.0000
22.7100 1567.0000 1.0000
22.7200 1492.0000 1.0000
22.7300 1560.0000 1.0000
22.7400 1620.0000 1.0000
22.7500 1533.0000 1.0000
22.7600 1562.0000 1.0000
22.7700 1617.0000 1.0000
22.7800 1596.0000 1.0000
22.7900 1617.0000 1.0000
22.8000 1642.0000 1.0000
22.8100 1605.0000 1.0000
22.8200 1561.0000 1.0000
22.8300 1550.0000 1.0000
22.8400 1631.0000 1.0000
22.8500 1563.0000 1.0000
22.8600 1606.0000 1.0000
22.8700 1637.0000 1.0000
22.8800 1497.0000 1.0000
22.8900 1512.0000 1.0000
22.9000 1552.0000 1.0000
22.9100 1572.0000 1.0000
22.9200 1598.0000 1.0000
22.9300 1560.0000 1.0000
22.9400 1582.0000 1.0000
22.9500 1559.0000 1.0000
22.9600 1588.0000 1.0000
22.9700 1584.0000 1.0000
22.9800 1528.0000 1.0000
22.9900 1515.0000 1.0000
23.0000 1531.0000 1.0000
23.0100 1575.0000 1.0000
23.0200 1596.0000 1.0000
23.0300 1602.0000 1.0000
23.0400 1590.0000 1.0000
23.0500 1601.0000 1.0000
23.0600 1574.0000 1.0000
23.0700 1654.0000 1.0000
23.0800 1590.0000 1.0000
23.0900 1638.0000 1.0000
23.1000 1549.0000 1.0000
23.1100 1546.0000 1.0000
23.1200 1564.0000 1.0000
23.1300 1603.0000 1.0000
23.1400 1620.0000 1.0000
23.1500 1598.0000 1.0000
23.1600 1590.0000 1.0000
23.1700 1612.0000 1.0000
23.1800 1593.0000 1.0000
23.1900 1617.0000 1.0000
23.2000 1495.0000 1.0000
23.2100 1555.0000 1.0000
23.2200 1550.0000 1.0000
23.2300 1605.0000 1.0000
23.2400 1571.0000 1.0000
23.2500 1486.0000 1.0000
23.2600 1579.0000 1.0000
23.2700 1508.0000 1.0000
23.2800 1550.0000 1.0000
23.2900 1664.0000 1.0000
23.3000 1585.0000 1.0000
23.3100 1587.0000 1.0000
23.3200 1547.0000 1.0000
23.3300 1485.0000 1.0000
23.3400 1562.0000 1.0000
23.3500 1572.0000 1.0000
23.3600 1580.0000 1.0000
23.3700 1535.0000 1.0000
23.3800 1615.0000 1.0000
23.3900 1502.0000 1.0000
23.4000 1588.0000 1.0000
23.4100 1518.0000 1.0000
23.4200 1587.0000 1.0000
23.4300 1617.0000 1.0000
23.4400 1521.0000 1.0000
23.4500 1546.0000 1.0000
23.4600 1575.0000 1.0000
23.4700 1514.0000 1.0000
23.4800 1582.0000 1.0000
23.4900 1558.0000 1.0000
23.5000 1535.0000 1.0000
23.5100 1580.0000 1.0000
23.5200 1598.0000 1.0000
23.5300 1538.0000 1.0000
23.5400 1554.0000 1.0000
23.5500 1624.0000 1.0000
23.5600 1573.0000 1.0000
23.5700 1570.0000 1.0000
23.5800 1579.0000 1.0000
23.5900 1559.0000 1.0000
23.6000 1567.0000 1.0000
23.6100 1601.0000 1.0000
23.6200 1632.0000 1.0000
23.6300 1669.0000 1.0000
23.6400 1592.0000 1.0000
23.6500 1568.0000 1.0000
23.6600 1585.0000 1.0000
23.6700 1526.0000 1.0000
23.6800 1597.0000 1.0000
23.6900 1591.0000 1.0000
23.7000 1589.0000 1.0000
23.7100 1568.0000 1.0000
23.7200 1604.0000 1.0000
23.7300 1554.0000 1.0000
23.7400 1573.0000 1.0000
23.7500 1553.0000 1.0000
23.7600 1594.0000 1.0000
23.7700 1609.0000 1.0000
23.7800 1596.0000 1.0000
23.7900 1604.0000 1.0000
23.8000 1562.0000 1.0000
23.8100 1497.0000 1.0000
23.8200 1578.0000 1.0000
23.8300 1578.0000 1.0000
23.8400 1599.0000 1.0000
23.8500 1671.0000 1.0000
23.8600 1588.0000 1.0000
23.8700 1632.0000 1.0000
23.8800 1553.0000 1.0000
23.8900 1628.0000 1.0000
23.9000 1560.0000 1.0000
23.9100 1589.0000 1.0000
23.9200 1609.0000 1.0000
23.9300 1653.0000 1.0000
23.9400 1593.0000 1.0000
23.9500 1548.0000 1.0000
23.9600 1606.0000 1.0000
23.9700 1593.0000 1.0000
23.9800 1564.0000 1.0000
23.9900 1630.0000 1.0000
24.0000 1590.0000 1.0000
24.0100 1559.0000 1.0000
24.0200 1617.0000 1.0000
24.0300 1589.0000 1.0000
24.0400 1573.0000 1.0000
24.0500 1566.0000 1.0000
24.0600 1603.0000 1.0000
24.0700 1641.0000 1.0000
24.0800 1598.0000 1.0000
24.0900 1580.0000 1.0000
24.1000 1625.0000 1.0000
24.1100 1627.0000 1.0000
24.1200 1631.0000 1.0000
24.1300 1596.0000 1.0000
24.1400 1573.0000 1.0000
24.1500 1576.0000 1.0000
24.1600 1610.0000 1.0000
24.1700 1567.0000 1.0000
24.1800 1666.0000 1.0000
24.1900 1604.0000 1.0000
24.2000 1606.0000 1.0000
24.2100 1663.0000 1.0000
24.2200 1641.0000 1.0000
24.2300 1615.0000 1.0000
24.2400 1596.0000 1.0000
24.2500 1610.0000 1.0000
24.2600 1598.0000 1.0000
24.2700 1553.0000 1.0000
24.2800 1593.0000 1.0000
24.2900 1595.0000 1.0000
24.3000 1637.0000 1.0000
24.3100 1616.0000 1.0000
24.3200 1613.0000 1.0000
24.3300 1592.0000 1.0000
24.3400 1598.0000 1.0000
24.3500 1584.0000 1.0000
24.3600 1641.0000 1.0000
24.3700 1583.0000 1.0000
24.3800 1589.0000 1.0000
24.3900 1549.0000 1.0000
24.4000 1589.0000 1.0000
24.4100 1657.0000 1.0000
24.4200 1621.0000 1.0000
24.4300 1600.0000 1.0000
24.4400 1608.0000 1.0000
24.4500 1629.0000 1.0000
24.4600 1580.0000 1.0000
24.4700 1642.0000 1.0000
24.4800 1525.0000 1.0000
24.4900 1625.0000 1.0000
24.5000 1662.0000 1.0000
24.5100 1620.0000 1.0000
24.5200 1634.0000 1.0000
24.5300 1640.0000 1.0000
24.5400 1674.0000 1.0000
24.5500 1523.0000 1.0000
24.5600 1572.0000 1.0000
24.5700 1656.0000 1.0000
24.5800 1649.0000 1.0000
24.5900 1664.0000 1.0000
24.6000 1618.0000 1.0000
24.6100 1660.0000 1.0000
24.6200 1580.0000 1.0000
24.6300 1661.0000 1.0000
24.6400 1679.0000 1.0000
24.6500 1704.0000 1.0000
24.6600 1690.0000 1.0000
24.6700 1636.0000 1.0000
24.6800 1588.0000 1.0000
24.6900 1653.0000 1.0000
24.7000 1664.0000 1.0000
24.7100 1685.0000 1.0000
24.7200 1665.0000 1.0000
24.7300 1600.0000 1.0000
24.7400 1700.0000 1.0000
24.7500 1638.0000 1.0000
24.7600 1627.0000 1.0000
24.7700 1670.0000 1.0000
24.7800 1671.0000 1.0000
24.7900 1586.0000 1.0000
24.8000 1647.0000 1.0000
24.8100 1606.0000 1.0000
24.8200 1615.0000 1.0000
24.8300 1652.0000 1.0000
24.8400 1624.0000 1.0000
24.8500 1621.0000 1.0000
24.8600 1642.0000 1.0000
24.8700 1621.0000 1.0000
24.8800 1644.0000 1.0000
24.8900 1628.0000 1.0000
24.9000 1618.0000 1.0000
24.9100 1601.0000 1.0000
24.9200 1668.0000 1.0000
24.9300 1676.0000 1.0000
24.9400 1713.0000 1.0000
24.9500 1685.0000 1.0000
24.9600 1708.0000 1.0000
24.9700 1619.0000 1.0000
24.9800 1636.0000 1.0000
24.9900 1616.0000 1.0000
25.0000 1663.0000 1.0000
25.0100 1667.0000 1.0000
25.0200 1677.0000 1.0000
25.0300 1716.0000 1.0000
25.0400 1668.0000 1.0000
25.0500 1657.0000 1.0000
25.0600 1748.0000 1.0000
25.0700 1674.0000 1.0000
25.0800 1685.0000 1.0000
25.0900 1691.0000 1.0000
25.1000 1716.0000 1.0000
25.1100 1706.0000 1.0000
25.1200 1682.0000 1.0000
25.1300 1660.0000 1.0000
25.1400 1672.0000 1.0000
25.1500 1709.0000 1.0000
25.1600 1671.0000 1.0000
25.1700 1724.0000 1.0000
25.1800 1657.0000 1.0000
25.1900 1714.0000 1.0000
25.2000 1673.0000 1.0000
25.2100 1672.0000 1.0000
25.2200 1712.0000 1.0000
25.2300 1648.0000 1.0000
25.2400 1666.0000 1.0000
25.2500 1616.0000 1.0000
25.2600 1629.0000 1.0000
25.2700 1663.0000 1.0000
25.2800 1645.0000 1.0000
25.2900 1654.0000 1.0000
25.3000 1709.0000 1.0000
25.3100 1776.0000 1.0000
25.3200 1622.0000 1.0000
25.3300 1664.0000 1.0000
25.3400 1619.0000 1.0000
25.3500 1643.0000 1.0000
25.3600 1642.0000 1.0000
25.3700 1618.0000 1.0000
25.3800 1660.0000 1.0000
25.3900 1675.0000 1.0000
25.4000 1650.0000 1.0000
25.4100 1632.0000 1.0000
25.4200 1666.0000 1.0000
25.4300 1641.0000 1.0000
25.4400 1596.0000 1.0000
25.4500 1672.0000 1.0000
25.4600 1633.0000 1.0000
25.4700 1663.0000 1.0000
25.4800 1620.0000 1.0000
25.4900 1637.0000 1.0000
25.5000 1618.0000 1.0000
25.5100 1660.0000 1.0000
25.5200 1595.0000 1.0000
25.5300 1590.0000 1.0000
25.5400 1615.0000 1.0000
25.5500 1629.0000 1.0000
25.5600 1643.0000 1.0000
25.5700 1606.0000 1.0000
25.5800 1676.0000 1.0000
25.5900 1649.0000 1.0000
25.6000 1701.0000 1.0000
25.6100 1663.0000 1.0000
25.6200 1642.0000 1.0000
25.6300 1686.0000 1.0000
25.6400 1671.0000 1.0000
25.6500 1694.0000 1.0000
25.6600 1659.0000 1.0000
25.6700 1607.0000 1.0000
25.6800 1648.0000 1.0000
25.6900 1642.0000 1.0000
25.7000 1655.0000 1.0000
25.7100 1644.0000 1.0000
25.7200 1676.0000 1.0000
25.7300 1692.0000 1.0000
25.7400 1712.0000 1.0000
25.7500 1708.0000 1.0000
25.7600 1652.0000 1.0000
25.7700 1587.0000 1.0000
25.7800 1660.0000 1.0000
25.7900 1667.0000 1.0000
25.8000 1661.0000 1.0000
25.8100 1697.0000 1.0000
25.8200 1701.0000 1.0000
25.8300 1635.0000 1.0000
25.8400 1715.0000 1.0000
25.8500 1663.0000 1.0000
25.8600 1684.0000 1.0000
25.8700 1593.0000 1.0000
25.8800 1618.0000 1.0000
25.8900 1669.0000 1.0000
25.9000 1677.0000 1.0000
25.9100 1603.0000 1.0000
25.9200 1659.0000 1.0000
25.9300 1613.0000 1.0000
25.9400 1608.0000 1.0000
25.9500 1665.0000 1.0000
25.9600 1631.0000 1.0000
25.9700 1634.0000 1.0000
25.9800 1736.0000 1.0000
25.9900 1657.0000 1.0000
26.0000 1614.0000 1.0000
26.0100 1604.0000 1.0000
26.0200 1655.0000 1.0000
26.0300 1694.0000 1.0000
26.0400 1620.0000 1.0000
26.0500 1610.0000 1.0000
26.0600 1632.0000 1.0000
26.0700 1677.0000 1.0000
26.0800 1631.0000 1.0000
26.0900 1663.0000 1.0000
26.1000 1681.0000 1.0000
26.1100 1638.0000 1.0000
26.1200 1653.0000 1.0000
26.1300 1675.0000 1.0000
26.1400 1681.0000 1.0000
26.1500 1648.0000 1.0000
26.1600 1688.0000 1.0000
26.1700 1646.0000 1.0000
26.1800 1591.0000 1.0000
26.1900 1657.0000 1.0000
26.2000 1710.0000 1.0000
26.2100 1645.0000 1.0000
26.2200 1694.0000 1.0000
26.2300 1686.0000 1.0000
26.2400 1686.0000 1.0000
26.2500 1632.0000 1.0000
26.2600 1644.0000 1.0000
26.2700 1632.0000 1.0000
26.2800 1659.0000 1.0000
26.2900 1693.0000 1.0000
26.3000 1678.0000 1.0000
26.3100 1634.0000 1.0000
26.3200 1755.0000 1.0000
26.3300 1728.0000 1.0000
26.3400 1679.0000 1.0000
26.3500 1683.0000 1.0000
26.3600 1691.0000 1.0000
26.3700 1731.0000 1.0000
26.3800 1721.0000 1.0000
26.3900 1700.0000 1.0000
26.4000 1722.0000 1.0000
26.4100 1697.0000 1.0000
26.4200 1686.0000 1.0000
26.4300 1664.0000 1.0000
26.4400 1722.0000 1.0000
26.4500 1788.0000 1.0000
26.4600 1738.0000 1.0000
26.4700 1700.0000 1.0000
26.4800 1712.0000 1.0000
26.4900 1683.0000 1.0000
26.5000 1731.0000 1.0000
26.5100 1788.0000 1.0000
26.5200 1781.0000 1.0000
26.5300 1778.0000 1.0000
26.5400 1788.0000 1.0000
26.5500 1705.0000 1.0000
26.5600 1789.0000 1.0000
26.5700 1770.0000 1.0000
26.5800 1751.0000 1.0000
26.5900 1751.0000 1.0000
26.6000 1757.0000 1.0000
26.6100 1837.0000 1.0000
26.6200 1777.0000 1.0000
26.6300 1753.0000 1.0000
26.6400 1816.0000 1.0000
26.6500 1746.0000 1.0000
26.6600 1785.0000 1.0000
26.6700 1730.0000 1.0000
26.6800 1771.0000 1.0000
26.6900 1759.0000 1.0000
26.7000 1819.0000 1.0000
26.7100 1838.0000 1.0000
26.7200 1712.0000 1.0000
26.7300 1854.0000 1.0000
26.7400 1826.0000 1.0000
26.7500 1828.0000 1.0000
26.7600 1804.0000 1.0000
26.7700 1798.0000 1.0000
26.7800 1883.0000 1.0000
26.7900 1913.0000 1.0000
26.8000 1898.0000 1.0000
26.8100 1878.0000 1.0000
26.8200 1800.0000 1.0000
26.8300 1865.0000 1.0000
26.8400 1864.0000 1.0000
26.8500 1880.0000 1.0000
26.8600 2009.0000 1.0000
26.8700 2001.0000 1.0000
26.8800 1981.0000 1.0000
26.8900 1973.0000 1.0000
26.9000 1963.0000 1.0000
26.9100 2076.0000 1.0000
26.9200 1999.0000 1.0000
26.9300 2016.0000 1.0000
26.9400 2141.0000 1.0000
26.9500 2128.0000 1.0000
26.9600 2118.0000 1.0000
26.9700 2178.0000 1.0000
26.9800 2246.0000 1.0000
26.9900 2270.0000 1.0000
27.0000 2235.0000 1.0000
27.0100 2330.0000 1.0000
27.0200 2478.0000 1.0000
27.0300 2483.0000 1.0000
27.0400 2559.0000 1.0000
27.0500 2700.0000 1.0000
27.0600 2730.0000 1.0000
27.0700 2863.0000 1.0000
27.0800 2825.0000 1.0000
27.0900 2950.0000 1.0000
27.1000 3036.0000 1.0000
27.1100 3231.0000 1.0000
27.1200 3285.0000 1.0000
27.1300 3431.0000 1.0000
27.1400 3592.0000 1.0000
27.1500 3809.0000 1.0000
27.1600 3984.0000 1.0000
27.1700 4261.0000 1.0000
27.1800 4473.0000 1.0000
27.1900 4596.0000 1.0000
27.2000 4815.0000 1.0000
27.2100 5168.0000 1.0000
27.2200 5365.0000 1.0000
27.2300 5801.0000 1.0000
27.2400 6071.0000 1.0000
27.2500 6252.0000 1.0000
27.2600 6575.0000 1.0000
27.2700 6651.0000 1.0000
27.2800 6980.0000 1.0000
27.2900 6965.0000 1.0000
27.3000 6831.0000 1.0000
27.3100 6808.0000 1.0000
27.3200 6728.0000 1.0000
27.3300 6744.0000 1.0000
27.3400 6496.0000 1.0000
27.3500 6142.0000 1.0000
27.3600 6031.0000 1.0000
27.3700 5777.0000 1.0000
27.3800 5429.0000 1.0000
27.3900 5088.0000 1.0000
27.4000 4827.0000 1.0000
27.4100 4506.0000 1.0000
27.4200 4256.0000 1.0000
27.4300 4109.0000 1.0000
27.4400 3910.0000 1.0000
27.4500 3717.0000 1.0000
27.4600 3564.0000 1.0000
27.4700 3328.0000 1.0000
27.4800 3171.0000 1.0000
27.4900 3144.0000 1.0000
27.5000 3042.0000 1.0000
27.5100 2917.0000 1.0000
27.5200 2736.0000 1.0000
27.5300 2721.0000 1.0000
27.5400 2617.0000 1.0000
27.5500 2547.0000 1.0000
27.5600 2454.0000 1.0000
27.5700 2426.0000 1.0000
27.5800 2306.0000 1.0000
27.5900 2337.0000 1.0000
27.6000 2307.0000 1.0000
27.6100 2195.0000 1.0000
27.6200 2177.0000 1.0000
27.6300 2160.0000 1.0000
27.6400 2120.0000 1.0000
27.6500 2067.0000 1.0000
27.6600 2044.0000 1.0000
27.6700 2079.0000 1.0000
27.6800 2001.0000 1.0000
27.6900 1955.0000 1.0000
27.7000 1993.0000 1.0000
27.7100 2030.0000 1.0000
27.7200 1937.0000 1.0000
27.7300 2007.0000 1.0000
27.7400 1869.0000 1.0000
27.7500 1922.0000 1.0000
27.7600 1868.0000 1.0000
27.7700 1809.0000 1.0000
27.7800 1850.0000 1.0000
27.7900 1872.0000 1.0000
27.8000 1834.0000 1.0000
27.8100 1842.0000 1.0000
27.8200 1778.0000 1.0000
27.8300 1787.0000 1.0000
27.8400 1788.0000 1.0000
27.8500 1793.0000 1.0000
27.8600 1869.0000 1.0000
27.8700 1817.0000 1.0000
27.8800 1829.0000 1.0000
27.8900 1788.0000 1.0000
27.9000 1773.0000 1.0000
27.9100 1753.0000 1.0000
27.9200 1744.0000 1.0000
27.9300 1715.0000 1.0000
27.9400 1783.0000 1.0000
27.9500 1723.0000 1.0000
27.9600 1771.0000 1.0000
27.9700 1695.0000 1.0000
27.9800 1676.0000 1.0000
27.9900 1658.0000 1.0000
28.0000 1670.0000 1.0000
28.0100 1682.0000 1.0000
28.0200 1726.0000 1.0000
28.0300 1686.0000 1.0000
28.0400 1683.0000 1.0000
28.0500 1720.0000 1.0000
28.0600 1659.0000 1.0000
28.0700 1625.0000 1.0000
28.0800 1649.0000 1.0000
28.0900 1637.0000 1.0000
28.1000 1670.0000 1.0000
28.1100 1668.0000 1.0000
28.1200 1661.0000 1.0000
28.1300 1611.0000 1.0000
28.1400 1694.0000 1.0000
28.1500 1668.0000 1.0000
28.1600 1693.0000 1.0000
28.1700 1610.0000 1.0000
28.1800 1633.0000 1.0000
28.1900 1671.0000 1.0000
28.2000 1719.0000 1.0000
28.2100 1593.0000 1.0000
28.2200 1656.0000 1.0000
28.2300 1658.0000 1.0000
28.2400 1602.0000 1.0000
28.2500 1601.0000 1.0000
28.2600 1634.0000 1.0000
28.2700 1636.0000 1.0000
28.2800 1536.0000 1.0000
28.2900 1628.0000 1.0000
28.3000 1626.0000 1.0000
28.3100 1647.0000 1.0000
28.3200 1696.0000 1.0000
28.3300 1659.0000 1.0000
28.3400 1624.0000 1.0000
28.3500 1645.0000 1.0000
28.3600 1619.0000 1.0000
28.3700 1618.0000 1.0000
28.3800 1590.0000 1.0000
28.3900 1668.0000 1.0000
28.4000 1650.0000 1.0000
28.4100 1536.0000 1.0000
28.4200 1587.0000 1.0000
28.4300 1612.0000 1.0000
28.4400 1644.0000 1.0000
28.4500 1627.0000 1.0000
28.4600 1656.0000 1.0000
28.4700 1612.0000 1.0000
28.4800 1575.0000 1.0000
28.4900 1590.0000 1.0000
28.5000 1556.0000 1.0000
28.5100 1549.0000 1.0000
28.5200 1575.0000 1.0000
28.5300 1583.0000 1.0000
28.5400 1640.0000 1.0000
28.5500 1563.0000 1.0000
28.5600 1584.0000 1.0000
28.5700 1613.0000 1.0000
28.5800 1580.0000 1.0000
28.5900 1578.0000 1.0000
28.6000 1595.0000 1.0000
28.6100 1560.0000 1.0000
28.6200 1599.0000 1.0000
28.6300 1542.0000 1.0000
28.6400 1526.0000 1.0000
28.6500 1574.0000 1.0000
28.6600 1558.0000 1.0000
28.6700 1566.0000 1.0000
28.6800 1633.0000 1.0000
28.6900 1568.0000 1.0000
28.7000 1513.0000 1.0000
28.7100 1524.0000 1.0000
28.7200 1502.0000 1.0000
28.7300 1525.0000 1.0000
28.7400 1556.0000 1.0000
28.7500 1553.0000 1.0000
28.7600 1527.0000 1.0000
28.7700 1581.0000 1.0000
28.7800 1631.0000 1.0000
28.7900 1609.0000 1.0000
28.8000 1570.0000 1.0000
28.8100 1551.0000 1.0000
28.8200 1564.0000 1.0000
28.8300 1582.0000 1.0000
28.8400 1538.0000 1.0000
28.8500 1554.0000 1.0000
28.8600 1575.0000 1.0000
28.8700 1605.0000 1.0000
28.8800 1543.0000 1.0000
28.8900 1501.0000 1.0000
28.9000 1455.0000 1.0000
28.9100 1614.0000 1.0000
28.9200 1580.0000 1.0000
28.9300 1550.0000 1.0000
28.9400 1530.0000 1.0000
28.9500 1559.0000 1.0000
28.9600 1556.0000 1.0000
28.9700 1569.0000 1.0000
28.9800 1520.0000 1.0000
28.9900 1578.0000 1.0000
29.0000 1497.0000 1.0000
29.0100 1510.0000 1.0000
29.0200 1486.0000 1.0000
29.0300 1569.0000 1.0000
29.0400 1484.0000 1.0000
29.0500 1474.0000 1.0000
29.0600 1513.0000 1.0000
29.0700 1574.0000 1.0000
29.0800 1507.0000 1.0000
29.0900 1562.0000 1.0000
29.1000 1517.0000 1.0000
29.1100 1512.0000 1.0000
29.1200 1613.0000 1.0000
29.1300 1552.0000 1.0000
29.1400 1529.0000 1.0000
29.1500 1546.0000 1.0000
29.1600 1551.0000 1.0000
29.1700 1538.0000 1.0000
29.1800 1584.0000 1.0000
29.1900 1522.0000 1.0000
29.2000 1543.0000 1.0000
29.2100 1512.0000 1.0000
29.2200 1516.0000 1.0000
29.2300 1545.0000 1.0000
29.2400 1540.0000 1.0000
29.2500 1503.0000 1.0000
29.2600 1493.0000 1.0000
29.2700 1461.0000 1.0000
29.2800 1479.0000 1.0000
29.2900 1466.0000 1.0000
29.3000 1423.0000 1.0000
29.3100 1469.0000 1.0000
29.3200 1480.0000 1.0000
29.3300 1510.0000 1.0000
29.3400 1523.0000 1.0000
29.3500 1524.0000 1.0000
29.3600 1482.0000 1.0000
29.3700 1524.0000 1.0000
29.3800 1573.0000 1.0000
29.3900 1580.0000 1.0000
29.4000 1494.0000 1.0000
29.4100 1465.0000 1.0000
29.4200 1494.0000 1.0000
29.4300 1472.0000 1.0000
29.4400 1527.0000 1.0000
29.4500 1479.0000 1.0000
29.4600 1508.0000 1.0000
29.4700 1538.0000 1.0000
29.4800 1493.0000 1.0000
29.4900 1521.0000 1.0000
29.5000 1525.0000 1.0000
29.5100 1554.0000 1.0000
29.5200 1523.0000 1.0000
29.5300 1532.0000 1.0000
29.5400 1489.0000 1.0000
29.5500 1548.0000 1.0000
29.5600 1531.0000 1.0000
29.5700 1452.0000 1.0000
29.5800 1496.0000 1.0000
29.5900 1478.0000 1.0000
29.6000 1447.0000 1.0000
29.6100 1486.0000 1.0000
29.6200 1476.0000 1.0000
29.6300 1523.0000 1.0000
29.6400 1509.0000 1.0000
29.6500 1466.0000 1.0000
29.6600 1511.0000 1.0000
29.6700 1495.0000 1.0000
29.6800 1486.0000 1.0000
29.6900 1433.0000 1.0000
29.7000 1463.0000 1.0000
29.7100 1530.0000 1.0000
29.7200 1549.0000 1.0000
29.7300 1491.0000 1.0000
29.7400 1478.0000 1.0000
29.7500 1458.0000 1.0000
29.7600 1489.0000 1.0000
29.7700 1483.0000 1.0000
29.7800 1499.0000 1.0000
29.7900 1511.0000 1.0000
29.8000 1487.0000 1.0000
29.8100 1431.0000 1.0000
29.8200 1452.0000 1.0000
29.8300 1439.0000 1.0000
29.8400 1459.0000 1.0000
29.8500 1453.0000 1.0000
29.8600 1467.0000 1.0000
29.8700 1485.0000 1.0000
29.8800 1488.0000 1.0000
29.8900 1458.0000 1.0000
29.9000 1511.0000 1.0000
29.9100 1515.0000 1.0000
29.9200 1459.0000 1.0000
29.9300 1512.0000 1.0000
29.9400 1494.0000 1.0000
29.9500 1437.0000 1.0000
29.9600 1451.0000 1.0000
29.9700 1445.0000 1.0000
29.9800 1446.0000 1.0000
29.9900 1449.0000 1.0000
30.0000 1473.0000 1.0000
30.0100 1442.0000 1.0000
30.0200 1430.0000 1.0000
30.0300 1507.0000 1.0000
30.0400 1472.0000 1.0000
30.0500 1478.0000 1.0000
30.0600 1525.0000 1.0000
30.0700 1509.0000 1.0000
30.0800 1455.0000 1.0000
30.0900 1458.0000 1.0000
30.1000 1457.0000 1.0000
30.1100 1431.0000 1.0000
30.1200 1399.0000 1.0000
30.1300 1456.0000 1.0000
30.1400 1473.0000 1.0000
30.1500 1449.0000 1.0000
30.1600 1418.0000 1.0000
30.1700 1406.0000 1.0000
30.1800 1422.0000 1.0000
30.1900 1409.0000 1.0000
30.2000 1492.0000 1.0000
30.2100 1446.0000 1.0000
30.2200 1436.0000 1.0000
30.2300 1400.0000 1.0000
30.2400 1380.0000 1.0000
30.2500 1454.0000 1.0000
30.2600 1491.0000 1.0000
30.2700 1493.0000 1.0000
30.2800 1468.0000 1.0000
30.2900 1452.0000 1.0000
30.3000 1471.0000 1.0000
30.3100 1474.0000 1.0000
30.3200 1486.0000 1.0000
30.3300 1405.0000 1.0000
30.3400 1428.0000 1.0000
30.3500 1436.0000 1.0000
30.3600 1492.0000 1.0000
30.3700 1483.0000 1.0000
30.3800 1475.0000 1.0000
30.3900 1505.0000 1.0000
30.4000 1437.0000 1.0000
30.4100 1396.0000 1.0000
30.4200 1374.0000 1.0000
30.4300 1495.0000 1.0000
30.4400 1428.0000 1.0000
30.4500 1432.0000 1.0000
30.4600 1420.0000 1.0000
30.4700 1448.0000 1.0000
30.4800 1339.0000 1.0000
30.4900 1398.0000 1.0000
30.5000 1431.0000 1.0000
30.5100 1438.0000 1.0000
30.5200 1396.0000 1.0000
30.5300 1449.0000 1.0000
30.5400 1399.0000 1.0000
30.5500 1501.0000 1.0000
30.5600 1464.0000 1.0000
30.5700 1422.0000 1.0000
30.5800 1476.0000 1.0000
30.5900 1462.0000 1.0000
30.6000 1491.0000 1.0000
30.6100 1400.0000 1.0000
30.6200 1434.0000 1.0000
30.6300 1478.0000 1.0000
30.6400 1400.0000 1.0000
30.6500 1452.0000 1.0000
30.6600 1451.0000 1.0000
30.6700 1425.0000 1.0000
30.6800 1488.0000 1.0000
30.6900 1401.0000 1.0000
30.7000 1374.0000 1.0000
30.7100 1472.0000 1.0000
30.7200 1424.0000 1.0000
30.7300 1396.0000 1.0000
30.7400 1437.0000 1.0000
30.7500 1430.0000 1.0000
30.7600 1373.0000 1.0000
30.7700 1397.0000 1.0000
30.7800 1415.0000 1.0000
30.7900 1415.0000 1.0000
30.8000 1446.0000 1.0000
30.8100 1467.0000 1.0000
30.8200 1407.0000 1.0000
30.8300 1461.0000 1.0000
30.8400 1419.0000 1.0000
30.8500 1425.0000 1.0000
30.8600 1464.0000 1.0000
30.8700 1424.0000 1.0000
30.8800 1404.0000 1.0000
30.8900 1425.0000 1.0000
30.9000 1352.0000 1.0000
30.9100 1396.0000 1.0000
30.9200 1431.0000 1.0000
30.9300 1431.0000 1.0000
30.9400 1432.0000 1.0000
30.9500 1376.0000 1.0000
30.9600 1388.0000 1.0000
30.9700 1416.0000 1.0000
30.9800 1428.0000 1.0000
30.9900 1437.0000 1.0000
31.0000 1409.0000 1.0000
31.0100 1413.0000 1.0000
31.0200 1457.0000 1.0000
31.0300 1431.0000 1.0000
31.0400 1458.0000 1.0000
31.0500 1400.0000 1.0000
31.0600 1434.0000 1.0000
31.0700 1428.0000 1.0000
31.0800 1429.0000 1.0000
31.0900 1387.0000 1.0000
31.1000 1435.0000 1.0000
31.1100 1404.0000 1.0000
31.1200 1445.0000 1.0000
31.1300 1401.0000 1.0000
31.1400 1458.0000 1.0000
31.1500 1389.0000 1.0000
31.1600 1390.0000 1.0000
31.1700 1427.0000 1.0000
31.1800 1432.0000 1.0000
31.1900 1427.0000 1.0000
31.2000 1427.0000 1.0000
31.2100 1348.0000 1.0000
31.2200 1413.0000 1.0000
31.2300 1424.0000 1.0000
31.2400 1385.0000 1.0000
31.2500 1411.0000 1.0000
31.2600 1362.0000 1.0000
31.2700 1347.0000 1.0000
31.2800 1377.0000 1.0000
31.2900 1407.0000 1.0000
31.3000 1401.0000 1.0000
31.3100 1433.0000 1.0000
31.3200 1365.0000 1.0000
31.3300 1360.0000 1.0000
31.3400 1425.0000 1.0000
31.3500 1420.0000 1.0000
31.3600 1408.0000 1.0000
31.3700 1401.0000 1.0000
31.3800 1383.0000 1.0000
31.3900 1357.0000 1.0000
31.4000 1409.0000 1.0000
31.4100 1360.0000 1.0000
31.4200 1374.0000 1.0000
31.4300 1374.0000 1.0000
31.4400 1392.0000 1.0000
31.4500 1402.0000 1.0000
31.4600 1304.0000 1.0000
31.4700 1382.0000 1.0000
31.4800 1364.0000 1.0000
31.4900 1446.0000 1.0000
31.5000 1391.0000 1.0000
31.5100 1393.0000 1.0000
31.5200 1351.0000 1.0000
31.5300 1352.0000 1.0000
31.5400 1403.0000 1.0000
31.5500 1362.0000 1.0000
31.5600 1353.0000 1.0000
31.5700 1401.0000 1.0000
31.5800 1456.0000 1.0000
31.5900 1399.0000 1.0000
31.6000 1389.0000 1.0000
31.6100 1351.0000 1.0000
31.6200 1359.0000 1.0000
31.6300 1413.0000 1.0000
31.6400 1337.0000 1.0000
31.6500 1352.0000 1.0000
31.6600 1337.0000 1.0000
31.6700 1374.0000 1.0000
31.6800 1390.0000 1.0000
31.6900 1346.0000 1.0000
31.7000 1281.0000 1.0000
31.7100 1358.0000 1.0000
31.7200 1344.0000 1.0000
31.7300 1376.0000 1.0000
31.7400 1384.0000 1.0000
31.7500 1399.0000 1.0000
31.7600 1301.0000 1.0000
31.7700 1324.0000 1.0000
31.7800 1349.0000 1.0000
31.7900 1442.0000 1.0000
31.8000 1398.0000 1.0000
31.8100 1373.0000 1.0000
31.8200 1356.0000 1.0000
31.8300 1331.0000 1.0000
31.8400 1351.0000 1.0000
31.8500 1386.0000 1.0000
31.8600 1462.0000 1.0000
31.8700 1380.0000 1.0000
31.8800 1354.0000 1.0000
31.8900 1394.0000 1.0000
31.9000 1452.0000 1.0000
31.9100 1352.0000 1.0000
31.9200 1389.0000 1.0000
31.9300 1425.0000 1.0000
31.9400 1390.0000 1.0000
31.9500 1437.0000 1.0000
31.9600 1425.0000 1.0000
31.9700 1344.0000 1.0000
31.9800 1383.0000 1.0000
31.9900 1389.0000 1.0000
32.0000 1487.0000 1.0000
32.0100 1414.0000 1.0000
32.0200 1393.0000 1.0000
32.0300 1374.0000 1.0000
32.0400 1385.0000 1.0000
32.0500 1355.0000 1.0000
32.0600 1457.0000 1.0000
32.0700 1415.0000 1.0000
32.0800 1425.0000 1.0000
32.0900 1378.0000 1.0000
32.1000 1308.0000 1.0000
32.1100 1400.0000 1.0000
32.1200 1402.0000 1.0000
32.1300 1412.0000 1.0000
32.1400 1377.0000 1.0000
32.1500 1314.0000 1.0000
32.1600 1362.0000 1.0000
32.1700 1384.0000 1.0000
32.1800 1423.0000 1.0000
32.1900 1366.0000 1.0000
32.2000 1379.0000 1.0000
32.2100 1417.0000 1.0000
32.2200 1391.0000 1.0000
32.2300 1344.0000 1.0000
32.2400 1370.0000 1.0000
32.2500 1296.0000 1.0000
32.2600 1364.0000 1.0000
32.2700 1303.0000 1.0000
32.2800 1359.0000 1.0000
32.2900 1369.0000 1.0000
32.3000 1387.0000 1.0000
32.3100 1348.0000 1.0000
32.3200 1361.0000 1.0000
32.3300 1372.0000 1.0000
32.3400 1347.0000 1.0000
32.3500 1361.0000 1.0000
32.3600 1335.0000 1.0000
32.3700 1296.0000 1.0000
32.3800 1344.0000 1.0000
32.3900 1418.0000 1.0000
32.4000 1335.0000 1.0000
32.4100 1370.0000 1.0000
32.4200 1363.0000 1.0000
32.4300 1357.0000 1.0000
32.4400 1333.0000 1.0000
32.4500 1346.0000 1.0000
32.4600 1358.0000 1.0000
32.4700 1341.0000 1.0000
32.4800 1394.0000 1.0000
32.4900 1331.0000 1.0000
32.5000 1379.0000 1.0000
32.5100 1320.0000 1.0000
32.5200 1352.0000 1.0000
32.5300 1323.0000 1.0000
32.5400 1336.0000 1.0000
32.5500 1315.0000 1.0000
32.5600 1261.0000 1.0000
32.5700 1277.0000 1.0000
32.5800 1358.0000 1.0000
32.5900 1364.0000 1.0000
32.6000 1335.0000 1.0000
32.6100 1319.0000 1.0000
32.6200 1279.0000 1.0000
32.6300 1340.0000 1.0000
32.6400 1266.0000 1.0000
32.6500 1312.0000 1.0000
32.6600 1324.0000 1.0000
32.6700 1329.0000 1.0000
32.6800 1286.0000 1.0000
32.6900 1287.0000 1.0000
32.7000 1279.0000 1.0000
32.7100 1358.0000 1.0000
32.7200 1333.0000 1.0000
32.7300 1315.0000 1.0000
32.7400 1334.0000 1.0000
32.7500 1320.0000 1.0000
32.7600 1322.0000 1.0000
32.7700 1310.0000 1.0000
32.7800 1327.0000 1.0000
32.7900 1300.0000 1.0000
32.8000 1299.0000 1.0000
32.8100 1279.0000 1.0000
32.8200 1278.0000 1.0000
32.8300 1326.0000 1.0000
32.8400 1245.0000 1.0000
32.8500 1271.0000 1.0000
32.8600 1301.0000 1.0000
32.8700 1256.0000 1.0000
32.8800 1302.0000 1.0000
32.8900 1331.0000 1.0000
32.9000 1319.0000 1.0000
32.9100 1296.0000 1.0000
32.9200 1301.0000 1.0000
32.9300 1289.0000 1.0000
32.9400 1315.0000 1.0000
32.9500 1264.0000 1.0000
32.9600 1256.0000 1.0000
32.9700 1295.0000 1.0000
32.9800 1282.0000 1.0000
32.9900 1261.0000 1.0000
33.0000 1312.0000 1.0000
33.0100 1311.0000 1.0000
33.0200 1253.0000 1.0000
33.0300 1287.0000 1.0000
33.0400 1264.0000 1.0000
33.0500 1318.0000 1.0000
33.0600 1297.0000 1.0000
33.0700 1290.0000 1.0000
33.0800 1327.0000 1.0000
33.0900 1243.0000 1.0000
33.1000 1248.0000 1.0000
33.1100 1298.0000 1.0000
33.1200 1332.0000 1.0000
33.1300 1316.0000 1.0000
33.1400 1264.0000 1.0000
33.1500 1276.0000 1.0000
33.1600 1312.0000 1.0000
33.1700 1258.0000 1.0000
33.1800 1309.0000 1.0000
33.1900 1324.0000 1.0000
33.2000 1309.0000 1.0000
33.2100 1331.0000 1.0000
33.2200 1291.0000 1.0000
33.2300 1299.0000 1.0000
33.2400 1245.0000 1.0000
33.2500 1299.0000 1.0000
33.2600 1301.0000 1.0000
33.2700 1287.0000 1.0000
33.2800 1315.0000 1.0000
33.2900 1264.0000 1.0000
33.3000 1325.0000 1.0000
33.3100 1313.0000 1.0000
33.3200 1305.0000 1.0000
33.3300 1289.0000 1.0000
33.3400 1321.0000 1.0000
33.3500 1303.0000 1.0000
33.3600 1270.0000 1.0000
33.3700 1277.0000 1.0000
33.3800 1325.0000 1.0000
33.3900 1295.0000 1.0000
33.4000 1326.0000 1.0000
33.4100 1273.0000 1.0000
33.4200 1312.0000 1.0000
33.4300 1310.0000 1.0000
33.4400 1289.0000 1.0000
33.4500 1321.0000 1.0000
33.4600 1289.0000 1.0000
33.4700 1288.0000 1.0000
33.4800 1241.0000 1.0000
33.4900 1298.0000 1.0000
33.5000 1342.0000 1.0000
33.5100 1320.0000 1.0000
33.5200 1267.0000 1.0000
33.5300 1293.0000 1.0000
33.5400 1295.0000 1.0000
33.5500 1279.0000 1.0000
33.5600 1315.0000 1.0000
33.5700 1316.0000 1.0000
33.5800 1302.0000 1.0000
33.5900 1321.0000 1.0000
33.6000 1289.0000 1.0000
33.6100 1267.0000 1.0000
33.6200 1331.0000 1.0000
33.6300 1316.0000 1.0000
33.6400 1295.0000 1.0000
33.6500 1319.0000 1.0000
33.6600 1305.0000 1.0000
33.6700 1313.0000 1.0000
33.6800 1313.0000 1.0000
33.6900 1321.0000 1.0000
33.7000 1313.0000 1.0000
33.7100 1393.0000 1.0000
33.7200 1336.0000 1.0000
33.7300 1385.0000 1.0000
33.7400 1382.0000 1.0000
33.7500 1383.0000 1.0000
33.7600 1376.0000 1.0000
33.7700 1359.0000 1.0000
33.7800 1282.0000 1.0000
33.7900 1311.0000 1.0000
33.8000 1381.0000 1.0000
33.8100 1374.0000 1.0000
33.8200 1373.0000 1.0000
33.8300 1358.0000 1.0000
33.8400 1347.0000 1.0000
33.8500 1384.0000 1.0000
33.8600 1340.0000 1.0000
33.8700 1374.0000 1.0000
33.8800 1348.0000 1.0000
33.8900 1365.0000 1.0000
33.9000 1336.0000 1.0000
33.9100 1383.0000 1.0000
33.9200 1345.0000 1.0000
33.9300 1359.0000 1.0000
33.9400 1367.0000 1.0000
33.9500 1420.0000 1.0000
33.9600 1394.0000 1.0000
33.9700 1383.0000 1.0000
33.9800 1395.0000 1.0000
33.9900 1479.0000 1.0000
34.0000 1367.0000 1.0000
34.0100 1382.0000 1.0000
34.0200 1487.0000 1.0000
34.0300 1447.0000 1.0000
34.0400 1437.0000 1.0000
34.0500 1419.0000 1.0000
34.0600 1438.0000 1.0000
34.0700 1461.0000 1.0000
34.0800 1442.0000 1.0000
34.0900 1459.0000 1.0000
34.1000 1436.0000 1.0000
34.1100 1471.0000 1.0000
34.1200 1459.0000 1.0000
34.1300 1478.0000 1.0000
34.1400 1511.0000 1.0000
34.1500 1482.0000 1.0000
34.1600 1576.0000 1.0000
34.1700 1540.0000 1.0000
34.1800 1480.0000 1.0000
34.1900 1575.0000 1.0000
34.2000 1569.0000 1.0000
34.2100 1671.0000 1.0000
34.2200 1649.0000 1.0000
34.2300 1701.0000 1.0000
34.2400 1776.0000 1.0000
34.2500 1711.0000 1.0000
34.2600 1696.0000 1.0000
34.2700 1761.0000 1.0000
34.2800 1858.0000 1.0000
34.2900 1857.0000 1.0000
34.3000 1973.0000 1.0000
34.3100 1990.0000 1.0000
34.3200 2016.0000 1.0000
34.3300 2099.0000 1.0000
34.3400 2138.0000 1.0000
34.3500 2265.0000 1.0000
34.3600 2326.0000 1.0000
34.3700 2467.0000 1.0000
34.3800 2511.0000 1.0000
34.3900 2626.0000 1.0000
34.4000 2734.0000 1.0000
34.4100 2926.0000 1.0000
34.4200 3103.0000 1.0000
34.4300 3131.0000 1.0000
34.4400 3264.0000 1.0000
34.4500 3418.0000 1.0000
34.4600 3530.0000 1.0000
34.4700 3546.0000 1.0000
34.4800 3594.0000 1.0000
34.4900 3641.0000 1.0000
34.5000 3631.0000 1.0000
34.5100 3491.0000 1.0000
34.5200 3571.0000 1.0000
34.5300 3407.0000 1.0000
34.5400 3296.0000 1.0000
34.5500 3191.0000 1.0000
34.5600 3146.0000 1.0000
34.5700 3049.0000 1.0000
34.5800 2901.0000 1.0000
34.5900 2779.0000 1.0000
34.6000 2712.0000 1.0000
34.6100 2587.0000 1.0000
34.6200 2498.0000 1.0000
34.6300 2387.0000 1.0000
34.6400 2298.0000 1.0000
34.6500 2213.0000 1.0000
34.6600 2084.0000 1.0000
34.6700 2095.0000 1.0000
34.6800 2004.0000 1.0000
34.6900 1888.0000 1.0000
34.7000 1769.0000 1.0000
34.7100 1796.0000 1.0000
34.7200 1744.0000 1.0000
34.7300 1755.0000 1.0000
34.7400 1700.0000 1.0000
34.7500 1651.0000 1.0000
34.7600 1621.0000 1.0000
34.7700 1562.0000 1.0000
34.7800 1581.0000 1.0000
34.7900 1522.0000 1.0000
34.8000 1559.0000 1.0000
34.8100 1481.0000 1.0000
34.8200 1474.0000 1.0000
34.8300 1478.0000 1.0000
34.8400 1472.0000 1.0000
34.8500 1434.0000 1.0000
34.8600 1396.0000 1.0000
34.8700 1391.0000 1.0000
34.8800 1340.0000 1.0000
34.8900 1382.0000 1.0000
34.9000 1363.0000 1.0000
34.9100 1355.0000 1.0000
34.9200 1417.0000 1.0000
34.9300 1353.0000 1.0000
34.9400 1384.0000 1.0000
34.9500 1349.0000 1.0000
34.9600 1263.0000 1.0000
34.9700 1277.0000 1.0000
34.9800 1328.0000 1.0000
34.9900 1278.0000 1.0000
35.0000 1207.0000 1.0000
35.0100 1200.0000 1.0000
35.0200 1253.0000 1.0000
35.0300 1279.0000 1.0000
35.0400 1274.0000 1.0000
35.0500 1241.0000 1.0000
35.0600 1237.0000 1.0000
35.0700 1235.0000 1.0000
35.0800 1313.0000 1.0000
35.0900 1223.0000 1.0000
35.1000 1223.0000 1.0000
35.1100 1243.0000 1.0000
35.1200 1249.0000 1.0000
35.1300 1176.0000 1.0000
35.1400 1191.0000 1.0000
35.1500 1187.0000 1.0000
35.1600 1191.0000 1.0000
35.1700 1199.0000 1.0000
35.1800 1204.0000 1.0000
35.1900 1203.0000 1.0000
35.2000 1217.0000 1.0000
35.2100 1179.0000 1.0000
35.2200 1195.0000 1.0000
35.2300 1224.0000 1.0000
35.2400 1159.0000 1.0000
35.2500 1131.0000 1.0000
35.2600 1121.0000 1.0000
35.2700 1203.0000 1.0000
35.2800 1175.0000 1.0000
35.2900 1233.0000 1.0000
35.3000 1184.0000 1.0000
35.3100 1187.0000 1.0000
35.3200 1163.0000 1.0000
35.3300 1199.0000 1.0000
35.3400 1177.0000 1.0000
35.3500 1109.0000 1.0000
35.3600 1101.0000 1.0000
35.3700 1136.0000 1.0000
35.3800 1198.0000 1.0000
35.3900 1103.0000 1.0000
35.4000 1115.0000 1.0000
35.4100 1160.0000 1.0000
35.4200 1128.0000 1.0000
35.4300 1145.0000 1.0000
35.4400 1127.0000 1.0000
35.4500 1109.0000 1.0000
35.4600 1121.0000 1.0000
35.4700 1141.0000 1.0000
35.4800 1142.0000 1.0000
35.4900 1149.0000 1.0000
35.5000 1114.0000 1.0000
35.5100 1140.0000 1.0000
35.5200 1128.0000 1.0000
35.5300 1092.0000 1.0000
35.5400 1085.0000 1.0000
35.5500 1131.0000 1.0000
35.5600 1126.0000 1.0000
35.5700 1098.0000 1.0000
35.5800 1139.0000 1.0000
35.5900 1137.0000 1.0000
35.6000 1126.0000 1.0000
35.6100 1126.0000 1.0000
35.6200 1139.0000 1.0000
35.6300 1117.0000 1.0000
35.6400 1109.0000 1.0000
35.6500 1151.0000 1.0000
35.6600 1127.0000 1.0000
35.6700 1044.0000 1.0000
35.6800 1096.0000 1.0000
35.6900 1088.0000 1.0000
35.7000 1085.0000 1.0000
35.7100 1111.0000 1.0000
35.7200 1149.0000 1.0000
35.7300 1098.0000 1.0000
35.7400 1093.0000 1.0000
35.7500 1122.0000 1.0000
35.7600 1089.0000 1.0000
35.7700 1062.0000 1.0000
35.7800 1046.0000 1.0000
35.7900 1098.0000 1.0000
35.8000 1076.0000 1.0000
35.8100 1061.0000 1.0000
35.8200 1100.0000 1.0000
35.8300 1100.0000 1.0000
35.8400 1077.0000 1.0000
35.8500 1019.0000 1.0000
35.8600 1090.0000 1.0000
35.8700 1078.0000 1.0000
35.8800 1142.0000 1.0000
35.8900 1068.0000 1.0000
35.9000 1089.0000 1.0000
35.9100 1109.0000 1.0000
35.9200 1083.0000 1.0000
35.9300 1118.0000 1.0000
35.9400 1093.0000 1.0000
35.9500 1111.0000 1.0000
35.9600 1108.0000 1.0000
35.9700 1088.0000 1.0000
35.9800 1125.0000 1.0000
35.9900 1160.0000 1.0000
36.0000 1091.0000 1.0000
36.0100 1068.0000 1.0000
36.0200 1102.0000 1.0000
36.0300 1099.0000 1.0000
36.0400 1098.0000 1.0000
36.0500 1090.0000 1.0000
36.0600 1077.0000 1.0000
36.0700 1064.0000 1.0000
36.0800 1128.0000 1.0000
36.0900 1096.0000 1.0000
36.1000 1119.0000 1.0000
36.1100 1085.0000 1.0000
36.1200 1167.0000 1.0000
36.1300 1133.0000 1.0000
36.1400 1137.0000 1.0000
36.1500 1120.0000 1.0000
36.1600 1146.0000 1.0000
36.1700 1112.0000 1.0000
36.1800 1072.0000 1.0000
36.1900 1096.0000 1.0000
36.2000 1139.0000 1.0000
36.2100 1084.0000 1.0000
36.2200 1173.0000 1.0000
36.2300 1142.0000 1.0000
36.2400 1154.0000 1.0000
36.2500 1111.0000 1.0000
36.2600 1132.0000 1.0000
36.2700 1250.0000 1.0000
36.2800 1211.0000 1.0000
36.2900 1172.0000 1.0000
36.3000 1215.0000 1.0000
36.3100 1199.0000 1.0000
36.3200 1175.0000 1.0000
36.3300 1211.0000 1.0000
36.3400 1179.0000 1.0000
36.3500 1157.0000 1.0000
36.3600 1217.0000 1.0000
36.3700 1216.0000 1.0000
36.3800 1136.0000 1.0000
36.3900 1209.0000 1.0000
36.4000 1205.0000 1.0000
36.4100 1215.0000 1.0000
36.4200 1225.0000 1.0000
36.4300 1214.0000 1.0000
36.4400 1219.0000 1.0000
36.4500 1166.0000 1.0000
36.4600 1203.0000 1.0000
36.4700 1172.0000 1.0000
36.4800 1168.0000 1.0000
36.4900 1150.0000 1.0000
36.5000 1187.0000 1.0000
36.5100 1070.0000 1.0000
36.5200 1138.0000 1.0000
36.5300 1149.0000 1.0000
36.5400 1136.0000 1.0000
36.5500 1128.0000 1.0000
36.5600 1121.0000 1.0000
36.5700 1100.0000 1.0000
36.5800 1069.0000 1.0000
36.5900 1137.0000 1.0000
36.6000 1067.0000 1.0000
36.6100 1142.0000 1.0000
36.6200 1093.0000 1.0000
36.6300 1013.0000 1.0000
36.6400 1071.0000 1.0000
36.6500 1061.0000 1.0000
36.6600 1046.0000 1.0000
36.6700 1058.0000 1.0000
36.6800 1064.0000 1.0000
36.6900 1033.0000 1.0000
36.7000 1057.0000 1.0000
36.7100 1000.0000 1.0000
36.7200 1024.0000 1.0000
36.7300 1048.0000 1.0000
36.7400 1003.0000 1.0000
36.7500 1026.0000 1.0000
36.7600 1035.0000 1.0000
36.7700 1025.0000 1.0000
36.7800 1032.0000 1.0000
36.7900 1066.0000 1.0000
36.8000 1018.0000 1.0000
36.8100 993.0000 1.0000
36.8200 1070.0000 1.0000
36.8300 1033.0000 1.0000
36.8400 1040.0000 1.0000
36.8500 941.0000 1.0000
36.8600 992.0000 1.0000
36.8700 996.0000 1.0000
36.8800 969.0000 1.0000
36.8900 1023.0000 1.0000
36.9000 995.0000 1.0000
36.9100 1009.0000 1.0000
36.9200 1051.0000 1.0000
36.9300 1021.0000 1.0000
36.9400 991.0000 1.0000
36.9500 969.0000 1.0000
36.9600 1006.0000 1.0000
36.9700 1020.0000 1.0000
36.9800 1006.0000 1.0000
36.9900 1011.0000 1.0000
37.0000 1016.0000 1.0000
37.0100 990.0000 1.0000
37.0200 988.0000 1.0000
37.0300 969.0000 1.0000
37.0400 990.0000 1.0000
37.0500 998.0000 1.0000
37.0600 955.0000 1.0000
37.0700 1002.0000 1.0000
37.0800 1014.0000 1.0000
37.0900 992.0000 1.0000
37.1000 973.0000 1.0000
37.1100 969.0000 1.0000
37.1200 1052.0000 1.0000
37.1300 1040.0000 1.0000
37.1400 1012.0000 1.0000
37.1500 1025.0000 1.0000
37.1600 984.0000 1.0000
37.1700 1011.0000 1.0000
37.1800 1001.0000 1.0000
37.1900 987.0000 1.0000
37.2000 1019.0000 1.0000
37.2100 1008.0000 1.0000
37.2200 1008.0000 1.0000
37.2300 1013.0000 1.0000
37.2400 1042.0000 1.0000
37.2500 1006.0000 1.0000
37.2600 1009.0000 1.0000
37.2700 959.0000 1.0000
37.2800 999.0000 1.0000
37.2900 1000.0000 1.0000
37.3000 999.0000 1.0000
37.3100 1001.0000 1.0000
37.3200 986.0000 1.0000
37.3300 992.0000 1.0000
37.3400 1015.0000 1.0000
37.3500 991.0000 1.0000
37.3600 954.0000 1.0000
37.3700 961.0000 1.0000
37.3800 987.0000 1.0000
37.3900 986.0000 1.0000
37.4000 1009.0000 1.0000
37.4100 965.0000 1.0000
37.4200 972.0000 1.0000
37.4300 985.0000 1.0000
37.4400 1011.0000 1.0000
37.4500 975.0000 1.0000
37.4600 964.0000 1.0000
37.4700 1017.0000 1.0000
37.4800 982.0000 1.0000
37.4900 996.0000 1.0000
37.5000 1031.0000 1.0000
37.5100 979.0000 1.0000
37.5200 980.0000 1.0000
37.5300 1014.0000 1.0000
37.5400 1044.0000 1.0000
37.5500 1006.0000 1.0000
37.5600 994.0000 1.0000
37.5700 967.0000 1.0000
37.5800 1049.0000 1.0000
37.5900 980.0000 1.0000
37.6000 1010.0000 1.0000
37.6100 976.0000 1.0000
37.6200 1039.0000 1.0000
37.6300 1016.0000 1.0000
37.6400 991.0000 1.0000
37.6500 985.0000 1.0000
37.6600 1031.0000 1.0000
37.6700 1027.0000 1.0000
37.6800 1013.0000 1.0000
37.6900 1016.0000 1.0000
37.7000 1051.0000 1.0000
37.7100 1078.0000 1.0000
37.7200 1025.0000 1.0000
37.7300 986.0000 1.0000
37.7400 1000.0000 1.0000
37.7500 1021.0000 1.0000
37.7600 1021.0000 1.0000
37.7700 1034.0000 1.0000
37.7800 1033.0000 1.0000
37.7900 1069.0000 1.0000
37.8000 991.0000 1.0000
37.8100 1003.0000 1.0000
37.8200 973.0000 1.0000
37.8300 1020.0000 1.0000
37.8400 999.0000 1.0000
37.8500 1023.0000 1.0000
37.8600 1028.0000 1.0000
37.8700 1027.0000 1.0000
37.8800 1020.0000 1.0000
37.8900 1063.0000 1.0000
37.9000 1019.0000 1.0000
37.9100 1032.0000 1.0000
37.9200 1057.0000 1.0000
37.9300 1065.0000 1.0000
37.9400 1079.0000 1.0000
37.9500 1053.0000 1.0000
37.9600 1059.0000 1.0000
37.9700 1084.0000 1.0000
37.9800 1033.0000 1.0000
37.9900 1046.0000 1.0000
38.0000 1079.0000 1.0000
38.0100 1044.0000 1.0000
38.0200 1069.0000 1.0000
38.0300 1111.0000 1.0000
38.0400 1075.0000 1.0000
38.0500 1128.0000 1.0000
38.0600 1120.0000 1.0000
38.0700 1063.0000 1.0000
38.0800 1119.0000 1.0000
38.0900 1212.0000 1.0000
38.1000 1152.0000 1.0000
38.1100 1203.0000 1.0000
38.1200 1198.0000 1.0000
38.1300 1245.0000 1.0000
38.1400 1250.0000 1.0000
38.1500 1255.0000 1.0000
38.1600 1245.0000 1.0000
38.1700 1320.0000 1.0000
38.1800 1345.0000 1.0000
38.1900 1353.0000 1.0000
38.2000 1438.0000 1.0000
38.2100 1484.0000 1.0000
38.2200 1491.0000 1.0000
38.2300 1507.0000 1.0000
38.2400 1578.0000 1.0000
38.2500 1599.0000 1.0000
38.2600 1710.0000 1.0000
38.2700 1791.0000 1.0000
38.2800 1813.0000 1.0000
38.2900 1902.0000 1.0000
38.3000 1918.0000 1.0000
38.3100 2069.0000 1.0000
38.3200 2160.0000 1.0000
38.3300 2289.0000 1.0000
38.3400 2403.0000 1.0000
38.3500 2563.0000 1.0000
38.3600 2645.0000 1.0000
38.3700 2884.0000 1.0000
38.3800 3170.0000 1.0000
38.3900 3297.0000 1.0000
38.4000 3597.0000 1.0000
38.4100 3804.0000 1.0000
38.4200 4021.0000 1.0000
38.4300 4270.0000 1.0000
38.4400 4671.0000 1.0000
38.4500 4999.0000 1.0000
38.4600 5276.0000 1.0000
38.4700 5583.0000 1.0000
38.4800 5990.0000 1.0000
38.4900 6143.0000 1.0000
38.5000 6319.0000 1.0000
38.5100 6335.0000 1.0000
38.5200 6473.0000 1.0000
38.5300 6516.0000 1.0000
38.5400 6463.0000 1.0000
38.5500 6281.0000 1.0000
38.5600 6081.0000 1.0000
38.5700 6012.0000 1.0000
38.5800 5853.0000 1.0000
38.5900 5632.0000 1.0000
38.6000 5595.0000 1.0000
38.6100 5381.0000 1.0000
38.6200 4959.0000 1.0000
38.6300 4712.0000 1.0000
38.6400 4486.0000 1.0000
38.6500 4252.0000 1.0000
38.6600 3909.0000 1.0000
38.6700 3683.0000 1.0000
38.6800 3506.0000 1.0000
38.6900 3218.0000 1.0000
38.7000 3103.0000 1.0000
38.7100 2816.0000 1.0000
38.7200 2619.0000 1.0000
38.7300 2398.0000 1.0000
38.7400 2336.0000 1.0000
38.7500 2206.0000 1.0000
38.7600 2096.0000 1.0000
38.7700 2011.0000 1.0000
38.7800 1820.0000 1.0000
38.7900 1827.0000 1.0000
38.8000 1716.0000 1.0000
38.8100 1660.0000 1.0000
38.8200 1654.0000 1.0000
38.8300 1446.0000 1.0000
38.8400 1502.0000 1.0000
38.8500 1406.0000 1.0000
38.8600 1372.0000 1.0000
38.8700 1302.0000 1.0000
38.8800 1284.0000 1.0000
38.8900 1293.0000 1.0000
38.9000 1194.0000 1.0000
38.9100 1229.0000 1.0000
38.9200 1185.0000 1.0000
38.9300 1184.0000 1.0000
38.9400 1175.0000 1.0000
38.9500 1106.0000 1.0000
38.9600 1046.0000 1.0000
38.9700 1081.0000 1.0000
38.9800 1127.0000 1.0000
38.9900 1090.0000 1.0000
39.0000 1055.0000 1.0000
39.0100 1064.0000 1.0000
39.0200 1017.0000 1.0000
39.0300 1013.0000 1.0000
39.0400 1032.0000 1.0000
39.0500 936.0000 1.0000
39.0600 975.0000 1.0000
39.0700 1005.0000 1.0000
39.0800 984.0000 1.0000
39.0900 952.0000 1.0000
39.1000 963.0000 1.0000
39.1100 959.0000 1.0000
39.1200 961.0000 1.0000
39.1300 940.0000 1.0000
39.1400 945.0000 1.0000
39.1500 930.0000 1.0000
39.1600 911.0000 1.0000
39.1700 943.0000 1.0000
39.1800 933.0000 1.0000
39.1900 908.0000 1.0000
39.2000 962.0000 1.0000
39.2100 938.0000 1.0000
39.2200 961.0000 1.0000
39.2300 916.0000 1.0000
39.2400 892.0000 1.0000
39.2500 880.0000 1.0000
39.2600 901.0000 1.0000
39.2700 882.0000 1.0000
39.2800 942.0000 1.0000
39.2900 947.0000 1.0000
39.3000 914.0000 1.0000
39.3100 902.0000 1.0000
39.3200 887.0000 1.0000
39.3300 901.0000 1.0000
39.3400 931.0000 1.0000
39.3500 923.0000 1.0000
39.3600 939.0000 1.0000
39.3700 926.0000 1.0000
39.3800 905.0000 1.0000
39.3900 906.0000 1.0000
39.4000 931.0000 1.0000
39.4100 901.0000 1.0000
39.4200 919.0000 1.0000
39.4300 902.0000 1.0000
39.4400 931.0000 1.0000
39.4500 834.0000 1.0000
39.4600 906.0000 1.0000
39.4700 980.0000 1.0000
39.4800 949.0000 1.0000
39.4900 889.0000 1.0000
39.5000 880.0000 1.0000
39.5100 985.0000 1.0000
39.5200 982.0000 1.0000
39.5300 924.0000 1.0000
39.5400 882.0000 1.0000
39.5500 943.0000 1.0000
39.5600 934.0000 1.0000
39.5700 981.0000 1.0000
39.5800 980.0000 1.0000
39.5900 961.0000 1.0000
39.6000 932.0000 1.0000
39.6100 965.0000 1.0000
39.6200 955.0000 1.0000
39.6300 914.0000 1.0000
39.6400 918.0000 1.0000
39.6500 934.0000 1.0000
39.6600 950.0000 1.0000
39.6700 914.0000 1.0000
39.6800 956.0000 1.0000
39.6900 912.0000 1.0000
39.7000 898.0000 1.0000
39.7100 885.0000 1.0000
39.7200 907.0000 1.0000
39.7300 905.0000 1.0000
39.7400 870.0000 1.0000
39.7500 877.0000 1.0000
39.7600 899.0000 1.0000
39.7700 850.0000 1.0000
39.7800 923.0000 1.0000
39.7900 867.0000 1.0000
39.8000 866.0000 1.0000
39.8100 882.0000 1.0000
39.8200 903.0000 1.0000
39.8300 819.0000 1.0000
39.8400 824.0000 1.0000
39.8500 874.0000 1.0000
39.8600 912.0000 1.0000
39.8700 889.0000 1.0000
39.8800 842.0000 1.0000
39.8900 852.0000 1.0000
39.9000 892.0000 1.0000
39.9100 895.0000 1.0000
39.9200 828.0000 1.0000
39.9300 791.0000 1.0000
39.9400 826.0000 1.0000
39.9500 874.0000 1.0000
39.9600 896.0000 1.0000
39.9700 832.0000 1.0000
39.9800 878.0000 1.0000
39.9900 844.0000 1.0000
40.0000 889.0000 1.0000
40.0100 823.0000 1.0000
40.0200 857.0000 1.0000
40.0300 835.0000 1.0000
40.0400 871.0000 1.0000
40.0500 846.0000 1.0000
40.0600 860.0000 1.0000
40.0700 823.0000 1.0000
40.0800 867.0000 1.0000
40.0900 864.0000 1.0000
40.1000 853.0000 1.0000
40.1100 845.0000 1.0000
40.1200 851.0000 1.0000
40.1300 822.0000 1.0000
40.1400 777.0000 1.0000
40.1500 832.0000 1.0000
40.1600 842.0000 1.0000
40.1700 836.0000 1.0000
40.1800 796.0000 1.0000
40.1900 814.0000 1.0000
40.2000 829.0000 1.0000
40.2100 835.0000 1.0000
40.2200 845.0000 1.0000
40.2300 783.0000 1.0000
40.2400 818.0000 1.0000
40.2500 869.0000 1.0000
40.2600 805.0000 1.0000
40.2700 833.0000 1.0000
40.2800 831.0000 1.0000
40.2900 806.0000 1.0000
40.3000 816.0000 1.0000
40.3100 917.0000 1.0000
40.3200 811.0000 1.0000
40.3300 877.0000 1.0000
40.3400 840.0000 1.0000
40.3500 804.0000 1.0000
40.3600 805.0000 1.0000
40.3700 790.0000 1.0000
40.3800 879.0000 1.0000
40.3900 839.0000 1.0000
40.4000 824.0000 1.0000
40.4100 849.0000 1.0000
40.4200 815.0000 1.0000
40.4300 798.0000 1.0000
40.4400 829.0000 1.0000
40.4500 800.0000 1.0000
40.4600 818.0000 1.0000
40.4700 841.0000 1.0000
40.4800 854.0000 1.0000
40.4900 842.0000 1.0000
40.5000 849.0000 1.0000
40.5100 845.0000 1.0000
40.5200 829.0000 1.0000
40.5300 849.0000 1.0000
40.5400 866.0000 1.0000
40.5500 828.0000 1.0000
40.5600 807.0000 1.0000
40.5700 800.0000 1.0000
40.5800 791.0000 1.0000
40.5900 842.0000 1.0000
40.6000 808.0000 1.0000
40.6100 793.0000 1.0000
40.6200 825.0000 1.0000
40.6300 801.0000 1.0000
40.6400 762.0000 1.0000
40.6500 783.0000 1.0000
40.6600 841.0000 1.0000
40.6700 796.0000 1.0000
40.6800 816.0000 1.0000
40.6900 772.0000 1.0000
40.7000 798.0000 1.0000
40.7100 777.0000 1.0000
40.7200 794.0000 1.0000
40.7300 825.0000 1.0000
40.7400 825.0000 1.0000
40.7500 843.0000 1.0000
40.7600 787.0000 1.0000
40.7700 819.0000 1.0000
40.7800 816.0000 1.0000
40.7900 826.0000 1.0000
40.8000 804.0000 1.0000
40.8100 812.0000 1.0000
40.8200 787.0000 1.0000
40.8300 791.0000 1.0000
40.8400 822.0000 1.0000
40.8500 779.0000 1.0000
40.8600 853.0000 1.0000
40.8700 794.0000 1.0000
40.8800 805.0000 1.0000
40.8900 815.0000 1.0000
40.9000 817.0000 1.0000
40.9100 820.0000 1.0000
40.9200 808.0000 1.0000
40.9300 826.0000 1.0000
40.9400 856.0000 1.0000
40.9500 828.0000 1.0000
40.9600 799.0000 1.0000
40.9700 771.0000 1.0000
40.9800 760.0000 1.0000
40.9900 819.0000 1.0000
41.0000 828.0000 1.0000
41.0100 836.0000 1.0000
41.0200 820.0000 1.0000
41.0300 822.0000 1.0000
41.0400 800.0000 1.0000
41.0500 819.0000 1.0000
41.0600 771.0000 1.0000
41.0700 808.0000 1.0000
41.0800 806.0000 1.0000
41.0900 797.0000 1.0000
41.1000 801.0000 1.0000
41.1100 823.0000 1.0000
41.1200 839.0000 1.0000
41.1300 843.0000 1.0000
41.1400 823.0000 1.0000
41.1500 810.0000 1.0000
41.1600 782.0000 1.0000
41.1700 793.0000 1.0000
41.1800 749.0000 1.0000
41.1900 803.0000 1.0000
41.2000 801.0000 1.0000
41.2100 839.0000 1.0000
41.2200 797.0000 1.0000
41.2300 807.0000 1.0000
41.2400 836.0000 1.0000
41.2500 744.0000 1.0000
41.2600 817.0000 1.0000
41.2700 816.0000 1.0000
41.2800 798.0000 1.0000
41.2900 787.0000 1.0000
41.3000 776.0000 1.0000
41.3100 768.0000 1.0000
41.3200 824.0000 1.0000
41.3300 793.0000 1.0000
41.3400 833.0000 1.0000
41.3500 795.0000 1.0000
41.3600 854.0000 1.0000
41.3700 846.0000 1.0000
41.3800 808.0000 1.0000
41.3900 803.0000 1.0000
41.4000 825.0000 1.0000
41.4100 783.0000 1.0000
41.4200 776.0000 1.0000
41.4300 798.0000 1.0000
41.4400 811.0000 1.0000
41.4500 782.0000 1.0000
41.4600 802.0000 1.0000
41.4700 835.0000 1.0000
41.4800 772.0000 1.0000
41.4900 839.0000 1.0000
41.5000 778.0000 1.0000
41.5100 829.0000 1.0000
41.5200 771.0000 1.0000
41.5300 847.0000 1.0000
41.5400 806.0000 1.0000
41.5500 781.0000 1.0000
41.5600 852.0000 1.0000
41.5700 880.0000 1.0000
41.5800 797.0000 1.0000
41.5900 769.0000 1.0000
41.6000 820.0000 1.0000
41.6100 798.0000 1.0000
41.6200 814.0000 1.0000
41.6300 820.0000 1.0000
41.6400 861.0000 1.0000
41.6500 799.0000 1.0000
41.6600 783.0000 1.0000
41.6700 840.0000 1.0000
41.6800 842.0000 1.0000
41.6900 841.0000 1.0000
41.7000 828.0000 1.0000
41.7100 848.0000 1.0000
41.7200 810.0000 1.0000
41.7300 857.0000 1.0000
41.7400 830.0000 1.0000
41.7500 809.0000 1.0000
41.7600 810.0000 1.0000
41.7700 784.0000 1.0000
41.7800 785.0000 1.0000
41.7900 778.0000 1.0000
41.8000 876.0000 1.0000
41.8100 859.0000 1.0000
41.8200 817.0000 1.0000
41.8300 715.0000 1.0000
41.8400 768.0000 1.0000
41.8500 825.0000 1.0000
41.8600 852.0000 1.0000
41.8700 789.0000 1.0000
41.8800 789.0000 1.0000
41.8900 764.0000 1.0000
41.9000 807.0000 1.0000
41.9100 750.0000 1.0000
41.9200 828.0000 1.0000
41.9300 799.0000 1.0000
41.9400 829.0000 1.0000
41.9500 852.0000 1.0000
41.9600 825.0000 1.0000
41.9700 839.0000 1.0000
41.9800 783.0000 1.0000
41.9900 835.0000 1.0000
42.0000 786.0000 1.0000
42.0100 803.0000 1.0000
42.0200 788.0000 1.0000
42.0300 790.0000 1.0000
42.0400 814.0000 1.0000
42.0500 816.0000 1.0000
42.0600 785.0000 1.0000
42.0700 806.0000 1.0000
42.0800 792.0000 1.0000
42.0900 787.0000 1.0000
42.1000 804.0000 1.0000
42.1100 806.0000 1.0000
42.1200 847.0000 1.0000
42.1300 812.0000 1.0000
42.1400 786.0000 1.0000
42.1500 792.0000 1.0000
42.1600 778.0000 1.0000
42.1700 842.0000 1.0000
42.1800 791.0000 1.0000
42.1900 814.0000 1.0000
42.2000 765.0000 1.0000
42.2100 801.0000 1.0000
42.2200 759.0000 1.0000
42.2300 785.0000 1.0000
42.2400 816.0000 1.0000
42.2500 746.0000 1.0000
42.2600 809.0000 1.0000
42.2700 820.0000 1.0000
42.2800 837.0000 1.0000
42.2900 788.0000 1.0000
42.3000 781.0000 1.0000
42.3100 793.0000 1.0000
42.3200 797.0000 1.0000
42.3300 790.0000 1.0000
42.3400 796.0000 1.0000
42.3500 816.0000 1.0000
42.3600 751.0000 1.0000
42.3700 741.0000 1.0000
42.3800 768.0000 1.0000
42.3900 799.0000 1.0000
42.4000 806.0000 1.0000
42.4100 751.0000 1.0000
42.4200 782.0000 1.0000
42.4300 728.0000 1.0000
42.4400 778.0000 1.0000
42.4500 812.0000 1.0000
42.4600 818.0000 1.0000
42.4700 776.0000 1.0000
42.4800 847.0000 1.0000
42.4900 843.0000 1.0000
42.5000 786.0000 1.0000
42.5100 818.0000 1.0000
42.5200 785.0000 1.0000
42.5300 800.0000 1.0000
42.5400 737.0000 1.0000
42.5500 761.0000 1.0000
42.5600 801.0000 1.0000
42.5700 798.0000 1.0000
42.5800 757.0000 1.0000
42.5900 773.0000 1.0000
42.6000 768.0000 1.0000
42.6100 792.0000 1.0000
42.6200 763.0000 1.0000
42.6300 765.0000 1.0000
42.6400 790.0000 1.0000
42.6500 774.0000 1.0000
42.6600 803.0000 1.0000
42.6700 777.0000 1.0000
42.6800 819.0000 1.0000
42.6900 834.0000 1.0000
42.7000 794.0000 1.0000
42.7100 773.0000 1.0000
42.7200 747.0000 1.0000
42.7300 816.0000 1.0000
42.7400 797.0000 1.0000
42.7500 804.0000 1.0000
42.7600 825.0000 1.0000
42.7700 771.0000 1.0000
42.7800 792.0000 1.0000
42.7900 742.0000 1.0000
42.8000 741.0000 1.0000
42.8100 833.0000 1.0000
42.8200 814.0000 1.0000
42.8300 833.0000 1.0000
42.8400 812.0000 1.0000
42.8500 807.0000 1.0000
42.8600 788.0000 1.0000
42.8700 757.0000 1.0000
42.8800 784.0000 1.0000
42.8900 758.0000 1.0000
42.9000 808.0000 1.0000
42.9100 842.0000 1.0000
42.9200 812.0000 1.0000
42.9300 777.0000 1.0000
42.9400 766.0000 1.0000
42.9500 826.0000 1.0000
42.9600 854.0000 1.0000
42.9700 819.0000 1.0000
42.9800 810.0000 1.0000
42.9900 785.0000 1.0000
43.0000 801.0000 1.0000
43.0100 825.0000 1.0000
43.0200 774.0000 1.0000
43.0300 804.0000 1.0000
43.0400 787.0000 1.0000
43.0500 817.0000 1.0000
43.0600 830.0000 1.0000
43.0700 842.0000 1.0000
43.0800 824.0000 1.0000
43.0900 819.0000 1.0000
43.1000 808.0000 1.0000
43.1100 834.0000 1.0000
43.1200 809.0000 1.0000
43.1300 844.0000 1.0000
43.1400 839.0000 1.0000
43.1500 863.0000 1.0000
43.1600 875.0000 1.0000
43.1700 861.0000 1.0000
43.1800 873.0000 1.0000
43.1900 901.0000 1.0000
43.2000 875.0000 1.0000
43.2100 908.0000 1.0000
43.2200 896.0000 1.0000
43.2300 860.0000 1.0000
43.2400 891.0000 1.0000
43.2500 867.0000 1.0000
43.2600 836.0000 1.0000
43.2700 885.0000 1.0000
43.2800 892.0000 1.0000
43.2900 866.0000 1.0000
43.3000 881.0000 1.0000
43.3100 859.0000 1.0000
43.3200 884.0000 1.0000
43.3300 883.0000 1.0000
43.3400 880.0000 1.0000
43.3500 852.0000 1.0000
43.3600 842.0000 1.0000
43.3700 811.0000 1.0000
43.3800 814.0000 1.0000
43.3900 851.0000 1.0000
43.4000 833.0000 1.0000
43.4100 797.0000 1.0000
43.4200 791.0000 1.0000
43.4300 827.0000 1.0000
43.4400 822.0000 1.0000
43.4500 836.0000 1.0000
43.4600 797.0000 1.0000
43.4700 841.0000 1.0000
43.4800 786.0000 1.0000
43.4900 827.0000 1.0000
43.5000 807.0000 1.0000
43.5100 812.0000 1.0000
43.5200 769.0000 1.0000
43.5300 790.0000 1.0000
43.5400 810.0000 1.0000
43.5500 786.0000 1.0000
43.5600 770.0000 1.0000
43.5700 779.0000 1.0000
43.5800 788.0000 1.0000
43.5900 787.0000 1.0000
43.6000 803.0000 1.0000
43.6100 776.0000 1.0000
43.6200 782.0000 1.0000
43.6300 799.0000 1.0000
43.6400 774.0000 1.0000
43.6500 796.0000 1.0000
43.6600 769.0000 1.0000
43.6700 788.0000 1.0000
43.6800 765.0000 1.0000
43.6900 771.0000 1.0000
43.7000 826.0000 1.0000
43.7100 758.0000 1.0000
43.7200 792.0000 1.0000
43.7300 778.0000 1.0000
43.7400 735.0000 1.0000
43.7500 718.0000 1.0000
43.7600 790.0000 1.0000
43.7700 759.0000 1.0000
43.7800 738.0000 1.0000
43.7900 767.0000 1.0000
43.8000 760.0000 1.0000
43.8100 720.0000 1.0000
43.8200 733.0000 1.0000
43.8300 762.0000 1.0000
43.8400 782.0000 1.0000
43.8500 806.0000 1.0000
43.8600 725.0000 1.0000
43.8700 768.0000 1.0000
43.8800 811.0000 1.0000
43.8900 794.0000 1.0000
43.9000 753.0000 1.0000
43.9100 731.0000 1.0000
43.9200 804.0000 1.0000
43.9300 771.0000 1.0000
43.9400 750.0000 1.0000
43.9500 807.0000 1.0000
43.9600 768.0000 1.0000
43.9700 710.0000 1.0000
43.9800 794.0000 1.0000
43.9900 748.0000 1.0000
44.0000 781.0000 1.0000
44.0100 739.0000 1.0000
44.0200 760.0000 1.0000
44.0300 793.0000 1.0000
44.0400 759.0000 1.0000
44.0500 732.0000 1.0000
44.0600 790.0000 1.0000
44.0700 791.0000 1.0000
44.0800 766.0000 1.0000
44.0900 779.0000 1.0000
44.1000 783.0000 1.0000
44.1100 765.0000 1.0000
44.1200 762.0000 1.0000
44.1300 793.0000 1.0000
44.1400 755.0000 1.0000
44.1500 781.0000 1.0000
44.1600 781.0000 1.0000
44.1700 750.0000 1.0000
44.1800 747.0000 1.0000
44.1900 763.0000 1.0000
44.2000 777.0000 1.0000
44.2100 772.0000 1.0000
44.2200 759.0000 1.0000
44.2300 738.0000 1.0000
44.2400 769.0000 1.0000
44.2500 737.0000 1.0000
44.2600 741.0000 1.0000
44.2700 735.0000 1.0000
44.2800 778.0000 1.0000
44.2900 758.0000 1.0000
44.3000 691.0000 1.0000
44.3100 803.0000 1.0000
44.3200 791.0000 1.0000
44.3300 758.0000 1.0000
44.3400 756.0000 1.0000
44.3500 774.0000 1.0000
44.3600 720.0000 1.0000
44.3700 802.0000 1.0000
44.3800 755.0000 1.0000
44.3900 761.0000 1.0000
44.4000 770.0000 1.0000
44.4100 761.0000 1.0000
44.4200 785.0000 1.0000
44.4300 757.0000 1.0000
44.4400 772.0000 1.0000
44.4500 755.0000 1.0000
44.4600 754.0000 1.0000
44.4700 768.0000 1.0000
44.4800 729.0000 1.0000
44.4900 755.0000 1.0000
44.5000 748.0000 1.0000
44.5100 788.0000 1.0000
44.5200 800.0000 1.0000
44.5300 756.0000 1.0000
44.5400 769.0000 1.0000
44.5500 788.0000 1.0000
44.5600 713.0000 1.0000
44.5700 755.0000 1.0000
44.5800 771.0000 1.0000
44.5900 759.0000 1.0000
44.6000 759.0000 1.0000
44.6100 742.0000 1.0000
44.6200 763.0000 1.0000
44.6300 761.0000 1.0000
44.6400 755.0000 1.0000
44.6500 793.0000 1.0000
44.6600 784.0000 1.0000
44.6700 778.0000 1.0000
44.6800 764.0000 1.0000
44.6900 729.0000 1.0000
44.7000 751.0000 1.0000
44.7100 769.0000 1.0000
44.7200 759.0000 1.0000
44.7300 739.0000 1.0000
44.7400 805.0000 1.0000
44.7500 758.0000 1.0000
44.7600 739.0000 1.0000
44.7700 750.0000 1.0000
44.7800 795.0000 1.0000
44.7900 756.0000 1.0000
44.8000 725.0000 1.0000
44.8100 723.0000 1.0000
44.8200 741.0000 1.0000
44.8300 788.0000 1.0000
44.8400 762.0000 1.0000
44.8500 755.0000 1.0000
44.8600 751.0000 1.0000
44.8700 781.0000 1.0000
44.8800 774.0000 1.0000
44.8900 773.0000 1.0000
44.9000 718.0000 1.0000
44.9100 730.0000 1.0000
44.9200 752.0000 1.0000
44.9300 791.0000 1.0000
44.9400 702.0000 1.0000
44.9500 741.0000 1.0000
44.9600 796.0000 1.0000
44.9700 793.0000 1.0000
44.9800 734.0000 1.0000
44.9900 723.0000 1.0000
45.0000 760.0000 1.0000
45.0100 715.0000 1.0000
45.0200 737.0000 1.0000
45.0300 703.0000 1.0000
45.0400 780.0000 1.0000
45.0500 741.0000 1.0000
45.0600 757.0000 1.0000
45.0700 712.0000 1.0000
45.0800 765.0000 1.0000
45.0900 762.0000 1.0000
45.1000 716.0000 1.0000
45.1100 746.0000 1.0000
45.1200 752.0000 1.0000
45.1300 747.0000 1.0000
45.1400 752.0000 1.0000
45.1500 743.0000 1.0000
45.1600 733.0000 1.0000
45.1700 734.0000 1.0000
45.1800 766.0000 1.0000
45.1900 741.0000 1.0000
45.2000 721.0000 1.0000
45.2100 737.0000 1.0000
45.2200 780.0000 1.0000
45.2300 743.0000 1.0000
45.2400 719.0000 1.0000
45.2500 783.0000 1.0000
45.2600 753.0000 1.0000
45.2700 738.0000 1.0000
45.2800 773.0000 1.0000
45.2900 762.0000 1.0000
45.3000 751.0000 1.0000
45.3100 742.0000 1.0000
45.3200 703.0000 1.0000
45.3300 780.0000 1.0000
45.3400 783.0000 1.0000
45.3500 746.0000 1.0000
45.3600 742.0000 1.0000
45.3700 775.0000 1.0000
45.3800 753.0000 1.0000
45.3900 757.0000 1.0000
45.4000 797.0000 1.0000
45.4100 742.0000 1.0000
45.4200 716.0000 1.0000
45.4300 766.0000 1.0000
45.4400 709.0000 1.0000
45.4500 719.0000 1.0000
45.4600 734.0000 1.0000
45.4700 733.0000 1.0000
45.4800 731.0000 1.0000
45.4900 725.0000 1.0000
45.5000 774.0000 1.0000
45.5100 745.0000 1.0000
45.5200 733.0000 1.0000
45.5300 787.0000 1.0000
45.5400 735.0000 1.0000
45.5500 688.0000 1.0000
45.5600 751.0000 1.0000
45.5700 757.0000 1.0000
45.5800 692.0000 1.0000
45.5900 735.0000 1.0000
45.6000 775.0000 1.0000
45.6100 741.0000 1.0000
45.6200 686.0000 1.0000
45.6300 741.0000 1.0000
45.6400 725.0000 1.0000
45.6500 761.0000 1.0000
45.6600 744.0000 1.0000
45.6700 686.0000 1.0000
45.6800 726.0000 1.0000
45.6900 758.0000 1.0000
45.7000 730.0000 1.0000
45.7100 755.0000 1.0000
45.7200 741.0000 1.0000
45.7300 798.0000 1.0000
45.7400 734.0000 1.0000
45.7500 774.0000 1.0000
45.7600 756.0000 1.0000
45.7700 709.0000 1.0000
45.7800 732.0000 1.0000
45.7900 776.0000 1.0000
45.8000 738.0000 1.0000
45.8100 749.0000 1.0000
45.8200 762.0000 1.0000
45.8300 728.0000 1.0000
45.8400 762.0000 1.0000
45.8500 723.0000 1.0000
45.8600 747.0000 1.0000
45.8700 704.0000 1.0000
45.8800 761.0000 1.0000
45.8900 784.0000 1.0000
45.9000 755.0000 1.0000
45.9100 723.0000 1.0000
45.9200 721.0000 1.0000
45.9300 729.0000 1.0000
45.9400 738.0000 1.0000
45.9500 727.0000 1.0000
45.9600 765.0000 1.0000
45.9700 707.0000 1.0000
45.9800 728.0000 1.0000
45.9900 734.0000 1.0000
46.0000 721.0000 1.0000
46.0100 743.0000 1.0000
46.0200 694.0000 1.0000
46.0300 727.0000 1.0000
46.0400 701.0000 1.0000
46.0500 716.0000 1.0000
46.0600 716.0000 1.0000
46.0700 717.0000 1.0000
46.0800 753.0000 1.0000
46.0900 707.0000 1.0000
46.1000 744.0000 1.0000
46.1100 716.0000 1.0000
46.1200 741.0000 1.0000
46.1300 733.0000 1.0000
46.1400 750.0000 1.0000
46.1500 758.0000 1.0000
46.1600 724.0000 1.0000
46.1700 702.0000 1.0000
46.1800 744.0000 1.0000
46.1900 768.0000 1.0000
46.2000 745.0000 1.0000
46.2100 736.0000 1.0000
46.2200 730.0000 1.0000
46.2300 744.0000 1.0000
46.2400 743.0000 1.0000
46.2500 711.0000 1.0000
46.2600 724.0000 1.0000
46.2700 700.0000 1.0000
46.2800 735.0000 1.0000
46.2900 761.0000 1.0000
46.3000 746.0000 1.0000
46.3100 751.0000 1.0000
46.3200 694.0000 1.0000
46.3300 766.0000 1.0000
46.3400 724.0000 1.0000
46.3500 718.0000 1.0000
46.3600 727.0000 1.0000
46.3700 669.0000 1.0000
46.3800 742.0000 1.0000
46.3900 735.0000 1.0000
46.4000 725.0000 1.0000
46.4100 729.0000 1.0000
46.4200 734.0000 1.0000
46.4300 708.0000 1.0000
46.4400 695.0000 1.0000
46.4500 731.0000 1.0000
46.4600 750.0000 1.0000
46.4700 689.0000 1.0000
46.4800 730.0000 1.0000
46.4900 739.0000 1.0000
46.5000 748.0000 1.0000
46.5100 713.0000 1.0000
46.5200 747.0000 1.0000
46.5300 710.0000 1.0000
46.5400 712.0000 1.0000
46.5500 698.0000 1.0000
46.5600 686.0000 1.0000
46.5700 735.0000 1.0000
46.5800 699.0000 1.0000
46.5900 694.0000 1.0000
46.6000 724.0000 1.0000
46.6100 716.0000 1.0000
46.6200 707.0000 1.0000
46.6300 733.0000 1.0000
46.6400 714.0000 1.0000
46.6500 697.0000 1.0000
46.6600 725.0000 1.0000
46.6700 739.0000 1.0000
46.6800 732.0000 1.0000
46.6900 720.0000 1.0000
46.7000 744.0000 1.0000
46.7100 735.0000 1.0000
46.7200 733.0000 1.0000
46.7300 726.0000 1.0000
46.7400 761.0000 1.0000
46.7500 737.0000 1.0000
46.7600 704.0000 1.0000
46.7700 743.0000 1.0000
46.7800 737.0000 1.0000
46.7900 713.0000 1.0000
46.8000 700.0000 1.0000
46.8100 697.0000 1.0000
46.8200 772.0000 1.0000
46.8300 706.0000 1.0000
46.8400 753.0000 1.0000
46.8500 733.0000 1.0000
46.8600 751.0000 1.0000
46.8700 738.0000 1.0000
46.8800 739.0000 1.0000
46.8900 748.0000 1.0000
46.9000 737.0000 1.0000
46.9100 745.0000 1.0000
46.9200 729.0000 1.0000
46.9300 751.0000 1.0000
46.9400 748.0000 1.0000
46.9500 762.0000 1.0000
46.9600 743.0000 1.0000
46.9700 697.0000 1.0000
46.9800 738.0000 1.0000
46.9900 773.0000 1.0000
47.0000 761.0000 1.0000
47.0100 762.0000 1.0000
47.0200 771.0000 1.0000
47.0300 741.0000 1.0000
47.0400 788.0000 1.0000
47.0500 741.0000 1.0000
47.0600 742.0000 1.0000
47.0700 751.0000 1.0000
47.0800 741.0000 1.0000
47.0900 696.0000 1.0000
47.1000 695.0000 1.0000
47.1100 752.0000 1.0000
47.1200 698.0000 1.0000
47.1300 707.0000 1.0000
47.1400 722.0000 1.0000
47.1500 702.0000 1.0000
47.1600 694.0000 1.0000
47.1700 690.0000 1.0000
47.1800 744.0000 1.0000
47.1900 718.0000 1.0000
47.2000 707.0000 1.0000
47.2100 758.0000 1.0000
47.2200 733.0000 1.0000
47.2300 694.0000 1.0000
47.2400 702.0000 1.0000
47.2500 713.0000 1.0000
47.2600 708.0000 1.0000
47.2700 734.0000 1.0000
47.2800 683.0000 1.0000
47.2900 706.0000 1.0000
47.3000 739.0000 1.0000
47.3100 703.0000 1.0000
47.3200 743.0000 1.0000
47.3300 698.0000 1.0000
47.3400 755.0000 1.0000
47.3500 719.0000 1.0000
47.3600 731.0000 1.0000
47.3700 753.0000 1.0000
47.3800 689.0000 1.0000
47.3900 740.0000 1.0000
47.4000 719.0000 1.0000
47.4100 671.0000 1.0000
47.4200 672.0000 1.0000
47.4300 685.0000 1.0000
47.4400 685.0000 1.0000
47.4500 675.0000 1.0000
47.4600 688.0000 1.0000
47.4700 699.0000 1.0000
47.4800 710.0000 1.0000
47.4900 701.0000 1.0000
47.5000 748.0000 1.0000
47.5100 713.0000 1.0000
47.5200 706.0000 1.0000
47.5300 686.0000 1.0000
47.5400 711.0000 1.0000
47.5500 722.0000 1.0000
47.5600 716.0000 1.0000
47.5700 706.0000 1.0000
47.5800 724.0000 1.0000
47.5900 723.0000 1.0000
47.6000 722.0000 1.0000
47.6100 724.0000 1.0000
47.6200 674.0000 1.0000
47.6300 702.0000 1.0000
47.6400 727.0000 1.0000
47.6500 675.0000 1.0000
47.6600 647.0000 1.0000
47.6700 715.0000 1.0000
47.6800 667.0000 1.0000
47.6900 707.0000 1.0000
47.7000 696.0000 1.0000
47.7100 727.0000 1.0000
47.7200 701.0000 1.0000
47.7300 719.0000 1.0000
47.7400 678.0000 1.0000
47.7500 693.0000 1.0000
47.7600 689.0000 1.0000
47.7700 693.0000 1.0000
47.7800 666.0000 1.0000
47.7900 668.0000 1.0000
47.8000 671.0000 1.0000
47.8100 677.0000 1.0000
47.8200 666.0000 1.0000
47.8300 709.0000 1.0000
47.8400 704.0000 1.0000
47.8500 682.0000 1.0000
47.8600 734.0000 1.0000
47.8700 709.0000 1.0000
47.8800 696.0000 1.0000
47.8900 741.0000 1.0000
47.9000 704.0000 1.0000
47.9100 716.0000 1.0000
47.9200 715.0000 1.0000
47.9300 692.0000 1.0000
47.9400 687.0000 1.0000
47.9500 738.0000 1.0000
47.9600 712.0000 1.0000
47.9700 704.0000 1.0000
47.9800 690.0000 1.0000
47.9900 726.0000 1.0000
48.0000 682.0000 1.0000
48.0100 687.0000 1.0000
48.0200 691.0000 1.0000
48.0300 678.0000 1.0000
48.0400 696.0000 1.0000
48.0500 698.0000 1.0000
48.0600 714.0000 1.0000
48.0700 682.0000 1.0000
48.0800 714.0000 1.0000
48.0900 683.0000 1.0000
48.1000 673.0000 1.0000
48.1100 690.0000 1.0000
48.1200 739.0000 1.0000
48.1300 710.0000 1.0000
48.1400 685.0000 1.0000
48.1500 676.0000 1.0000
48.1600 682.0000 1.0000
48.1700 676.0000 1.0000
48.1800 688.0000 1.0000
48.1900 642.0000 1.0000
48.2000 665.0000 1.0000
48.2100 659.0000 1.0000
48.2200 696.0000 1.0000
48.2300 695.0000 1.0000
48.2400 654.0000 1.0000
48.2500 655.0000 1.0000
48.2600 683.0000 1.0000
48.2700 684.0000 1.0000
48.2800 683.0000 1.0000
48.2900 702.0000 1.0000
48.3000 702.0000 1.0000
48.3100 722.0000 1.0000
48.3200 738.0000 1.0000
48.3300 714.0000 1.0000
48.3400 694.0000 1.0000
48.3500 634.0000 1.0000
48.3600 705.0000 1.0000
48.3700 733.0000 1.0000
48.3800 686.0000 1.0000
48.3900 698.0000 1.0000
48.4000 712.0000 1.0000
48.4100 646.0000 1.0000
48.4200 689.0000 1.0000
48.4300 662.0000 1.0000
48.4400 682.0000 1.0000
48.4500 663.0000 1.0000
48.4600 649.0000 1.0000
48.4700 690.0000 1.0000
48.4800 709.0000 1.0000
48.4900 691.0000 1.0000
48.5000 712.0000 1.0000
48.5100 661.0000 1.0000
48.5200 687.0000 1.0000
48.5300 712.0000 1.0000
48.5400 675.0000 1.0000
48.5500 626.0000 1.0000
48.5600 645.0000 1.0000
48.5700 658.0000 1.0000
48.5800 656.0000 1.0000
48.5900 691.0000 1.0000
48.6000 718.0000 1.0000
48.6100 685.0000 1.0000
48.6200 667.0000 1.0000
48.6300 647.0000 1.0000
48.6400 648.0000 1.0000
48.6500 704.0000 1.0000
48.6600 721.0000 1.0000
48.6700 694.0000 1.0000
48.6800 688.0000 1.0000
48.6900 663.0000 1.0000
48.7000 668.0000 1.0000
48.7100 669.0000 1.0000
48.7200 658.0000 1.0000
48.7300 681.0000 1.0000
48.7400 669.0000 1.0000
48.7500 692.0000 1.0000
48.7600 700.0000 1.0000
48.7700 685.0000 1.0000
48.7800 695.0000 1.0000
48.7900 708.0000 1.0000
48.8000 707.0000 1.0000
48.8100 652.0000 1.0000
48.8200 702.0000 1.0000
48.8300 688.0000 1.0000
48.8400 698.0000 1.0000
48.8500 736.0000 1.0000
48.8600 698.0000 1.0000
48.8700 698.0000 1.0000
48.8800 727.0000 1.0000
48.8900 666.0000 1.0000
48.9000 667.0000 1.0000
48.9100 695.0000 1.0000
48.9200 724.0000 1.0000
48.9300 681.0000 1.0000
48.9400 670.0000 1.0000
48.9500 660.0000 1.0000
48.9600 632.0000 1.0000
48.9700 698.0000 1.0000
48.9800 684.0000 1.0000
48.9900 714.0000 1.0000
49.0000 679.0000 1.0000
49.0100 698.0000 1.0000
49.0200 705.0000 1.0000
49.0300 648.0000 1.0000
49.0400 672.0000 1.0000
49.0500 700.0000 1.0000
49.0600 687.0000 1.0000
49.0700 688.0000 1.0000
49.0800 665.0000 1.0000
49.0900 673.0000 1.0000
49.1000 685.0000 1.0000
49.1100 672.0000 1.0000
49.1200 680.0000 1.0000
49.1300 660.0000 1.0000
49.1400 667.0000 1.0000
49.1500 676.0000 1.0000
49.1600 661.0000 1.0000
49.1700 655.0000 1.0000
49.1800 711.0000 1.0000
49.1900 699.0000 1.0000
49.2000 694.0000 1.0000
49.2100 664.0000 1.0000
49.2200 648.0000 1.0000
49.2300 703.0000 1.0000
49.2400 724.0000 1.0000
49.2500 704.0000 1.0000
49.2600 673.0000 1.0000
49.2700 713.0000 1.0000
49.2800 662.0000 1.0000
49.2900 637.0000 1.0000
49.3000 711.0000 1.0000
49.3100 719.0000 1.0000
49.3200 700.0000 1.0000
49.3300 673.0000 1.0000
49.3400 667.0000 1.0000
49.3500 661.0000 1.0000
49.3600 642.0000 1.0000
49.3700 649.0000 1.0000
49.3800 688.0000 1.0000
49.3900 685.0000 1.0000
49.4000 647.0000 1.0000
49.4100 668.0000 1.0000
49.4200 653.0000 1.0000
49.4300 678.0000 1.0000
49.4400 663.0000 1.0000
49.4500 639.0000 1.0000
49.4600 671.0000 1.0000
49.4700 683.0000 1.0000
49.4800 690.0000 1.0000
49.4900 655.0000 1.0000
49.5000 694.0000 1.0000
49.5100 685.0000 1.0000
49.5200 652.0000 1.0000
49.5300 656.0000 1.0000
49.5400 685.0000 1.0000
49.5500 716.0000 1.0000
49.5600 720.0000 1.0000
49.5700 671.0000 1.0000
49.5800 669.0000 1.0000
49.5900 688.0000 1.0000
49.6000 692.0000 1.0000
49.6100 701.0000 1.0000
49.6200 653.0000 1.0000
49.6300 677.0000 1.0000
49.6400 710.0000 1.0000
49.6500 672.0000 1.0000
49.6600 656.0000 1.0000
49.6700 656.0000 1.0000
49.6800 675.0000 1.0000
49.6900 692.0000 1.0000
49.7000 682.0000 1.0000
49.7100 670.0000 1.0000
49.7200 648.0000 1.0000
49.7300 639.0000 1.0000
49.7400 671.0000 1.0000
49.7500 681.0000 1.0000
49.7600 682.0000 1.0000
49.7700 680.0000 1.0000
49.7800 638.0000 1.0000
49.7900 666.0000 1.0000
49.8000 709.0000 1.0000
49.8100 678.0000 1.0000
49.8200 666.0000 1.0000
49.8300 672.0000 1.0000
49.8400 647.0000 1.0000
49.8500 655.0000 1.0000
49.8600 723.0000 1.0000
49.8700 672.0000 1.0000
49.8800 702.0000 1.0000
49.8900 695.0000 1.0000
49.9000 700.0000 1.0000
49.9100 678.0000 1.0000
49.9200 689.0000 1.0000
49.9300 705.0000 1.0000
49.9400 719.0000 1.0000
49.9500 714.0000 1.0000
49.9600 648.0000 1.0000
49.9700 624.0000 1.0000
49.9800 660.0000 1.0000
49.9900 641.0000 1.0000
50.0000 644.0000 1.0000
50.0100 679.0000 1.0000
50.0200 685.0000 1.0000
50.0300 653.0000 1.0000
50.0400 679.0000 1.0000
50.0500 676.0000 1.0000
50.0600 693.0000 1.0000
50.0700 677.0000 1.0000
50.0800 676.0000 1.0000
50.0900 692.0000 1.0000
50.1000 693.0000 1.0000
50.1100 653.0000 1.0000
50.1200 663.0000 1.0000
50.1300 670.0000 1.0000
50.1400 652.0000 1.0000
50.1500 674.0000 1.0000
50.1600 660.0000 1.0000
50.1700 682.0000 1.0000
50.1800 723.0000 1.0000
50.1900 715.0000 1.0000
50.2000 713.0000 1.0000
50.2100 715.0000 1.0000
50.2200 700.0000 1.0000
50.2300 690.0000 1.0000
50.2400 682.0000 1.0000
50.2500 679.0000 1.0000
50.2600 716.0000 1.0000
50.2700 697.0000 1.0000
50.2800 666.0000 1.0000
50.2900 634.0000 1.0000
50.3000 654.0000 1.0000
50.3100 674.0000 1.0000
50.3200 692.0000 1.0000
50.3300 691.0000 1.0000
50.3400 703.0000 1.0000
50.3500 708.0000 1.0000
50.3600 656.0000 1.0000
50.3700 723.0000 1.0000
50.3800 716.0000 1.0000
50.3900 722.0000 1.0000
50.4000 695.0000 1.0000
50.4100 651.0000 1.0000
50.4200 682.0000 1.0000
50.4300 708.0000 1.0000
50.4400 712.0000 1.0000
50.4500 689.0000 1.0000
50.4600 707.0000 1.0000
50.4700 670.0000 1.0000
50.4800 702.0000 1.0000
50.4900 712.0000 1.0000
50.5000 694.0000 1.0000
50.5100 698.0000 1.0000
50.5200 693.0000 1.0000
50.5300 650.0000 1.0000
50.5400 660.0000 1.0000
50.5500 692.0000 1.0000
50.5600 742.0000 1.0000
50.5700 676.0000 1.0000
50.5800 683.0000 1.0000
50.5900 684.0000 1.0000
50.6000 689.0000 1.0000
50.6100 713.0000 1.0000
50.6200 670.0000 1.0000
50.6300 703.0000 1.0000
50.6400 690.0000 1.0000
50.6500 697.0000 1.0000
50.6600 704.0000 1.0000
50.6700 678.0000 1.0000
50.6800 715.0000 1.0000
50.6900 730.0000 1.0000
50.7000 704.0000 1.0000
50.7100 683.0000 1.0000
50.7200 728.0000 1.0000
50.7300 673.0000 1.0000
50.7400 680.0000 1.0000
50.7500 697.0000 1.0000
50.7600 725.0000 1.0000
50.7700 711.0000 1.0000
50.7800 670.0000 1.0000
50.7900 665.0000 1.0000
50.8000 633.0000 1.0000
50.8100 646.0000 1.0000
50.8200 644.0000 1.0000
50.8300 672.0000 1.0000
50.8400 700.0000 1.0000
50.8500 710.0000 1.0000
50.8600 695.0000 1.0000
50.8700 689.0000 1.0000
50.8800 729.0000 1.0000
50.8900 679.0000 1.0000
50.9000 665.0000 1.0000
50.9100 651.0000 1.0000
50.9200 698.0000 1.0000
50.9300 699.0000 1.0000
50.9400 735.0000 1.0000
50.9500 656.0000 1.0000
50.9600 685.0000 1.0000
50.9700 640.0000 1.0000
50.9800 651.0000 1.0000
50.9900 667.0000 1.0000
51.0000 705.0000 1.0000
51.0100 689.0000 1.0000
51.0200 667.0000 1.0000
51.0300 699.0000 1.0000
51.0400 669.0000 1.0000
51.0500 667.0000 1.0000
51.0600 660.0000 1.0000
51.0700 688.0000 1.0000
51.0800 723.0000 1.0000
51.0900 698.0000 1.0000
51.1000 687.0000 1.0000
51.1100 686.0000 1.0000
51.1200 715.0000 1.0000
51.1300 693.0000 1.0000
51.1400 690.0000 1.0000
51.1500 677.0000 1.0000
51.1600 666.0000 1.0000
51.1700 695.0000 1.0000
51.1800 684.0000 1.0000
51.1900 705.0000 1.0000
51.2000 659.0000 1.0000
51.2100 663.0000 1.0000
51.2200 697.0000 1.0000
51.2300 685.0000 1.0000
51.2400 676.0000 1.0000
51.2500 672.0000 1.0000
51.2600 665.0000 1.0000
51.2700 672.0000 1.0000
51.2800 761.0000 1.0000
51.2900 694.0000 1.0000
51.3000 682.0000 1.0000
51.3100 713.0000 1.0000
51.3200 710.0000 1.0000
51.3300 693.0000 1.0000
51.3400 641.0000 1.0000
51.3500 715.0000 1.0000
51.3600 693.0000 1.0000
51.3700 709.0000 1.0000
51.3800 673.0000 1.0000
51.3900 700.0000 1.0000
51.4000 708.0000 1.0000
51.4100 685.0000 1.0000
51.4200 692.0000 1.0000
51.4300 734.0000 1.0000
51.4400 732.0000 1.0000
51.4500 712.0000 1.0000
51.4600 705.0000 1.0000
51.4700 700.0000 1.0000
51.4800 685.0000 1.0000
51.4900 741.0000 1.0000
51.5000 681.0000 1.0000
51.5100 741.0000 1.0000
51.5200 712.0000 1.0000
51.5300 708.0000 1.0000
51.5400 728.0000 1.0000
51.5500 752.0000 1.0000
51.5600 712.0000 1.0000
51.5700 704.0000 1.0000
51.5800 759.0000 1.0000
51.5900 746.0000 1.0000
51.6000 710.0000 1.0000
51.6100 697.0000 1.0000
51.6200 702.0000 1.0000
51.6300 706.0000 1.0000
51.6400 697.0000 1.0000
51.6500 730.0000 1.0000
51.6600 720.0000 1.0000
51.6700 704.0000 1.0000
51.6800 735.0000 1.0000
51.6900 730.0000 1.0000
51.7000 775.0000 1.0000
51.7100 788.0000 1.0000
51.7200 772.0000 1.0000
51.7300 751.0000 1.0000
51.7400 752.0000 1.0000
51.7500 736.0000 1.0000
51.7600 806.0000 1.0000
51.7700 790.0000 1.0000
51.7800 753.0000 1.0000
51.7900 769.0000 1.0000
51.8000 808.0000 1.0000
51.8100 774.0000 1.0000
51.8200 795.0000 1.0000
51.8300 827.0000 1.0000
51.8400 845.0000 1.0000
51.8500 787.0000 1.0000
51.8600 880.0000 1.0000
51.8700 905.0000 1.0000
51.8800 917.0000 1.0000
51.8900 907.0000 1.0000
51.9000 915.0000 1.0000
51.9100 927.0000 1.0000
51.9200 992.0000 1.0000
51.9300 1023.0000 1.0000
51.9400 1031.0000 1.0000
51.9500 1070.0000 1.0000
51.9600 1113.0000 1.0000
51.9700 1115.0000 1.0000
51.9800 1168.0000 1.0000
51.9900 1231.0000 1.0000
52.0000 1170.0000 1.0000
52.0100 1236.0000 1.0000
52.0200 1302.0000 1.0000
52.0300 1380.0000 1.0000
52.0400 1426.0000 1.0000
52.0500 1533.0000 1.0000
52.0600 1613.0000 1.0000
52.0700 1718.0000 1.0000
52.0800 1711.0000 1.0000
52.0900 1848.0000 1.0000
52.1000 2022.0000 1.0000
52.1100 2149.0000 1.0000
52.1200 2249.0000 1.0000
52.1300 2490.0000 1.0000
52.1400 2682.0000 1.0000
52.1500 2952.0000 1.0000
52.1600 3247.0000 1.0000
52.1700 3454.0000 1.0000
52.1800 3879.0000 1.0000
52.1900 4207.0000 1.0000
52.2000 4605.0000 1.0000
52.2100 4938.0000 1.0000
52.2200 5232.0000 1.0000
52.2300 5514.0000 1.0000
52.2400 5776.0000 1.0000
52.2500 5885.0000 1.0000
52.2600 5941.0000 1.0000
52.2700 6026.0000 1.0000
52.2800 5972.0000 1.0000
52.2900 5730.0000 1.0000
52.3000 5644.0000 1.0000
52.3100 5424.0000 1.0000
52.3200 5224.0000 1.0000
52.3300 4985.0000 1.0000
52.3400 4939.0000 1.0000
52.3500 4787.0000 1.0000
52.3600 4699.0000 1.0000
52.3700 4488.0000 1.0000
52.3800 4532.0000 1.0000
52.3900 4411.0000 1.0000
52.4000 4160.0000 1.0000
52.4100 4014.0000 1.0000
52.4200 3868.0000 1.0000
52.4300 3642.0000 1.0000
52.4400 3454.0000 1.0000
52.4500 3159.0000 1.0000
52.4600 2874.0000 1.0000
52.4700 2590.0000 1.0000
52.4800 2386.0000 1.0000
52.4900 2287.0000 1.0000
52.5000 2108.0000 1.0000
52.5100 1975.0000 1.0000
52.5200 1870.0000 1.0000
52.5300 1776.0000 1.0000
52.5400 1665.0000 1.0000
52.5500 1561.0000 1.0000
52.5600 1491.0000 1.0000
52.5700 1400.0000 1.0000
52.5800 1314.0000 1.0000
52.5900 1220.0000 1.0000
52.6000 1285.0000 1.0000
52.6100 1236.0000 1.0000
52.6200 1166.0000 1.0000
52.6300 1153.0000 1.0000
52.6400 1099.0000 1.0000
52.6500 1065.0000 1.0000
52.6600 1024.0000 1.0000
52.6700 971.0000 1.0000
52.6800 1005.0000 1.0000
52.6900 1015.0000 1.0000
52.7000 979.0000 1.0000
52.7100 910.0000 1.0000
52.7200 926.0000 1.0000
52.7300 887.0000 1.0000
52.7400 927.0000 1.0000
52.7500 865.0000 1.0000
52.7600 849.0000 1.0000
52.7700 870.0000 1.0000
52.7800 869.0000 1.0000
52.7900 879.0000 1.0000
52.8000 819.0000 1.0000
52.8100 797.0000 1.0000
52.8200 784.0000 1.0000
52.8300 818.0000 1.0000
52.8400 778.0000 1.0000
52.8500 801.0000 1.0000
52.8600 823.0000 1.0000
52.8700 777.0000 1.0000
52.8800 781.0000 1.0000
52.8900 751.0000 1.0000
52.9000 784.0000 1.0000
52.9100 770.0000 1.0000
52.9200 751.0000 1.0000
52.9300 781.0000 1.0000
52.9400 787.0000 1.0000
52.9500 763.0000 1.0000
52.9600 761.0000 1.0000
52.9700 790.0000 1.0000
52.9800 718.0000 1.0000
52.9900 722.0000 1.0000
53.0000 790.0000 1.0000
53.0100 761.0000 1.0000
53.0200 758.0000 1.0000
53.0300 783.0000 1.0000
53.0400 784.0000 1.0000
53.0500 745.0000 1.0000
53.0600 699.0000 1.0000
53.0700 701.0000 1.0000
53.0800 734.0000 1.0000
53.0900 735.0000 1.0000
53.1000 710.0000 1.0000
53.1100 700.0000 1.0000
53.1200 730.0000 1.0000
53.1300 731.0000 1.0000
53.1400 702.0000 1.0000
53.1500 755.0000 1.0000
53.1600 690.0000 1.0000
53.1700 722.0000 1.0000
53.1800 656.0000 1.0000
53.1900 713.0000 1.0000
53.2000 686.0000 1.0000
53.2100 688.0000 1.0000
53.2200 684.0000 1.0000
53.2300 689.0000 1.0000
53.2400 697.0000 1.0000
53.2500 694.0000 1.0000
53.2600 695.0000 1.0000
53.2700 694.0000 1.0000
53.2800 712.0000 1.0000
53.2900 695.0000 1.0000
53.3000 687.0000 1.0000
53.3100 680.0000 1.0000
53.3200 710.0000 1.0000
53.3300 685.0000 1.0000
53.3400 690.0000 1.0000
53.3500 690.0000 1.0000
53.3600 697.0000 1.0000
53.3700 687.0000 1.0000
53.3800 664.0000 1.0000
53.3900 685.0000 1.0000
53.4000 657.0000 1.0000
53.4100 693.0000 1.0000
53.4200 672.0000 1.0000
53.4300 665.0000 1.0000
53.4400 691.0000 1.0000
53.4500 694.0000 1.0000
53.4600 683.0000 1.0000
53.4700 685.0000 1.0000
53.4800 692.0000 1.0000
53.4900 657.0000 1.0000
53.5000 686.0000 1.0000
53.5100 665.0000 1.0000
53.5200 641.0000 1.0000
53.5300 653.0000 1.0000
53.5400 600.0000 1.0000
53.5500 686.0000 1.0000
53.5600 688.0000 1.0000
53.5700 689.0000 1.0000
53.5800 680.0000 1.0000
53.5900 642.0000 1.0000
53.6000 697.0000 1.0000
53.6100 673.0000 1.0000
53.6200 641.0000 1.0000
53.6300 703.0000 1.0000
53.6400 707.0000 1.0000
53.6500 693.0000 1.0000
53.6600 674.0000 1.0000
53.6700 683.0000 1.0000
53.6800 643.0000 1.0000
53.6900 639.0000 1.0000
53.7000 635.0000 1.0000
53.7100 669.0000 1.0000
53.7200 679.0000 1.0000
53.7300 661.0000 1.0000
53.7400 670.0000 1.0000
53.7500 691.0000 1.0000
53.7600 666.0000 1.0000
53.7700 666.0000 1.0000
53.7800 667.0000 1.0000
53.7900 625.0000 1.0000
53.8000 706.0000 1.0000
53.8100 643.0000 1.0000
53.8200 657.0000 1.0000
53.8300 650.0000 1.0000
53.8400 674.0000 1.0000
53.8500 698.0000 1.0000
53.8600 675.0000 1.0000
53.8700 654.0000 1.0000
53.8800 643.0000 1.0000
53.8900 633.0000 1.0000
53.9000 657.0000 1.0000
53.9100 633.0000 1.0000
53.9200 663.0000 1.0000
53.9300 654.0000 1.0000
53.9400 645.0000 1.0000
53.9500 659.0000 1.0000
53.9600 698.0000 1.0000
53.9700 647.0000 1.0000
53.9800 691.0000 1.0000
53.9900 693.0000 1.0000
54.0000 656.0000 1.0000
54.0100 673.0000 1.0000
54.0200 691.0000 1.0000
54.0300 700.0000 1.0000
54.0400 656.0000 1.0000
54.0500 690.0000 1.0000
54.0600 658.0000 1.0000
54.0700 691.0000 1.0000
54.0800 694.0000 1.0000
54.0900 656.0000 1.0000
54.1000 658.0000 1.0000
54.1100 685.0000 1.0000
54.1200 704.0000 1.0000
54.1300 648.0000 1.0000
54.1400 685.0000 1.0000
54.1500 652.0000 1.0000
54.1600 694.0000 1.0000
54.1700 666.0000 1.0000
54.1800 628.0000 1.0000
54.1900 640.0000 1.0000
54.2000 653.0000 1.0000
54.2100 687.0000 1.0000
54.2200 713.0000 1.0000
54.2300 665.0000 1.0000
54.2400 695.0000 1.0000
54.2500 653.0000 1.0000
54.2600 666.0000 1.0000
54.2700 679.0000 1.0000
54.2800 656.0000 1.0000
54.2900 674.0000 1.0000
54.3000 625.0000 1.0000
54.3100 656.0000 1.0000
54.3200 613.0000 1.0000
54.3300 678.0000 1.0000
54.3400 670.0000 1.0000
54.3500 688.0000 1.0000
54.3600 643.0000 1.0000
54.3700 705.0000 1.0000
54.3800 675.0000 1.0000
54.3900 726.0000 1.0000
54.4000 671.0000 1.0000
54.4100 690.0000 1.0000
54.4200 706.0000 1.0000
54.4300 664.0000 1.0000
54.4400 690.0000 1.0000
54.4500 690.0000 1.0000
54.4600 649.0000 1.0000
54.4700 664.0000 1.0000
54.4800 654.0000 1.0000
54.4900 648.0000 1.0000
54.5000 639.0000 1.0000
54.5100 668.0000 1.0000
54.5200 632.0000 1.0000
54.5300 668.0000 1.0000
54.5400 673.0000 1.0000
54.5500 746.0000 1.0000
54.5600 682.0000 1.0000
54.5700 672.0000 1.0000
54.5800 650.0000 1.0000
54.5900 648.0000 1.0000
54.6000 715.0000 1.0000
54.6100 688.0000 1.0000
54.6200 711.0000 1.0000
54.6300 706.0000 1.0000
54.6400 696.0000 1.0000
54.6500 632.0000 1.0000
54.6600 674.0000 1.0000
54.6700 678.0000 1.0000
54.6800 711.0000 1.0000
54.6900 684.0000 1.0000
54.7000 670.0000 1.0000
54.7100 692.0000 1.0000
54.7200 693.0000 1.0000
54.7300 688.0000 1.0000
54.7400 668.0000 1.0000
54.7500 693.0000 1.0000
54.7600 700.0000 1.0000
54.7700 730.0000 1.0000
54.7800 726.0000 1.0000
54.7900 705.0000 1.0000
54.8000 746.0000 1.0000
54.8100 727.0000 1.0000
54.8200 695.0000 1.0000
54.8300 720.0000 1.0000
54.8400 703.0000 1.0000
54.8500 669.0000 1.0000
54.8600 649.0000 1.0000
54.8700 679.0000 1.0000
54.8800 683.0000 1.0000
54.8900 705.0000 1.0000
54.9000 708.0000 1.0000
54.9100 688.0000 1.0000
54.9200 741.0000 1.0000
54.9300 757.0000 1.0000
54.9400 703.0000 1.0000
54.9500 727.0000 1.0000
54.9600 740.0000 1.0000
54.9700 740.0000 1.0000
54.9800 728.0000 1.0000
54.9900 708.0000 1.0000
55.0000 761.0000 1.0000
55.0100 755.0000 1.0000
55.0200 737.0000 1.0000
55.0300 785.0000 1.0000
55.0400 718.0000 1.0000
55.0500 722.0000 1.0000
55.0600 799.0000 1.0000
55.0700 802.0000 1.0000
55.0800 795.0000 1.0000
55.0900 819.0000 1.0000
55.1000 822.0000 1.0000
55.1100 805.0000 1.0000
55.1200 849.0000 1.0000
55.1300 869.0000 1.0000
55.1400 865.0000 1.0000
55.1500 890.0000 1.0000
55.1600 918.0000 1.0000
55.1700 935.0000 1.0000
55.1800 956.0000 1.0000
55.1900 940.0000 1.0000
55.2000 1003.0000 1.0000
55.2100 931.0000 1.0000
55.2200 1028.0000 1.0000
55.2300 1095.0000 1.0000
55.2400 1066.0000 1.0000
55.2500 1038.0000 1.0000
55.2600 1057.0000 1.0000
55.2700 1100.0000 1.0000
55.2800 1062.0000 1.0000
55.2900 1101.0000 1.0000
55.3000 1115.0000 1.0000
55.3100 1073.0000 1.0000
55.3200 1056.0000 1.0000
55.3300 1057.0000 1.0000
55.3400 1134.0000 1.0000
55.3500 1039.0000 1.0000
55.3600 1010.0000 1.0000
55.3700 1018.0000 1.0000
55.3800 1005.0000 1.0000
55.3900 942.0000 1.0000
55.4000 1024.0000 1.0000
55.4100 972.0000 1.0000
55.4200 975.0000 1.0000
55.4300 974.0000 1.0000
55.4400 926.0000 1.0000
55.4500 948.0000 1.0000
55.4600 965.0000 1.0000
55.4700 914.0000 1.0000
55.4800 865.0000 1.0000
55.4900 889.0000 1.0000
55.5000 816.0000 1.0000
55.5100 824.0000 1.0000
55.5200 797.0000 1.0000
55.5300 803.0000 1.0000
55.5400 807.0000 1.0000
55.5500 742.0000 1.0000
55.5600 747.0000 1.0000
55.5700 733.0000 1.0000
55.5800 768.0000 1.0000
55.5900 786.0000 1.0000
55.6000 764.0000 1.0000
55.6100 781.0000 1.0000
55.6200 761.0000 1.0000
55.6300 720.0000 1.0000
55.6400 768.0000 1.0000
55.6500 724.0000 1.0000
55.6600 735.0000 1.0000
55.6700 739.0000 1.0000
55.6800 714.0000 1.0000
55.6900 711.0000 1.0000
55.7000 716.0000 1.0000
55.7100 725.0000 1.0000
55.7200 707.0000 1.0000
55.7300 698.0000 1.0000
55.7400 679.0000 1.0000
55.7500 666.0000 1.0000
55.7600 685.0000 1.0000
55.7700 711.0000 1.0000
55.7800 699.0000 1.0000
55.7900 704.0000 1.0000
55.8000 748.0000 1.0000
55.8100 698.0000 1.0000
55.8200 724.0000 1.0000
55.8300 675.0000 1.0000
55.8400 671.0000 1.0000
55.8500 671.0000 1.0000
55.8600 690.0000 1.0000
55.8700 632.0000 1.0000
55.8800 663.0000 1.0000
55.8900 655.0000 1.0000
55.9000 648.0000 1.0000
55.9100 652.0000 1.0000
55.9200 700.0000 1.0000
55.9300 662.0000 1.0000
55.9400 657.0000 1.0000
55.9500 649.0000 1.0000
55.9600 631.0000 1.0000
55.9700 698.0000 1.0000
55.9800 679.0000 1.0000
55.9900 688.0000 1.0000
56.0000 651.0000 1.0000
56.0100 653.0000 1.0000
56.0200 641.0000 1.0000
56.0300 661.0000 1.0000
56.0400 718.0000 1.0000
56.0500 668.0000 1.0000
56.0600 644.0000 1.0000
56.0700 631.0000 1.0000
56.0800 632.0000 1.0000
56.0900 657.0000 1.0000
56.1000 618.0000 1.0000
56.1100 652.0000 1.0000
56.1200 623.0000 1.0000
56.1300 689.0000 1.0000
56.1400 644.0000 1.0000
56.1500 695.0000 1.0000
56.1600 675.0000 1.0000
56.1700 644.0000 1.0000
56.1800 692.0000 1.0000
56.1900 657.0000 1.0000
56.2000 620.0000 1.0000
56.2100 642.0000 1.0000
56.2200 670.0000 1.0000
56.2300 649.0000 1.0000
56.2400 690.0000 1.0000
56.2500 636.0000 1.0000
56.2600 665.0000 1.0000
56.2700 669.0000 1.0000
56.2800 678.0000 1.0000
56.2900 675.0000 1.0000
56.3000 659.0000 1.0000
56.3100 642.0000 1.0000
56.3200 631.0000 1.0000
56.3300 652.0000 1.0000
56.3400 634.0000 1.0000
56.3500 654.0000 1.0000
56.3600 605.0000 1.0000
56.3700 669.0000 1.0000
56.3800 617.0000 1.0000
56.3900 639.0000 1.0000
56.4000 615.0000 1.0000
56.4100 675.0000 1.0000
56.4200 649.0000 1.0000
56.4300 675.0000 1.0000
56.4400 620.0000 1.0000
56.4500 643.0000 1.0000
56.4600 637.0000 1.0000
56.4700 674.0000 1.0000
56.4800 654.0000 1.0000
56.4900 677.0000 1.0000
56.5000 646.0000 1.0000
56.5100 626.0000 1.0000
56.5200 639.0000 1.0000
56.5300 656.0000 1.0000
56.5400 659.0000 1.0000
56.5500 651.0000 1.0000
56.5600 598.0000 1.0000
56.5700 636.0000 1.0000
56.5800 661.0000 1.0000
56.5900 647.0000 1.0000
56.6000 635.0000 1.0000
56.6100 700.0000 1.0000
56.6200 636.0000 1.0000
56.6300 611.0000 1.0000
56.6400 629.0000 1.0000
56.6500 629.0000 1.0000
56.6600 644.0000 1.0000
56.6700 649.0000 1.0000
56.6800 656.0000 1.0000
56.6900 648.0000 1.0000
56.7000 667.0000 1.0000
56.7100 632.0000 1.0000
56.7200 615.0000 1.0000
56.7300 671.0000 1.0000
56.7400 638.0000 1.0000
56.7500 618.0000 1.0000
56.7600 648.0000 1.0000
56.7700 613.0000 1.0000
56.7800 637.0000 1.0000
56.7900 635.0000 1.0000
56.8000 614.0000 1.0000
56.8100 648.0000 1.0000
56.8200 646.0000 1.0000
56.8300 638.0000 1.0000
56.8400 595.0000 1.0000
56.8500 658.0000 1.0000
56.8600 609.0000 1.0000
56.8700 629.0000 1.0000
56.8800 654.0000 1.0000
56.8900 641.0000 1.0000
56.9000 621.0000 1.0000
56.9100 653.0000 1.0000
56.9200 638.0000 1.0000
56.9300 640.0000 1.0000
56.9400 636.0000 1.0000
56.9500 632.0000 1.0000
56.9600 650.0000 1.0000
56.9700 664.0000 1.0000
56.9800 611.0000 1.0000
56.9900 679.0000 1.0000
57.0000 684.0000 1.0000
57.0100 631.0000 1.0000
57.0200 613.0000 1.0000
57.0300 634.0000 1.0000
57.0400 625.0000 1.0000
57.0500 617.0000 1.0000
57.0600 632.0000 1.0000
57.0700 664.0000 1.0000
57.0800 635.0000 1.0000
57.0900 632.0000 1.0000
57.1000 645.0000 1.0000
57.1100 661.0000 1.0000
57.1200 660.0000 1.0000
57.1300 634.0000 1.0000
57.1400 679.0000 1.0000
57.1500 647.0000 1.0000
57.1600 649.0000 1.0000
57.1700 644.0000 1.0000
57.1800 640.0000 1.0000
57.1900 621.0000 1.0000
57.2000 643.0000 1.0000
57.2100 641.0000 1.0000
57.2200 638.0000 1.0000
57.2300 678.0000 1.0000
57.2400 621.0000 1.0000
57.2500 639.0000 1.0000
57.2600 662.0000 1.0000
57.2700 643.0000 1.0000
57.2800 658.0000 1.0000
57.2900 683.0000 1.0000
57.3000 668.0000 1.0000
57.3100 636.0000 1.0000
57.3200 652.0000 1.0000
57.3300 648.0000 1.0000
57.3400 644.0000 1.0000
57.3500 668.0000 1.0000
57.3600 626.0000 1.0000
57.3700 640.0000 1.0000
57.3800 640.0000 1.0000
57.3900 640.0000 1.0000
57.4000 664.0000 1.0000
57.4100 603.0000 1.0000
57.4200 645.0000 1.0000
57.4300 617.0000 1.0000
57.4400 645.0000 1.0000
57.4500 609.0000 1.0000
57.4600 628.0000 1.0000
57.4700 642.0000 1.0000
57.4800 620.0000 1.0000
57.4900 651.0000 1.0000
57.5000 673.0000 1.0000
57.5100 613.0000 1.0000
57.5200 656.0000 1.0000
57.5300 605.0000 1.0000
57.5400 650.0000 1.0000
57.5500 648.0000 1.0000
57.5600 620.0000 1.0000
57.5700 640.0000 1.0000
57.5800 632.0000 1.0000
57.5900 682.0000 1.0000
57.6000 666.0000 1.0000
57.6100 669.0000 1.0000
57.6200 624.0000 1.0000
57.6300 637.0000 1.0000
57.6400 614.0000 1.0000
57.6500 615.0000 1.0000
57.6600 655.0000 1.0000
57.6700 659.0000 1.0000
57.6800 632.0000 1.0000
57.6900 609.0000 1.0000
57.7000 648.0000 1.0000
57.7100 602.0000 1.0000
57.7200 645.0000 1.0000
57.7300 627.0000 1.0000
57.7400 632.0000 1.0000
57.7500 665.0000 1.0000
57.7600 653.0000 1.0000
57.7700 642.0000 1.0000
57.7800 674.0000 1.0000
57.7900 650.0000 1.0000
57.8000 659.0000 1.0000
57.8100 608.0000 1.0000
57.8200 619.0000 1.0000
57.8300 647.0000 1.0000
57.8400 671.0000 1.0000
57.8500 642.0000 1.0000
57.8600 641.0000 1.0000
57.8700 642.0000 1.0000
57.8800 634.0000 1.0000
57.8900 649.0000 1.0000
57.9000 627.0000 1.0000
57.9100 632.0000 1.0000
57.9200 660.0000 1.0000
57.9300 678.0000 1.0000
57.9400 672.0000 1.0000
57.9500 694.0000 1.0000
57.9600 649.0000 1.0000
57.9700 653.0000 1.0000
57.9800 642.0000 1.0000
57.9900 647.0000 1.0000
58.0000 621.0000 1.0000
58.0100 659.0000 1.0000
58.0200 662.0000 1.0000
58.0300 660.0000 1.0000
58.0400 668.0000 1.0000
58.0500 622.0000 1.0000
58.0600 654.0000 1.0000
58.0700 680.0000 1.0000
58.0800 630.0000 1.0000
58.0900 630.0000 1.0000
58.1000 666.0000 1.0000
58.1100 646.0000 1.0000
58.1200 634.0000 1.0000
58.1300 690.0000 1.0000
58.1400 685.0000 1.0000
58.1500 624.0000 1.0000
58.1600 605.0000 1.0000
58.1700 640.0000 1.0000
58.1800 639.0000 1.0000
58.1900 647.0000 1.0000
58.2000 647.0000 1.0000
58.2100 643.0000 1.0000
58.2200 668.0000 1.0000
58.2300 646.0000 1.0000
58.2400 641.0000 1.0000
58.2500 650.0000 1.0000
58.2600 645.0000 1.0000
58.2700 690.0000 1.0000
58.2800 666.0000 1.0000
58.2900 657.0000 1.0000
58.3000 650.0000 1.0000
58.3100 672.0000 1.0000
58.3200 648.0000 1.0000
58.3300 644.0000 1.0000
58.3400 658.0000 1.0000
58.3500 667.0000 1.0000
58.3600 655.0000 1.0000
58.3700 655.0000 1.0000
58.3800 672.0000 1.0000
58.3900 635.0000 1.0000
58.4000 599.0000 1.0000
58.4100 657.0000 1.0000
58.4200 638.0000 1.0000
58.4300 645.0000 1.0000
58.4400 634.0000 1.0000
58.4500 628.0000 1.0000
58.4600 630.0000 1.0000
58.4700 646.0000 1.0000
58.4800 614.0000 1.0000
58.4900 620.0000 1.0000
58.5000 668.0000 1.0000
58.5100 629.0000 1.0000
58.5200 632.0000 1.0000
58.5300 659.0000 1.0000
58.5400 625.0000 1.0000
58.5500 658.0000 1.0000
58.5600 690.0000 1.0000
58.5700 648.0000 1.0000
58.5800 628.0000 1.0000
58.5900 642.0000 1.0000
58.6000 658.0000 1.0000
58.6100 659.0000 1.0000
58.6200 636.0000 1.0000
58.6300 604.0000 1.0000
58.6400 618.0000 1.0000
58.6500 628.0000 1.0000
58.6600 661.0000 1.0000
58.6700 602.0000 1.0000
58.6800 589.0000 1.0000
58.6900 639.0000 1.0000
58.7000 643.0000 1.0000
58.7100 634.0000 1.0000
58.7200 628.0000 1.0000
58.7300 619.0000 1.0000
58.7400 635.0000 1.0000
58.7500 676.0000 1.0000
58.7600 627.0000 1.0000
58.7700 637.0000 1.0000
58.7800 669.0000 1.0000
58.7900 661.0000 1.0000
58.8000 646.0000 1.0000
58.8100 646.0000 1.0000
58.8200 623.0000 1.0000
58.8300 663.0000 1.0000
58.8400 627.0000 1.0000
58.8500 658.0000 1.0000
58.8600 655.0000 1.0000
58.8700 618.0000 1.0000
58.8800 627.0000 1.0000
58.8900 634.0000 1.0000
58.9000 599.0000 1.0000
58.9100 674.0000 1.0000
58.9200 685.0000 1.0000
58.9300 663.0000 1.0000
58.9400 633.0000 1.0000
58.9500 629.0000 1.0000
58.9600 612.0000 1.0000
58.9700 618.0000 1.0000
58.9800 664.0000 1.0000
58.9900 612.0000 1.0000
59.0000 641.0000 1.0000
59.0100 680.0000 1.0000
59.0200 624.0000 1.0000
59.0300 666.0000 1.0000
59.0400 593.0000 1.0000
59.0500 598.0000 1.0000
59.0600 651.0000 1.0000
59.0700 675.0000 1.0000
59.0800 667.0000 1.0000
59.0900 647.0000 1.0000
59.1000 626.0000 1.0000
59.1100 643.0000 1.0000
59.1200 592.0000 1.0000
59.1300 653.0000 1.0000
59.1400 678.0000 1.0000
59.1500 647.0000 1.0000
59.1600 601.0000 1.0000
59.1700 641.0000 1.0000
59.1800 662.0000 1.0000
59.1900 641.0000 1.0000
59.2000 627.0000 1.0000
59.2100 599.0000 1.0000
59.2200 668.0000 1.0000
59.2300 664.0000 1.0000
59.2400 656.0000 1.0000
59.2500 603.0000 1.0000
59.2600 655.0000 1.0000
59.2700 648.0000 1.0000
59.2800 635.0000 1.0000
59.2900 661.0000 1.0000
59.3000 671.0000 1.0000
59.3100 690.0000 1.0000
59.3200 692.0000 1.0000
59.3300 686.0000 1.0000
59.3400 656.0000 1.0000
59.3500 634.0000 1.0000
59.3600 665.0000 1.0000
59.3700 671.0000 1.0000
59.3800 597.0000 1.0000
59.3900 656.0000 1.0000
59.4000 657.0000 1.0000
59.4100 667.0000 1.0000
59.4200 665.0000 1.0000
59.4300 652.0000 1.0000
59.4400 641.0000 1.0000
59.4500 601.0000 1.0000
59.4600 667.0000 1.0000
59.4700 612.0000 1.0000
59.4800 642.0000 1.0000
59.4900 640.0000 1.0000
59.5000 619.0000 1.0000
59.5100 624.0000 1.0000
59.5200 660.0000 1.0000
59.5300 628.0000 1.0000
59.5400 637.0000 1.0000
59.5500 634.0000 1.0000
59.5600 644.0000 1.0000
59.5700 644.0000 1.0000
59.5800 629.0000 1.0000
59.5900 605.0000 1.0000
59.6000 649.0000 1.0000
59.6100 642.0000 1.0000
59.6200 634.0000 1.0000
59.6300 636.0000 1.0000
59.6400 638.0000 1.0000
59.6500 633.0000 1.0000
59.6600 680.0000 1.0000
59.6700 642.0000 1.0000
59.6800 657.0000 1.0000
59.6900 672.0000 1.0000
59.7000 644.0000 1.0000
59.7100 655.0000 1.0000
59.7200 645.0000 1.0000
59.7300 668.0000 1.0000
59.7400 648.0000 1.0000
59.7500 634.0000 1.0000
59.7600 656.0000 1.0000
59.7700 652.0000 1.0000
59.7800 642.0000 1.0000
59.7900 599.0000 1.0000
59.8000 609.0000 1.0000
59.8100 605.0000 1.0000
59.8200 663.0000 1.0000
59.8300 688.0000 1.0000
59.8400 611.0000 1.0000
59.8500 632.0000 1.0000
59.8600 648.0000 1.0000
59.8700 664.0000 1.0000
59.8800 633.0000 1.0000
59.8900 613.0000 1.0000
59.9000 641.0000 1.0000
59.9100 633.0000 1.0000
59.9200 594.0000 1.0000
59.9300 587.0000 1.0000
59.9400 634.0000 1.0000
59.9500 624.0000 1.0000
59.9600 660.0000 1.0000
59.9700 630.0000 1.0000
59.9800 655.0000 1.0000
59.9900 645.0000 1.0000
60.0000 628.0000 1.0000
60.0100 653.0000 1.0000
60.0200 629.0000 1.0000
60.0300 649.0000 1.0000
60.0400 630.0000 1.0000
60.0500 625.0000 1.0000
60.0600 598.0000 1.0000
60.0700 590.0000 1.0000
60.0800 619.0000 1.0000
60.0900 657.0000 1.0000
60.1000 643.0000 1.0000
60.1100 614.0000 1.0000
60.1200 663.0000 1.0000
60.1300 651.0000 1.0000
60.1400 619.0000 1.0000
60.1500 643.0000 1.0000
60.1600 673.0000 1.0000
60.1700 664.0000 1.0000
60.1800 659.0000 1.0000
60.1900 640.0000 1.0000
60.2000 662.0000 1.0000
60.2100 607.0000 1.0000
60.2200 615.0000 1.0000
60.2300 644.0000 1.0000
60.2400 638.0000 1.0000
60.2500 646.0000 1.0000
60.2600 668.0000 1.0000
60.2700 670.0000 1.0000
60.2800 630.0000 1.0000
60.2900 606.0000 1.0000
60.3000 643.0000 1.0000
60.3100 655.0000 1.0000
60.3200 640.0000 1.0000
60.3300 602.0000 1.0000
60.3400 602.0000 1.0000
60.3500 616.0000 1.0000
60.3600 646.0000 1.0000
60.3700 637.0000 1.0000
60.3800 616.0000 1.0000
60.3900 622.0000 1.0000
60.4000 628.0000 1.0000
60.4100 636.0000 1.0000
60.4200 632.0000 1.0000
60.4300 636.0000 1.0000
60.4400 648.0000 1.0000
60.4500 635.0000 1.0000
60.4600 623.0000 1.0000
60.4700 622.0000 1.0000
60.4800 625.0000 1.0000
60.4900 630.0000 1.0000
60.5000 633.0000 1.0000
60.5100 657.0000 1.0000
60.5200 667.0000 1.0000
60.5300 598.0000 1.0000
60.5400 646.0000 1.0000
60.5500 650.0000 1.0000
60.5600 664.0000 1.0000
60.5700 652.0000 1.0000
60.5800 649.0000 1.0000
60.5900 637.0000 1.0000
60.6000 645.0000 1.0000
60.6100 657.0000 1.0000
60.6200 620.0000 1.0000
60.6300 666.0000 1.0000
60.6400 636.0000 1.0000
60.6500 646.0000 1.0000
60.6600 613.0000 1.0000
60.6700 613.0000 1.0000
60.6800 617.0000 1.0000
60.6900 656.0000 1.0000
60.7000 621.0000 1.0000
60.7100 621.0000 1.0000
60.7200 621.0000 1.0000
60.7300 654.0000 1.0000
60.7400 605.0000 1.0000
60.7500 627.0000 1.0000
60.7600 634.0000 1.0000
60.7700 625.0000 1.0000
60.7800 608.0000 1.0000
60.7900 619.0000 1.0000
60.8000 609.0000 1.0000
60.8100 661.0000 1.0000
60.8200 618.0000 1.0000
60.8300 614.0000 1.0000
60.8400 613.0000 1.0000
60.8500 648.0000 1.0000
60.8600 685.0000 1.0000
60.8700 660.0000 1.0000
60.8800 650.0000 1.0000
60.8900 637.0000 1.0000
60.9000 628.0000 1.0000
60.9100 649.0000 1.0000
60.9200 659.0000 1.0000
60.9300 597.0000 1.0000
60.9400 631.0000 1.0000
60.9500 665.0000 1.0000
60.9600 621.0000 1.0000
60.9700 620.0000 1.0000
60.9800 631.0000 1.0000
60.9900 665.0000 1.0000
61.0000 665.0000 1.0000
61.0100 630.0000 1.0000
61.0200 622.0000 1.0000
61.0300 623.0000 1.0000
61.0400 643.0000 1.0000
61.0500 606.0000 1.0000
61.0600 646.0000 1.0000
61.0700 616.0000 1.0000
61.0800 607.0000 1.0000
61.0900 673.0000 1.0000
61.1000 639.0000 1.0000
61.1100 625.0000 1.0000
61.1200 620.0000 1.0000
61.1300 662.0000 1.0000
61.1400 672.0000 1.0000
61.1500 644.0000 1.0000
61.1600 656.0000 1.0000
61.1700 664.0000 1.0000
61.1800 605.0000 1.0000
61.1900 638.0000 1.0000
61.2000 644.0000 1.0000
61.2100 669.0000 1.0000
61.2200 647.0000 1.0000
61.2300 628.0000 1.0000
61.2400 583.0000 1.0000
61.2500 631.0000 1.0000
61.2600 669.0000 1.0000
61.2700 669.0000 1.0000
61.2800 673.0000 1.0000
61.2900 623.0000 1.0000
61.3000 676.0000 1.0000
61.3100 674.0000 1.0000
61.3200 683.0000 1.0000
61.3300 631.0000 1.0000
61.3400 667.0000 1.0000
61.3500 630.0000 1.0000
61.3600 631.0000 1.0000
61.3700 617.0000 1.0000
61.3800 673.0000 1.0000
61.3900 668.0000 1.0000
61.4000 639.0000 1.0000
61.4100 628.0000 1.0000
61.4200 621.0000 1.0000
61.4300 677.0000 1.0000
61.4400 656.0000 1.0000
61.4500 678.0000 1.0000
61.4600 657.0000 1.0000
61.4700 670.0000 1.0000
61.4800 649.0000 1.0000
61.4900 676.0000 1.0000
61.5000 658.0000 1.0000
61.5100 715.0000 1.0000
61.5200 677.0000 1.0000
61.5300 683.0000 1.0000
61.5400 653.0000 1.0000
61.5500 617.0000 1.0000
61.5600 649.0000 1.0000
61.5700 672.0000 1.0000
61.5800 682.0000 1.0000
61.5900 663.0000 1.0000
61.6000 664.0000 1.0000
61.6100 696.0000 1.0000
61.6200 660.0000 1.0000
61.6300 667.0000 1.0000
61.6400 656.0000 1.0000
61.6500 649.0000 1.0000
61.6600 703.0000 1.0000
61.6700 656.0000 1.0000
61.6800 654.0000 1.0000
61.6900 660.0000 1.0000
61.7000 675.0000 1.0000
61.7100 683.0000 1.0000
61.7200 678.0000 1.0000
61.7300 654.0000 1.0000
61.7400 679.0000 1.0000
61.7500 668.0000 1.0000
61.7600 704.0000 1.0000
61.7700 680.0000 1.0000
61.7800 675.0000 1.0000
61.7900 696.0000 1.0000
61.8000 721.0000 1.0000
61.8100 670.0000 1.0000
61.8200 704.0000 1.0000
61.8300 719.0000 1.0000
61.8400 689.0000 1.0000
61.8500 670.0000 1.0000
61.8600 713.0000 1.0000
61.8700 739.0000 1.0000
61.8800 785.0000 1.0000
61.8900 771.0000 1.0000
61.9000 722.0000 1.0000
61.9100 704.0000 1.0000
61.9200 744.0000 1.0000
61.9300 764.0000 1.0000
61.9400 756.0000 1.0000
61.9500 828.0000 1.0000
61.9600 791.0000 1.0000
61.9700 785.0000 1.0000
61.9800 816.0000 1.0000
61.9900 802.0000 1.0000
62.0000 844.0000 1.0000
62.0100 867.0000 1.0000
62.0200 894.0000 1.0000
62.0300 900.0000 1.0000
62.0400 888.0000 1.0000
62.0500 931.0000 1.0000
62.0600 923.0000 1.0000
62.0700 960.0000 1.0000
62.0800 947.0000 1.0000
62.0900 1013.0000 1.0000
62.1000 1017.0000 1.0000
62.1100 1007.0000 1.0000
62.1200 1029.0000 1.0000
62.1300 1152.0000 1.0000
62.1400 1139.0000 1.0000
62.1500 1207.0000 1.0000
62.1600 1198.0000 1.0000
62.1700 1233.0000 1.0000
62.1800 1304.0000 1.0000
62.1900 1367.0000 1.0000
62.2000 1315.0000 1.0000
62.2100 1379.0000 1.0000
62.2200 1418.0000 1.0000
62.2300 1431.0000 1.0000
62.2400 1468.0000 1.0000
62.2500 1510.0000 1.0000
62.2600 1517.0000 1.0000
62.2700 1506.0000 1.0000
62.2800 1465.0000 1.0000
62.2900 1520.0000 1.0000
62.3000 1470.0000 1.0000
62.3100 1505.0000 1.0000
62.3200 1530.0000 1.0000
62.3300 1506.0000 1.0000
62.3400 1439.0000 1.0000
62.3500 1446.0000 1.0000
62.3600 1508.0000 1.0000
62.3700 1450.0000 1.0000
62.3800 1467.0000 1.0000
62.3900 1439.0000 1.0000
62.4000 1421.0000 1.0000
62.4100 1374.0000 1.0000
62.4200 1360.0000 1.0000
62.4300 1341.0000 1.0000
62.4400 1290.0000 1.0000
62.4500 1335.0000 1.0000
62.4600 1201.0000 1.0000
62.4700 1234.0000 1.0000
62.4800 1176.0000 1.0000
62.4900 1180.0000 1.0000
62.5000 1160.0000 1.0000
62.5100 1151.0000 1.0000
62.5200 1094.0000 1.0000
62.5300 1092.0000 1.0000
62.5400 1060.0000 1.0000
62.5500 1053.0000 1.0000
62.5600 1049.0000 1.0000
62.5700 978.0000 1.0000
62.5800 971.0000 1.0000
62.5900 947.0000 1.0000
62.6000 942.0000 1.0000
62.6100 932.0000 1.0000
62.6200 910.0000 1.0000
62.6300 897.0000 1.0000
62.6400 871.0000 1.0000
62.6500 844.0000 1.0000
62.6600 837.0000 1.0000
62.6700 884.0000 1.0000
62.6800 847.0000 1.0000
62.6900 808.0000 1.0000
62.7000 824.0000 1.0000
62.7100 764.0000 1.0000
62.7200 747.0000 1.0000
62.7300 799.0000 1.0000
62.7400 746.0000 1.0000
62.7500 774.0000 1.0000
62.7600 752.0000 1.0000
62.7700 723.0000 1.0000
62.7800 759.0000 1.0000
62.7900 746.0000 1.0000
62.8000 741.0000 1.0000
62.8100 755.0000 1.0000
62.8200 772.0000 1.0000
62.8300 736.0000 1.0000
62.8400 707.0000 1.0000
62.8500 698.0000 1.0000
62.8600 766.0000 1.0000
62.8700 701.0000 1.0000
62.8800 724.0000 1.0000
62.8900 708.0000 1.0000
62.9000 708.0000 1.0000
62.9100 701.0000 1.0000
62.9200 700.0000 1.0000
62.9300 707.0000 1.0000
62.9400 682.0000 1.0000
62.9500 690.0000 1.0000
62.9600 670.0000 1.0000
62.9700 646.0000 1.0000
62.9800 668.0000 1.0000
62.9900 695.0000 1.0000
63.0000 700.0000 1.0000
63.0100 690.0000 1.0000
63.0200 697.0000 1.0000
63.0300 677.0000 1.0000
63.0400 717.0000 1.0000
63.0500 672.0000 1.0000
63.0600 662.0000 1.0000
63.0700 716.0000 1.0000
63.0800 679.0000 1.0000
63.0900 674.0000 1.0000
63.1000 635.0000 1.0000
63.1100 675.0000 1.0000
63.1200 637.0000 1.0000
63.1300 643.0000 1.0000
63.1400 674.0000 1.0000
63.1500 693.0000 1.0000
63.1600 707.0000 1.0000
63.1700 659.0000 1.0000
63.1800 646.0000 1.0000
63.1900 640.0000 1.0000
63.2000 647.0000 1.0000
63.2100 717.0000 1.0000
63.2200 714.0000 1.0000
63.2300 681.0000 1.0000
63.2400 653.0000 1.0000
63.2500 663.0000 1.0000
63.2600 674.0000 1.0000
63.2700 658.0000 1.0000
63.2800 646.0000 1.0000
63.2900 680.0000 1.0000
63.3000 664.0000 1.0000
63.3100 679.0000 1.0000
63.3200 643.0000 1.0000
63.3300 622.0000 1.0000
63.3400 641.0000 1.0000
63.3500 676.0000 1.0000
63.3600 654.0000 1.0000
63.3700 635.0000 1.0000
63.3800 626.0000 1.0000
63.3900 632.0000 1.0000
63.4000 647.0000 1.0000
63.4100 630.0000 1.0000
63.4200 614.0000 1.0000
63.4300 605.0000 1.0000
63.4400 639.0000 1.0000
63.4500 656.0000 1.0000
63.4600 684.0000 1.0000
63.4700 635.0000 1.0000
63.4800 625.0000 1.0000
63.4900 629.0000 1.0000
63.5000 628.0000 1.0000
63.5100 632.0000 1.0000
63.5200 653.0000 1.0000
63.5300 628.0000 1.0000
63.5400 649.0000 1.0000
63.5500 648.0000 1.0000
63.5600 627.0000 1.0000
63.5700 646.0000 1.0000
63.5800 652.0000 1.0000
63.5900 682.0000 1.0000
63.6000 660.0000 1.0000
63.6100 614.0000 1.0000
63.6200 627.0000 1.0000
63.6300 617.0000 1.0000
63.6400 617.0000 1.0000
63.6500 641.0000 1.0000
63.6600 627.0000 1.0000
63.6700 670.0000 1.0000
63.6800 642.0000 1.0000
63.6900 666.0000 1.0000
63.7000 666.0000 1.0000
63.7100 641.0000 1.0000
63.7200 662.0000 1.0000
63.7300 694.0000 1.0000
63.7400 626.0000 1.0000
63.7500 617.0000 1.0000
63.7600 664.0000 1.0000
63.7700 642.0000 1.0000
63.7800 652.0000 1.0000
63.7900 647.0000 1.0000
63.8000 656.0000 1.0000
63.8100 667.0000 1.0000
63.8200 643.0000 1.0000
63.8300 641.0000 1.0000
63.8400 670.0000 1.0000
63.8500 663.0000 1.0000
63.8600 682.0000 1.0000
63.8700 662.0000 1.0000
63.8800 645.0000 1.0000
63.8900 641.0000 1.0000
63.9000 645.0000 1.0000
63.9100 671.0000 1.0000
63.9200 670.0000 1.0000
63.9300 673.0000 1.0000
63.9400 617.0000 1.0000
63.9500 656.0000 1.0000
63.9600 671.0000 1.0000
63.9700 641.0000 1.0000
63.9800 644.0000 1.0000
63.9900 636.0000 1.0000
64.0000 665.0000 1.0000
64.0100 606.0000 1.0000
64.0200 633.0000 1.0000
64.0300 638.0000 1.0000
64.0400 643.0000 1.0000
64.0500 587.0000 1.0000
64.0600 608.0000 1.0000
64.0700 669.0000 1.0000
64.0800 667.0000 1.0000
64.0900 635.0000 1.0000
64.1000 647.0000 1.0000
64.1100 672.0000 1.0000
64.1200 671.0000 1.0000
64.1300 659.0000 1.0000
64.1400 607.0000 1.0000
64.1500 631.0000 1.0000
64.1600 609.0000 1.0000
64.1700 657.0000 1.0000
64.1800 619.0000 1.0000
64.1900 664.0000 1.0000
64.2000 648.0000 1.0000
64.2100 667.0000 1.0000
64.2200 623.0000 1.0000
64.2300 622.0000 1.0000
64.2400 642.0000 1.0000
64.2500 668.0000 1.0000
64.2600 645.0000 1.0000
64.2700 681.0000 1.0000
64.2800 663.0000 1.0000
64.2900 712.0000 1.0000
64.3000 671.0000 1.0000
64.3100 663.0000 1.0000
64.3200 649.0000 1.0000
64.3300 650.0000 1.0000
64.3400 670.0000 1.0000
64.3500 665.0000 1.0000
64.3600 643.0000 1.0000
64.3700 636.0000 1.0000
64.3800 636.0000 1.0000
64.3900 648.0000 1.0000
64.4000 650.0000 1.0000
64.4100 676.0000 1.0000
64.4200 656.0000 1.0000
64.4300 656.0000 1.0000
64.4400 670.0000 1.0000
64.4500 696.0000 1.0000
64.4600 700.0000 1.0000
64.4700 632.0000 1.0000
64.4800 657.0000 1.0000
64.4900 694.0000 1.0000
64.5000 651.0000 1.0000
64.5100 676.0000 1.0000
64.5200 677.0000 1.0000
64.5300 617.0000 1.0000
64.5400 667.0000 1.0000
64.5500 710.0000 1.0000
64.5600 743.0000 1.0000
64.5700 657.0000 1.0000
64.5800 714.0000 1.0000
64.5900 646.0000 1.0000
64.6000 691.0000 1.0000
64.6100 662.0000 1.0000
64.6200 672.0000 1.0000
64.6300 684.0000 1.0000
64.6400 674.0000 1.0000
64.6500 719.0000 1.0000
64.6600 703.0000 1.0000
64.6700 683.0000 1.0000
64.6800 651.0000 1.0000
64.6900 728.0000 1.0000
64.7000 690.0000 1.0000
64.7100 682.0000 1.0000
64.7200 654.0000 1.0000
64.7300 714.0000 1.0000
64.7400 680.0000 1.0000
64.7500 707.0000 1.0000
64.7600 670.0000 1.0000
64.7700 707.0000 1.0000
64.7800 695.0000 1.0000
64.7900 690.0000 1.0000
64.8000 714.0000 1.0000
64.8100 686.0000 1.0000
64.8200 705.0000 1.0000
64.8300 757.0000 1.0000
64.8400 718.0000 1.0000
64.8500 673.0000 1.0000
64.8600 671.0000 1.0000
64.8700 691.0000 1.0000
64.8800 656.0000 1.0000
64.8900 713.0000 1.0000
64.9000 675.0000 1.0000
64.9100 664.0000 1.0000
64.9200 688.0000 1.0000
64.9300 706.0000 1.0000
64.9400 679.0000 1.0000
64.9500 685.0000 1.0000
64.9600 719.0000 1.0000
64.9700 680.0000 1.0000
64.9800 658.0000 1.0000
64.9900 722.0000 1.0000
65.0000 672.0000 1.0000
65.0100 708.0000 1.0000
65.0200 714.0000 1.0000
65.0300 692.0000 1.0000
65.0400 675.0000 1.0000
65.0500 704.0000 1.0000
65.0600 732.0000 1.0000
65.0700 689.0000 1.0000
65.0800 710.0000 1.0000
65.0900 727.0000 1.0000
65.1000 710.0000 1.0000
65.1100 730.0000 1.0000
65.1200 703.0000 1.0000
65.1300 643.0000 1.0000
65.1400 707.0000 1.0000
65.1500 666.0000 1.0000
65.1600 691.0000 1.0000
65.1700 729.0000 1.0000
65.1800 730.0000 1.0000
65.1900 687.0000 1.0000
65.2000 688.0000 1.0000
65.2100 741.0000 1.0000
65.2200 700.0000 1.0000
65.2300 674.0000 1.0000
65.2400 687.0000 1.0000
65.2500 675.0000 1.0000
65.2600 646.0000 1.0000
65.2700 658.0000 1.0000
65.2800 680.0000 1.0000
65.2900 678.0000 1.0000
65.3000 668.0000 1.0000
65.3100 704.0000 1.0000
65.3200 632.0000 1.0000
65.3300 687.0000 1.0000
65.3400 690.0000 1.0000
65.3500 661.0000 1.0000
65.3600 665.0000 1.0000
65.3700 637.0000 1.0000
65.3800 711.0000 1.0000
65.3900 671.0000 1.0000
65.4000 651.0000 1.0000
65.4100 659.0000 1.0000
65.4200 691.0000 1.0000
65.4300 667.0000 1.0000
65.4400 665.0000 1.0000
65.4500 670.0000 1.0000
65.4600 650.0000 1.0000
65.4700 649.0000 1.0000
65.4800 677.0000 1.0000
65.4900 659.0000 1.0000
65.5000 673.0000 1.0000
65.5100 682.0000 1.0000
65.5200 688.0000 1.0000
65.5300 679.0000 1.0000
65.5400 661.0000 1.0000
65.5500 665.0000 1.0000
65.5600 704.0000 1.0000
65.5700 700.0000 1.0000
65.5800 677.0000 1.0000
65.5900 630.0000 1.0000
65.6000 693.0000 1.0000
65.6100 709.0000 1.0000
65.6200 685.0000 1.0000
65.6300 651.0000 1.0000
65.6400 691.0000 1.0000
65.6500 732.0000 1.0000
65.6600 649.0000 1.0000
65.6700 721.0000 1.0000
65.6800 718.0000 1.0000
65.6900 717.0000 1.0000
65.7000 692.0000 1.0000
65.7100 711.0000 1.0000
65.7200 748.0000 1.0000
65.7300 788.0000 1.0000
65.7400 728.0000 1.0000
65.7500 709.0000 1.0000
65.7600 720.0000 1.0000
65.7700 704.0000 1.0000
65.7800 752.0000 1.0000
65.7900 806.0000 1.0000
65.8000 785.0000 1.0000
65.8100 771.0000 1.0000
65.8200 721.0000 1.0000
65.8300 808.0000 1.0000
65.8400 800.0000 1.0000
65.8500 768.0000 1.0000
65.8600 793.0000 1.0000
65.8700 825.0000 1.0000
65.8800 849.0000 1.0000
65.8900 862.0000 1.0000
65.9000 901.0000 1.0000
65.9100 873.0000 1.0000
65.9200 926.0000 1.0000
65.9300 894.0000 1.0000
65.9400 921.0000 1.0000
65.9500 965.0000 1.0000
65.9600 955.0000 1.0000
65.9700 1033.0000 1.0000
65.9800 946.0000 1.0000
65.9900 1072.0000 1.0000
66.0000 1062.0000 1.0000
66.0100 1106.0000 1.0000
66.0200 1153.0000 1.0000
66.0300 1225.0000 1.0000
66.0400 1204.0000 1.0000
66.0500 1293.0000 1.0000
66.0600 1376.0000 1.0000
66.0700 1421.0000 1.0000
66.0800 1477.0000 1.0000
66.0900 1520.0000 1.0000
66.1000 1622.0000 1.0000
66.1100 1708.0000 1.0000
66.1200 1797.0000 1.0000
66.1300 1923.0000 1.0000
66.1400 2056.0000 1.0000
66.1500 2129.0000 1.0000
66.1600 2236.0000 1.0000
66.1700 2296.0000 1.0000
66.1800 2549.0000 1.0000
66.1900 2658.0000 1.0000
66.2000 2732.0000 1.0000
66.2100 2768.0000 1.0000
66.2200 2936.0000 1.0000
66.2300 2953.0000 1.0000
66.2400 2886.0000 1.0000
66.2500 2933.0000 1.0000
66.2600 2973.0000 1.0000
66.2700 2882.0000 1.0000
66.2800 2886.0000 1.0000
66.2900 2833.0000 1.0000
66.3000 2676.0000 1.0000
66.3100 2680.0000 1.0000
66.3200 2645.0000 1.0000
66.3300 2587.0000 1.0000
66.3400 2560.0000 1.0000
66.3500 2550.0000 1.0000
66.3600 2460.0000 1.0000
66.3700 2398.0000 1.0000
66.3800 2448.0000 1.0000
66.3900 2444.0000 1.0000
66.4000 2448.0000 1.0000
66.4100 2349.0000 1.0000
66.4200 2321.0000 1.0000
66.4300 2245.0000 1.0000
66.4400 2158.0000 1.0000
66.4500 2082.0000 1.0000
66.4600 2020.0000 1.0000
66.4700 1965.0000 1.0000
66.4800 1897.0000 1.0000
66.4900 1796.0000 1.0000
66.5000 1694.0000 1.0000
66.5100 1658.0000 1.0000
66.5200 1612.0000 1.0000
66.5300 1501.0000 1.0000
66.5400 1406.0000 1.0000
66.5500 1414.0000 1.0000
66.5600 1341.0000 1.0000
66.5700 1314.0000 1.0000
66.5800 1203.0000 1.0000
66.5900 1153.0000 1.0000
66.6000 1204.0000 1.0000
66.6100 1143.0000 1.0000
66.6200 1132.0000 1.0000
66.6300 1073.0000 1.0000
66.6400 1054.0000 1.0000
66.6500 1017.0000 1.0000
66.6600 954.0000 1.0000
66.6700 998.0000 1.0000
66.6800 969.0000 1.0000
66.6900 938.0000 1.0000
66.7000 880.0000 1.0000
66.7100 873.0000 1.0000
66.7200 879.0000 1.0000
66.7300 823.0000 1.0000
66.7400 796.0000 1.0000
66.7500 820.0000 1.0000
66.7600 833.0000 1.0000
66.7700 804.0000 1.0000
66.7800 798.0000 1.0000
66.7900 816.0000 1.0000
66.8000 800.0000 1.0000
66.8100 783.0000 1.0000
66.8200 806.0000 1.0000
66.8300 790.0000 1.0000
66.8400 736.0000 1.0000
66.8500 755.0000 1.0000
66.8600 741.0000 1.0000
66.8700 741.0000 1.0000
66.8800 714.0000 1.0000
66.8900 692.0000 1.0000
66.9000 672.0000 1.0000
66.9100 745.0000 1.0000
66.9200 657.0000 1.0000
66.9300 689.0000 1.0000
66.9400 698.0000 1.0000
66.9500 646.0000 1.0000
66.9600 665.0000 1.0000
66.9700 665.0000 1.0000
66.9800 632.0000 1.0000
66.9900 653.0000 1.0000
67.0000 659.0000 1.0000
67.0100 663.0000 1.0000
67.0200 681.0000 1.0000
67.0300 644.0000 1.0000
67.0400 670.0000 1.0000
67.0500 686.0000 1.0000
67.0600 684.0000 1.0000
67.0700 646.0000 1.0000
67.0800 680.0000 1.0000
67.0900 682.0000 1.0000
67.1000 633.0000 1.0000
67.1100 651.0000 1.0000
67.1200 588.0000 1.0000
67.1300 627.0000 1.0000
67.1400 623.0000 1.0000
67.1500 603.0000 1.0000
67.1600 635.0000 1.0000
67.1700 620.0000 1.0000
67.1800 664.0000 1.0000
67.1900 663.0000 1.0000
67.2000 633.0000 1.0000
67.2100 634.0000 1.0000
67.2200 654.0000 1.0000
67.2300 640.0000 1.0000
67.2400 654.0000 1.0000
67.2500 630.0000 1.0000
67.2600 632.0000 1.0000
67.2700 663.0000 1.0000
67.2800 675.0000 1.0000
67.2900 648.0000 1.0000
67.3000 632.0000 1.0000
67.3100 614.0000 1.0000
67.3200 632.0000 1.0000
67.3300 551.0000 1.0000
67.3400 626.0000 1.0000
67.3500 619.0000 1.0000
67.3600 610.0000 1.0000
67.3700 601.0000 1.0000
67.3800 620.0000 1.0000
67.3900 594.0000 1.0000
67.4000 600.0000 1.0000
67.4100 612.0000 1.0000
67.4200 643.0000 1.0000
67.4300 563.0000 1.0000
67.4400 587.0000 1.0000
67.4500 601.0000 1.0000
67.4600 599.0000 1.0000
67.4700 618.0000 1.0000
67.4800 612.0000 1.0000
67.4900 611.0000 1.0000
67.5000 620.0000 1.0000
67.5100 586.0000 1.0000
67.5200 595.0000 1.0000
67.5300 634.0000 1.0000
67.5400 649.0000 1.0000
67.5500 637.0000 1.0000
67.5600 568.0000 1.0000
67.5700 567.0000 1.0000
67.5800 584.0000 1.0000
67.5900 583.0000 1.0000
67.6000 635.0000 1.0000
67.6100 598.0000 1.0000
67.6200 566.0000 1.0000
67.6300 598.0000 1.0000
67.6400 636.0000 1.0000
67.6500 578.0000 1.0000
67.6600 575.0000 1.0000
67.6700 573.0000 1.0000
67.6800 620.0000 1.0000
67.6900 621.0000 1.0000
67.7000 603.0000 1.0000
67.7100 550.0000 1.0000
67.7200 611.0000 1.0000
67.7300 617.0000 1.0000
67.7400 659.0000 1.0000
67.7500 614.0000 1.0000
67.7600 600.0000 1.0000
67.7700 549.0000 1.0000
67.7800 592.0000 1.0000
67.7900 623.0000 1.0000
67.8000 595.0000 1.0000
67.8100 582.0000 1.0000
67.8200 542.0000 1.0000
67.8300 586.0000 1.0000
67.8400 593.0000 1.0000
67.8500 614.0000 1.0000
67.8600 593.0000 1.0000
67.8700 590.0000 1.0000
67.8800 599.0000 1.0000
67.8900 612.0000 1.0000
67.9000 607.0000 1.0000
67.9100 623.0000 1.0000
67.9200 556.0000 1.0000
67.9300 589.0000 1.0000
67.9400 569.0000 1.0000
67.9500 573.0000 1.0000
67.9600 534.0000 1.0000
67.9700 572.0000 1.0000
67.9800 580.0000 1.0000
67.9900 570.0000 1.0000
68.0000 578.0000 1.0000
68.0100 602.0000 1.0000
68.0200 615.0000 1.0000
68.0300 600.0000 1.0000
68.0400 591.0000 1.0000
68.0500 583.0000 1.0000
68.0600 591.0000 1.0000
68.0700 618.0000 1.0000
68.0800 582.0000 1.0000
68.0900 573.0000 1.0000
68.1000 609.0000 1.0000
68.1100 593.0000 1.0000
68.1200 570.0000 1.0000
68.1300 602.0000 1.0000
68.1400 559.0000 1.0000
68.1500 570.0000 1.0000
68.1600 575.0000 1.0000
68.1700 584.0000 1.0000
68.1800 613.0000 1.0000
68.1900 578.0000 1.0000
68.2000 583.0000 1.0000
68.2100 609.0000 1.0000
68.2200 614.0000 1.0000
68.2300 604.0000 1.0000
68.2400 645.0000 1.0000
68.2500 573.0000 1.0000
68.2600 557.0000 1.0000
68.2700 560.0000 1.0000
68.2800 570.0000 1.0000
68.2900 565.0000 1.0000
68.3000 598.0000 1.0000
68.3100 595.0000 1.0000
68.3200 583.0000 1.0000
68.3300 586.0000 1.0000
68.3400 603.0000 1.0000
68.3500 580.0000 1.0000
68.3600 618.0000 1.0000
68.3700 569.0000 1.0000
68.3800 582.0000 1.0000
68.3900 594.0000 1.0000
68.4000 578.0000 1.0000
68.4100 601.0000 1.0000
68.4200 552.0000 1.0000
68.4300 574.0000 1.0000
68.4400 582.0000 1.0000
68.4500 562.0000 1.0000
68.4600 573.0000 1.0000
68.4700 571.0000 1.0000
68.4800 568.0000 1.0000
68.4900 554.0000 1.0000
68.5000 592.0000 1.0000
68.5100 602.0000 1.0000
68.5200 588.0000 1.0000
68.5300 590.0000 1.0000
68.5400 575.0000 1.0000
68.5500 592.0000 1.0000
68.5600 606.0000 1.0000
68.5700 600.0000 1.0000
68.5800 562.0000 1.0000
68.5900 575.0000 1.0000
68.6000 573.0000 1.0000
68.6100 576.0000 1.0000
68.6200 572.0000 1.0000
68.6300 586.0000 1.0000
68.6400 587.0000 1.0000
68.6500 582.0000 1.0000
68.6600 577.0000 1.0000
68.6700 554.0000 1.0000
68.6800 585.0000 1.0000
68.6900 580.0000 1.0000
68.7000 608.0000 1.0000
68.7100 589.0000 1.0000
68.7200 571.0000 1.0000
68.7300 555.0000 1.0000
68.7400 596.0000 1.0000
68.7500 567.0000 1.0000
68.7600 581.0000 1.0000
68.7700 629.0000 1.0000
68.7800 592.0000 1.0000
68.7900 590.0000 1.0000
68.8000 573.0000 1.0000
68.8100 605.0000 1.0000
68.8200 579.0000 1.0000
68.8300 598.0000 1.0000
68.8400 580.0000 1.0000
68.8500 592.0000 1.0000
68.8600 548.0000 1.0000
68.8700 604.0000 1.0000
68.8800 601.0000 1.0000
68.8900 566.0000 1.0000
68.9000 580.0000 1.0000
68.9100 611.0000 1.0000
68.9200 581.0000 1.0000
68.9300 553.0000 1.0000
68.9400 554.0000 1.0000
68.9500 575.0000 1.0000
68.9600 577.0000 1.0000
68.9700 561.0000 1.0000
68.9800 543.0000 1.0000
68.9900 548.0000 1.0000
69.0000 576.0000 1.0000
69.0100 578.0000 1.0000
69.0200 580.0000 1.0000
69.0300 568.0000 1.0000
69.0400 561.0000 1.0000
69.0500 567.0000 1.0000
69.0600 567.0000 1.0000
69.0700 545.0000 1.0000
69.0800 581.0000 1.0000
69.0900 559.0000 1.0000
69.1000 619.0000 1.0000
69.1100 570.0000 1.0000
69.1200 576.0000 1.0000
69.1300 528.0000 1.0000
69.1400 557.0000 1.0000
69.1500 561.0000 1.0000
69.1600 565.0000 1.0000
69.1700 551.0000 1.0000
69.1800 572.0000 1.0000
69.1900 560.0000 1.0000
69.2000 607.0000 1.0000
69.2100 575.0000 1.0000
69.2200 550.0000 1.0000
69.2300 550.0000 1.0000
69.2400 559.0000 1.0000
69.2500 562.0000 1.0000
69.2600 565.0000 1.0000
69.2700 599.0000 1.0000
69.2800 623.0000 1.0000
69.2900 587.0000 1.0000
69.3000 608.0000 1.0000
69.3100 539.0000 1.0000
69.3200 585.0000 1.0000
69.3300 567.0000 1.0000
69.3400 582.0000 1.0000
69.3500 548.0000 1.0000
69.3600 559.0000 1.0000
69.3700 575.0000 1.0000
69.3800 562.0000 1.0000
69.3900 611.0000 1.0000
69.4000 591.0000 1.0000
69.4100 552.0000 1.0000
69.4200 567.0000 1.0000
69.4300 564.0000 1.0000
69.4400 551.0000 1.0000
69.4500 586.0000 1.0000
69.4600 556.0000 1.0000
69.4700 589.0000 1.0000
69.4800 576.0000 1.0000
69.4900 576.0000 1.0000
69.5000 606.0000 1.0000
69.5100 604.0000 1.0000
69.5200 545.0000 1.0000
69.5300 568.0000 1.0000
69.5400 585.0000 1.0000
69.5500 605.0000 1.0000
69.5600 605.0000 1.0000
69.5700 592.0000 1.0000
69.5800 550.0000 1.0000
69.5900 586.0000 1.0000
69.6000 536.0000 1.0000
69.6100 573.0000 1.0000
69.6200 596.0000 1.0000
69.6300 618.0000 1.0000
69.6400 582.0000 1.0000
69.6500 583.0000 1.0000
69.6600 566.0000 1.0000
69.6700 593.0000 1.0000
69.6800 569.0000 1.0000
69.6900 572.0000 1.0000
69.7000 564.0000 1.0000
69.7100 564.0000 1.0000
69.7200 562.0000 1.0000
69.7300 563.0000 1.0000
69.7400 543.0000 1.0000
69.7500 561.0000 1.0000
69.7600 619.0000 1.0000
69.7700 601.0000 1.0000
69.7800 545.0000 1.0000
69.7900 559.0000 1.0000
69.8000 539.0000 1.0000
69.8100 560.0000 1.0000
69.8200 600.0000 1.0000
69.8300 569.0000 1.0000
69.8400 549.0000 1.0000
69.8500 587.0000 1.0000
69.8600 574.0000 1.0000
69.8700 564.0000 1.0000
69.8800 500.0000 1.0000
69.8900 526.0000 1.0000
69.9000 538.0000 1.0000
69.9100 582.0000 1.0000
69.9200 581.0000 1.0000
69.9300 545.0000 1.0000
69.9400 531.0000 1.0000
69.9500 577.0000 1.0000
69.9600 542.0000 1.0000
69.9700 527.0000 1.0000
69.9800 575.0000 1.0000
69.9900 550.0000 1.0000
70.0000 572.0000 1.0000
*RAS_INT_END
*RAS_TEMPERATURE_START
*RAS_TEMPERATURE_END
*RAS_DATA_END
