*RAS_DATA_START
*RAS_HEADER_START
*DISP_FMT_X "%.2f"
*DISP_FMT_Y "%.0f"
*DISP_FULLSCALE "14576.0000000000"
*DISP_LINE_COLOR "255.0000000000"
*DISP_LINE_STYLE "0.0000000000"
*DISP_LINE_WIDTH "0.2500000000"
*DISP_NOTE "測定データ-1"
*DISP_OFFSET_Y "0.0000000000"
*DISP_PEAKSEARCH_UNIT_Y "cps"
*DISP_RANGE_BOTTOM "0.0000000000"
*DISP_RANGE_LEFT "20.0000000000"
*DISP_RANGE_LOGCUTOFF "0.0100000000"
*DISP_RANGE_RIGHT "70.0000000000"
*DISP_RANGE_TOP "14576.0000000000"
*DISP_SCALE_MODE_Y "0.0000000000"
*DISP_TAB_NAME "2θ/θ"
*DISP_TITLE_Y "強度"
*DISP_UNIT_Y "cps"
*DISP_WINDOW_NAME "MSG_MACROENGINE"
*FILE_COMMENT " "
*FILE_MD5 ""
*FILE_MEMO " "
*FILE_OPERATOR "Administrator"
*FILE_SAMPLE " "
*FILE_TYPE "RAS_RAW"
*FILE_USERGROUP "システムマネージャ"
*FILE_VERSION "1.0000000000"
*HW_ATTACHMENT_ID "ATT0025"
*HW_ATTACHMENT_NAME "標準|Standard"
*HW_COUNTER_ID-0 "CUT0025"
*HW_COUNTER_ID-1 "CUT0020"
*HW_COUNTER_ID-2 "CUT0020"
*HW_COUNTER_ID-3 "CSL0021"
*HW_COUNTER_ID-4 "CMC0021"
*HW_COUNTER_NAME-0 "D/teX Ultra|D/teX Ultra"
*HW_COUNTER_NAME-1 "None|None"
*HW_COUNTER_NAME-2 "None|None"
*HW_COUNTER_NAME-3 "BBM|BBM"
*HW_COUNTER_NAME-4 "検出器モノクロメータ|Detector monochromator"
*HW_COUNTER_SELECT_NAME "D/teX Ultra|D/teX Ultra"
*HW_GONIOMETER_ID "GON0023"
*HW_GONIOMETER_NAME "SmartLab|SmartLab"
*HW_GONIOMETER_RADIUS-0 "90.0"
*HW_GONIOMETER_RADIUS-1 "114.0"
*HW_GONIOMETER_RADIUS-2 "190.0"
*HW_GONIOMETER_RADIUS-3 "300.0"
*HW_GONIOMETER_RADIUS-4 "187.0"
*HW_GONIOMETER_RADIUS-5 "300.0"
*HW_GONIOMETER_RADIUS-6 "113.0"
*HW_GONIOMETER_RADIUS-7 "331.0"
*HW_I_OPT_ID-0 "CBO0021"
*HW_I_OPT_ID-1 "ICR0023"
*HW_I_OPT_ID-2 "ISL0021"
*HW_I_OPT_ID-3 "ISO0021"
*HW_I_OPT_ID-4 "IAD0021"
*HW_I_OPT_ID-5 "IPR0001"
*HW_I_OPT_NAME-0 "CBOユニット|CBO unit"
*HW_I_OPT_NAME-1 "標準入射光学ユニット|Standard incident optical unit"
*HW_I_OPT_NAME-2 "標準入射スリットボックス|Standard incident slit box"
*HW_I_OPT_NAME-3 "入射平行スリット|Incident parallel slit"
*HW_I_OPT_NAME-4 "長手制限スリット|Length limiting slit"
*HW_I_OPT_NAME-5 "None|None"
*HW_R_ATTENUATER_AUTOMODE "0"
*HW_R_OPT_ID-0 "RSS0021"
*HW_R_OPT_ID-1 "RCR0023"
*HW_R_OPT_ID-2 "RSO0021"
*HW_R_OPT_ID-3 "RRS0021"
*HW_R_OPT_ID-4 "ATN0021"
*HW_R_OPT_ID-5 "RFL0021"
*HW_R_OPT_ID-6 "RAD0021"
*HW_R_OPT_NAME-0 "標準受光スリットボックス1|Standard receiving slit box # 1"
*HW_R_OPT_NAME-1 "標準受光光学ユニット1|Standard receiving unit # 1"
*HW_R_OPT_NAME-2 "標準受光光学ユニット2|Standard receiving optical unit # 2"
*HW_R_OPT_NAME-3 "標準受光スリットボックス2|Standard receiving slit box # 2"
*HW_R_OPT_NAME-4 "標準アッテネータ|Standard Attenuator"
*HW_R_OPT_NAME-5 "Cu Kβ|Cu K-beta"
*HW_R_OPT_NAME-6 "調整用受光スリット|Alignment receiving slit"
*HW_SAMPLE_HOLDER_ID "SMP0023"
*HW_SAMPLE_HOLDER_NAME "標準Zステージ|Standard Z stage"
*HW_XG_CURRENT_MAX "50"
*HW_XG_CURRENT_MIN "2"
*HW_XG_CURRENT_RESOLUTION "1"
*HW_XG_CURRENT_UNIT "mA"
*HW_XG_FOCUS "1mm x 10mm"
*HW_XG_FOCUS_TYPE "Normal"
*HW_XG_ID ""
*HW_XG_NAME "3kW 封入管(ID:1200)|3kW Sealed tube(ID:1200)"
*HW_XG_TARGET_ATOMIC_NUMBER "29.0000000000"
*HW_XG_TARGET_NAME "Cu"
*HW_XG_TYPE "Hermetic"
*HW_XG_VOLTAGE_MAX "60"
*HW_XG_VOLTAGE_MIN "20"
*HW_XG_VOLTAGE_RESOLUTION "1"
*HW_XG_VOLTAGE_UNIT "kV"
*HW_XG_WATT_MAX "1.500"
*HW_XG_WATT_UNIT "kW"
*HW_XG_WAVE_LENGTH_ALPHA1 "1.540593"
*HW_XG_WAVE_LENGTH_ALPHA2 "1.544414"
*HW_XG_WAVE_LENGTH_BETA "1.392250"
*MEAS_COND_AXIS_NAME-0 "2θ/θ"
*MEAS_COND_AXIS_NAME-1 "2θ"
*MEAS_COND_AXIS_NAME-2 "ω"
*MEAS_COND_AXIS_NAME-3 "Z"
*MEAS_COND_AXIS_NAME-4 "2θ/ω"
*MEAS_COND_AXIS_NAME-5 "θs"
*MEAS_COND_AXIS_NAME-6 "θd"
*MEAS_COND_AXIS_NAME-7 "Ts"
*MEAS_COND_AXIS_NAME-8 "CBO選択スリット"
*MEAS_COND_AXIS_NAME-9 "M"
*MEAS_COND_AXIS_NAME-10 "入射平行スリット"
*MEAS_COND_AXIS_NAME-11 "入射スリット"
*MEAS_COND_AXIS_NAME-12 ""
*MEAS_COND_AXIS_NAME-13 "Zs"
*MEAS_COND_AXIS_NAME-14 "入射光学素子"
*MEAS_COND_AXIS_NAME-15 "長手制限スリット"
*MEAS_COND_AXIS_NAME-16 "センタースリット"
*MEAS_COND_AXIS_NAME-17 "フィルター"
*MEAS_COND_AXIS_NAME-18 "受光スリット1"
*MEAS_COND_AXIS_NAME-19 "受光スリット2"
*MEAS_COND_AXIS_NAME-20 "受光光学素子"
*MEAS_COND_AXIS_NAME-21 "受光平行スリット"
*MEAS_COND_AXIS_NAME-22 "調整用受光スリット"
*MEAS_COND_AXIS_NAME-23 ""
*MEAS_COND_AXIS_NAME-24 ""
*MEAS_COND_AXIS_NAME-25 "Zd"
*MEAS_COND_AXIS_NAME-26 "アッテネータ"
*MEAS_COND_AXIS_NAME-27 "検出器モノクロメータ"
*MEAS_COND_AXIS_NAME-28 "モノクロメータスリット"
*MEAS_COND_AXIS_NAME-29 "プライマリビーム"
*MEAS_COND_AXIS_NAME-30 "PHA"
*MEAS_COND_AXIS_NAME_INTERNAL-0 "TwoThetaTheta"
*MEAS_COND_AXIS_NAME_INTERNAL-1 "TwoTheta"
*MEAS_COND_AXIS_NAME_INTERNAL-2 "Omega"
*MEAS_COND_AXIS_NAME_INTERNAL-3 "Z"
*MEAS_COND_AXIS_NAME_INTERNAL-4 "TwoThetaOmega"
*MEAS_COND_AXIS_NAME_INTERNAL-5 "ThetaS"
*MEAS_COND_AXIS_NAME_INTERNAL-6 "ThetaD"
*MEAS_COND_AXIS_NAME_INTERNAL-7 "Ts"
*MEAS_COND_AXIS_NAME_INTERNAL-8 "CBO"
*MEAS_COND_AXIS_NAME_INTERNAL-9 "CBO-M"
*MEAS_COND_AXIS_NAME_INTERNAL-10 "IncidentSollerSlit"
*MEAS_COND_AXIS_NAME_INTERNAL-11 "IncidentSlitBox"
*MEAS_COND_AXIS_NAME_INTERNAL-12 "IncidentSlitBox-_Axis"
*MEAS_COND_AXIS_NAME_INTERNAL-13 "Zs"
*MEAS_COND_AXIS_NAME_INTERNAL-14 "IncidentMonochromator"
*MEAS_COND_AXIS_NAME_INTERNAL-15 "IncidentAxdSlit"
*MEAS_COND_AXIS_NAME_INTERNAL-16 "CenterSlit"
*MEAS_COND_AXIS_NAME_INTERNAL-17 "Filter"
*MEAS_COND_AXIS_NAME_INTERNAL-18 "ReceivingSlitBox1"
*MEAS_COND_AXIS_NAME_INTERNAL-19 "ReceivingSlitBox2"
*MEAS_COND_AXIS_NAME_INTERNAL-20 "ReceivingOptics"
*MEAS_COND_AXIS_NAME_INTERNAL-21 "ReceivingSollerSlit"
*MEAS_COND_AXIS_NAME_INTERNAL-22 "ReceivingAxdSlit"
*MEAS_COND_AXIS_NAME_INTERNAL-23 "ReceivingSlitBox1-_Axis"
*MEAS_COND_AXIS_NAME_INTERNAL-24 "ReceivingSlitBox2-_Axis"
*MEAS_COND_AXIS_NAME_INTERNAL-25 "ReceivingSlitBox2-Zd"
*MEAS_COND_AXIS_NAME_INTERNAL-26 "Attenuator"
*MEAS_COND_AXIS_NAME_INTERNAL-27 "CounterMonochromator"
*MEAS_COND_AXIS_NAME_INTERNAL-28 "CounterSlit"
*MEAS_COND_AXIS_NAME_INTERNAL-29 "IncidentPrimary"
*MEAS_COND_AXIS_NAME_INTERNAL-30 "PHA"
*MEAS_COND_AXIS_NAME_MAGICNO-0 "83951616.0000000000"
*MEAS_COND_AXIS_NAME_MAGICNO-1 "268632064.0000000000"
*MEAS_COND_AXIS_NAME_MAGICNO-2 "268500992.0000000000"
*MEAS_COND_AXIS_NAME_MAGICNO-3 "285278208.0000000000"
*MEAS_COND_AXIS_NAME_MAGICNO-4 "83951616.0000000000"
*MEAS_COND_AXIS_NAME_MAGICNO-5 "131072.0000000000"
*MEAS_COND_AXIS_NAME_MAGICNO-6 "131072.0000000000"
*MEAS_COND_AXIS_NAME_MAGICNO-7 "318898176.0000000000"
*MEAS_COND_AXIS_NAME_MAGICNO-8 "20971521.0000000000"
*MEAS_COND_AXIS_NAME_MAGICNO-9 "285343744.0000000000"
*MEAS_COND_AXIS_NAME_MAGICNO-10 "20971521.0000000000"
*MEAS_COND_AXIS_NAME_MAGICNO-11 "22020097.0000000000"
*MEAS_COND_AXIS_NAME_MAGICNO-12 "25165824.0000000000"
*MEAS_COND_AXIS_NAME_MAGICNO-13 "318898176.0000000000"
*MEAS_COND_AXIS_NAME_MAGICNO-14 "1.0000000000"
*MEAS_COND_AXIS_NAME_MAGICNO-15 "20971521.0000000000"
*MEAS_COND_AXIS_NAME_MAGICNO-16 "20971521.0000000000"
*MEAS_COND_AXIS_NAME_MAGICNO-17 "20971521.0000000000"
*MEAS_COND_AXIS_NAME_MAGICNO-18 "23068673.0000000000"
*MEAS_COND_AXIS_NAME_MAGICNO-19 "23068673.0000000000"
*MEAS_COND_AXIS_NAME_MAGICNO-20 "20971521.0000000000"
*MEAS_COND_AXIS_NAME_MAGICNO-21 "20971521.0000000000"
*MEAS_COND_AXIS_NAME_MAGICNO-22 "20971521.0000000000"
*MEAS_COND_AXIS_NAME_MAGICNO-23 "25165824.0000000000"
*MEAS_COND_AXIS_NAME_MAGICNO-24 "25165824.0000000000"
*MEAS_COND_AXIS_NAME_MAGICNO-25 "285343744.0000000000"
*MEAS_COND_AXIS_NAME_MAGICNO-26 "17301505.0000000000"
*MEAS_COND_AXIS_NAME_MAGICNO-27 "20971521.0000000000"
*MEAS_COND_AXIS_NAME_MAGICNO-28 "20971521.0000000000"
*MEAS_COND_AXIS_NAME_MAGICNO-29 "20971521.0000000000"
*MEAS_COND_AXIS_NAME_MAGICNO-30 "0.0000000000"
*MEAS_COND_AXIS_OFFSET-0 "-"
*MEAS_COND_AXIS_OFFSET-1 "-0.1081000000"
*MEAS_COND_AXIS_OFFSET-2 "0.3758000000"
*MEAS_COND_AXIS_OFFSET-3 "-"
*MEAS_COND_AXIS_OFFSET-4 "-"
*MEAS_COND_AXIS_OFFSET-5 "0.3758000000"
*MEAS_COND_AXIS_OFFSET-6 "-0.4839000000"
*MEAS_COND_AXIS_OFFSET-7 "-"
*MEAS_COND_AXIS_OFFSET-8 "-"
*MEAS_COND_AXIS_OFFSET-9 "-"
*MEAS_COND_AXIS_OFFSET-10 "-"
*MEAS_COND_AXIS_OFFSET-11 "-"
*MEAS_COND_AXIS_OFFSET-12 "-"
*MEAS_COND_AXIS_OFFSET-13 "-"
*MEAS_COND_AXIS_OFFSET-14 "-"
*MEAS_COND_AXIS_OFFSET-15 "-"
*MEAS_COND_AXIS_OFFSET-16 "-"
*MEAS_COND_AXIS_OFFSET-17 "-"
*MEAS_COND_AXIS_OFFSET-18 "-"
*MEAS_COND_AXIS_OFFSET-19 "-"
*MEAS_COND_AXIS_OFFSET-20 "-"
*MEAS_COND_AXIS_OFFSET-21 "-"
*MEAS_COND_AXIS_OFFSET-22 "-"
*MEAS_COND_AXIS_OFFSET-23 "-"
*MEAS_COND_AXIS_OFFSET-24 "-"
*MEAS_COND_AXIS_OFFSET-25 "-"
*MEAS_COND_AXIS_OFFSET-26 "-"
*MEAS_COND_AXIS_OFFSET-27 "-"
*MEAS_COND_AXIS_OFFSET-28 "-"
*MEAS_COND_AXIS_OFFSET-29 "-"
*MEAS_COND_AXIS_OFFSET-30 "-"
*MEAS_COND_AXIS_POSITION-0 "0.0000000000"
*MEAS_COND_AXIS_POSITION-1 "0.0000000000"
*MEAS_COND_AXIS_POSITION-2 "0.0000000000"
*MEAS_COND_AXIS_POSITION-3 "-0.5500000000"
*MEAS_COND_AXIS_POSITION-4 "0.0000000000"
*MEAS_COND_AXIS_POSITION-5 "0.0000000000"
*MEAS_COND_AXIS_POSITION-6 "0.0000000000"
*MEAS_COND_AXIS_POSITION-7 "-0.4278800000"
*MEAS_COND_AXIS_POSITION-8 "BB"
*MEAS_COND_AXIS_POSITION-9 "0.0000000000"
*MEAS_COND_AXIS_POSITION-10 "Soller_slit_5.0deg"
*MEAS_COND_AXIS_POSITION-11 "2/3deg"
*MEAS_COND_AXIS_POSITION-12 "2.2088000000"
*MEAS_COND_AXIS_POSITION-13 "-0.4140600000"
*MEAS_COND_AXIS_POSITION-14 "0.0000000000"
*MEAS_COND_AXIS_POSITION-15 "10.0mm"
*MEAS_COND_AXIS_POSITION-16 "None"
*MEAS_COND_AXIS_POSITION-17 "Cu_K-beta"
*MEAS_COND_AXIS_POSITION-18 "10.036mm"
*MEAS_COND_AXIS_POSITION-19 "13.000mm"
*MEAS_COND_AXIS_POSITION-20 "No_unit"
*MEAS_COND_AXIS_POSITION-21 "Soller_slit_5.0deg"
*MEAS_COND_AXIS_POSITION-22 "None"
*MEAS_COND_AXIS_POSITION-23 "10.0363000000"
*MEAS_COND_AXIS_POSITION-24 "13.0000000000"
*MEAS_COND_AXIS_POSITION-25 "0.0109400000"
*MEAS_COND_AXIS_POSITION-26 "Open"
*MEAS_COND_AXIS_POSITION-27 "None"
*MEAS_COND_AXIS_POSITION-28 "None"
*MEAS_COND_AXIS_POSITION-29 "None"
*MEAS_COND_AXIS_POSITION-30 "38.0000000000"
*MEAS_COND_AXIS_UNIT-0 "deg"
*MEAS_COND_AXIS_UNIT-1 "deg"
*MEAS_COND_AXIS_UNIT-2 "deg"
*MEAS_COND_AXIS_UNIT-3 "mm"
*MEAS_COND_AXIS_UNIT-4 "deg"
*MEAS_COND_AXIS_UNIT-5 "deg"
*MEAS_COND_AXIS_UNIT-6 "deg"
*MEAS_COND_AXIS_UNIT-7 "mm"
*MEAS_COND_AXIS_UNIT-8 ""
*MEAS_COND_AXIS_UNIT-9 "pulse"
*MEAS_COND_AXIS_UNIT-10 ""
*MEAS_COND_AXIS_UNIT-11 ""
*MEAS_COND_AXIS_UNIT-12 "mm"
*MEAS_COND_AXIS_UNIT-13 "mm"
*MEAS_COND_AXIS_UNIT-14 ""
*MEAS_COND_AXIS_UNIT-15 ""
*MEAS_COND_AXIS_UNIT-16 ""
*MEAS_COND_AXIS_UNIT-17 ""
*MEAS_COND_AXIS_UNIT-18 ""
*MEAS_COND_AXIS_UNIT-19 ""
*MEAS_COND_AXIS_UNIT-20 ""
*MEAS_COND_AXIS_UNIT-21 ""
*MEAS_COND_AXIS_UNIT-22 ""
*MEAS_COND_AXIS_UNIT-23 "mm"
*MEAS_COND_AXIS_UNIT-24 "mm"
*MEAS_COND_AXIS_UNIT-25 "mm"
*MEAS_COND_AXIS_UNIT-26 ""
*MEAS_COND_AXIS_UNIT-27 ""
*MEAS_COND_AXIS_UNIT-28 ""
*MEAS_COND_AXIS_UNIT-29 ""
*MEAS_COND_AXIS_UNIT-30 "div"
*MEAS_COND_COUNTER_CNTLOSS_CORR "0.0000000000"
*MEAS_COND_COUNTER_PHABASE "38.0000000000"
*MEAS_COND_COUNTER_PHAWINDOW "16.0000000000"
*MEAS_COND_COUNTER_PHA_UNIT "div"
*MEAS_COND_COUNTER_TAUDIFF "30.0000000000"
*MEAS_COND_COUNTER_TAUINT "0.0000000000"
*MEAS_COND_IRRADIATION_MODE "OFF"
*MEAS_COND_IRRADIATION_WIDTH ""
*MEAS_COND_OPT_ATTR "集中法"
*MEAS_COND_OPT_NAME "@集中法"
*MEAS_COND_UNSYMMETRIC_MODE "OFF"
*MEAS_COND_XG_CURRENT "30.0000000000"
*MEAS_COND_XG_VOLTAGE "40.0000000000"
*MEAS_COND_XG_WAVE_TYPE "Ka"
*MEAS_DATA_COUNT "5001.0000000000"
*MEAS_SCAN_AXIS_X "2θ/θ"
*MEAS_SCAN_AXIS_X_INTERNAL "TwoThetaTheta"
*MEAS_SCAN_END_TIME "07/15/21 11:45:31"
*MEAS_SCAN_MODE "CONTINUOUS"
*MEAS_SCAN_MONITOR "0"
*MEAS_SCAN_RESOLUTION_X "0.0002"
*MEAS_SCAN_SPEED "1.0"
*MEAS_SCAN_SPEED_UNIT "deg/min"
*MEAS_SCAN_START "20.0000000000"
*MEAS_SCAN_START_TIME "07/15/21 10:52:39"
*MEAS_SCAN_STEP "0.0100000000"
*MEAS_SCAN_STOP "70.0000000000"
*MEAS_SCAN_UNIT_X "deg"
*MEAS_SCAN_UNIT_Y "counts"
*RAS_HEADER_END
*RAS_INT_START
20.0000 1416.0000 1.0000
20.0100 1353.0000 1.0000
20.0200 1396.0000 1.0000
20.0300 1386.0000 1.0000
20.0400 1382.0000 1.0000
20.0500 1354.0000 1.0000
20.0600 1406.0000 1.0000
20.0700 1373.0000 1.0000
20.0800 1390.0000 1.0000
20.0900 1408.0000 1.0000
20.1000 1318.0000 1.0000
20.1100 1408.0000 1.0000
20.1200 1383.0000 1.0000
20.1300 1306.0000 1.0000
20.1400 1364.0000 1.0000
20.1500 1442.0000 1.0000
20.1600 1371.0000 1.0000
20.1700 1387.0000 1.0000
20.1800 1344.0000 1.0000
20.1900 1401.0000 1.0000
20.2000 1384.0000 1.0000
20.2100 1335.0000 1.0000
20.2200 1358.0000 1.0000
20.2300 1376.0000 1.0000
20.2400 1392.0000 1.0000
20.2500 1403.0000 1.0000
20.2600 1388.0000 1.0000
20.2700 1400.0000 1.0000
20.2800 1443.0000 1.0000
20.2900 1340.0000 1.0000
20.3000 1429.0000 1.0000
20.3100 1421.0000 1.0000
20.3200 1403.0000 1.0000
20.3300 1392.0000 1.0000
20.3400 1359.0000 1.0000
20.3500 1385.0000 1.0000
20.3600 1349.0000 1.0000
20.3700 1370.0000 1.0000
20.3800 1387.0000 1.0000
20.3900 1317.0000 1.0000
20.4000 1385.0000 1.0000
20.4100 1422.0000 1.0000
20.4200 1417.0000 1.0000
20.4300 1365.0000 1.0000
20.4400 1345.0000 1.0000
20.4500 1397.0000 1.0000
20.4600 1373.0000 1.0000
20.4700 1390.0000 1.0000
20.4800 1407.0000 1.0000
20.4900 1381.0000 1.0000
20.5000 1425.0000 1.0000
20.5100 1376.0000 1.0000
20.5200 1407.0000 1.0000
20.5300 1380.0000 1.0000
20.5400 1365.0000 1.0000
20.5500 1362.0000 1.0000
20.5600 1329.0000 1.0000
20.5700 1349.0000 1.0000
20.5800 1393.0000 1.0000
20.5900 1399.0000 1.0000
20.6000 1385.0000 1.0000
20.6100 1363.0000 1.0000
20.6200 1334.0000 1.0000
20.6300 1314.0000 1.0000
20.6400 1379.0000 1.0000
20.6500 1412.0000 1.0000
20.6600 1386.0000 1.0000
20.6700 1399.0000 1.0000
20.6800 1393.0000 1.0000
20.6900 1441.0000 1.0000
20.7000 1352.0000 1.0000
20.7100 1329.0000 1.0000
20.7200 1383.0000 1.0000
20.7300 1345.0000 1.0000
20.7400 1357.0000 1.0000
20.7500 1459.0000 1.0000
20.7600 1419.0000 1.0000
20.7700 1373.0000 1.0000
20.7800 1364.0000 1.0000
20.7900 1347.0000 1.0000
20.8000 1386.0000 1.0000
20.8100 1360.0000 1.0000
20.8200 1415.0000 1.0000
20.8300 1369.0000 1.0000
20.8400 1389.0000 1.0000
20.8500 1402.0000 1.0000
20.8600 1350.0000 1.0000
20.8700 1412.0000 1.0000
20.8800 1345.0000 1.0000
20.8900 1297.0000 1.0000
20.9000 1351.0000 1.0000
20.9100 1383.0000 1.0000
20.9200 1438.0000 1.0000
20.9300 1398.0000 1.0000
20.9400 1389.0000 1.0000
20.9500 1386.0000 1.0000
20.9600 1358.0000 1.0000
20.9700 1377.0000 1.0000
20.9800 1401.0000 1.0000
20.9900 1399.0000 1.0000
21.0000 1357.0000 1.0000
21.0100 1342.0000 1.0000
21.0200 1386.0000 1.0000
21.0300 1352.0000 1.0000
21.0400 1385.0000 1.0000
21.0500 1343.0000 1.0000
21.0600 1403.0000 1.0000
21.0700 1361.0000 1.0000
21.0800 1371.0000 1.0000
21.0900 1373.0000 1.0000
21.1000 1364.0000 1.0000
21.1100 1398.0000 1.0000
21.1200 1410.0000 1.0000
21.1300 1359.0000 1.0000
21.1400 1273.0000 1.0000
21.1500 1386.0000 1.0000
21.1600 1406.0000 1.0000
21.1700 1389.0000 1.0000
21.1800 1347.0000 1.0000
21.1900 1335.0000 1.0000
21.2000 1407.0000 1.0000
21.2100 1382.0000 1.0000
21.2200 1365.0000 1.0000
21.2300 1312.0000 1.0000
21.2400 1359.0000 1.0000
21.2500 1356.0000 1.0000
21.2600 1413.0000 1.0000
21.2700 1439.0000 1.0000
21.2800 1413.0000 1.0000
21.2900 1413.0000 1.0000
21.3000 1354.0000 1.0000
21.3100 1346.0000 1.0000
21.3200 1364.0000 1.0000
21.3300 1405.0000 1.0000
21.3400 1329.0000 1.0000
21.3500 1407.0000 1.0000
21.3600 1425.0000 1.0000
21.3700 1421.0000 1.0000
21.3800 1345.0000 1.0000
21.3900 1416.0000 1.0000
21.4000 1396.0000 1.0000
21.4100 1323.0000 1.0000
21.4200 1369.0000 1.0000
21.4300 1335.0000 1.0000
21.4400 1301.0000 1.0000
21.4500 1355.0000 1.0000
21.4600 1376.0000 1.0000
21.4700 1377.0000 1.0000
21.4800 1364.0000 1.0000
21.4900 1325.0000 1.0000
21.5000 1387.0000 1.0000
21.5100 1382.0000 1.0000
21.5200 1369.0000 1.0000
21.5300 1348.0000 1.0000
21.5400 1361.0000 1.0000
21.5500 1326.0000 1.0000
21.5600 1440.0000 1.0000
21.5700 1332.0000 1.0000
21.5800 1294.0000 1.0000
21.5900 1318.0000 1.0000
21.6000 1368.0000 1.0000
21.6100 1377.0000 1.0000
21.6200 1329.0000 1.0000
21.6300 1353.0000 1.0000
21.6400 1375.0000 1.0000
21.6500 1331.0000 1.0000
21.6600 1423.0000 1.0000
21.6700 1381.0000 1.0000
21.6800 1360.0000 1.0000
21.6900 1357.0000 1.0000
21.7000 1371.0000 1.0000
21.7100 1372.0000 1.0000
21.7200 1359.0000 1.0000
21.7300 1332.0000 1.0000
21.7400 1407.0000 1.0000
21.7500 1339.0000 1.0000
21.7600 1400.0000 1.0000
21.7700 1414.0000 1.0000
21.7800 1366.0000 1.0000
21.7900 1355.0000 1.0000
21.8000 1315.0000 1.0000
21.8100 1300.0000 1.0000
21.8200 1407.0000 1.0000
21.8300 1389.0000 1.0000
21.8400 1363.0000 1.0000
21.8500 1367.0000 1.0000
21.8600 1363.0000 1.0000
21.8700 1450.0000 1.0000
21.8800 1349.0000 1.0000
21.8900 1354.0000 1.0000
21.9000 1363.0000 1.0000
21.9100 1369.0000 1.0000
21.9200 1374.0000 1.0000
21.9300 1392.0000 1.0000
21.9400 1347.0000 1.0000
21.9500 1387.0000 1.0000
21.9600 1378.0000 1.0000
21.9700 1389.0000 1.0000
21.9800 1424.0000 1.0000
21.9900 1401.0000 1.0000
22.0000 1367.0000 1.0000
22.0100 1386.0000 1.0000
22.0200 1383.0000 1.0000
22.0300 1386.0000 1.0000
22.0400 1392.0000 1.0000
22.0500 1423.0000 1.0000
22.0600 1383.0000 1.0000
22.0700 1394.0000 1.0000
22.0800 1372.0000 1.0000
22.0900 1351.0000 1.0000
22.1000 1340.0000 1.0000
22.1100 1434.0000 1.0000
22.1200 1376.0000 1.0000
22.1300 1389.0000 1.0000
22.1400 1417.0000 1.0000
22.1500 1402.0000 1.0000
22.1600 1350.0000 1.0000
22.1700 1295.0000 1.0000
22.1800 1340.0000 1.0000
22.1900 1427.0000 1.0000
22.2000 1402.0000 1.0000
22.2100 1373.0000 1.0000
22.2200 1419.0000 1.0000
22.2300 1302.0000 1.0000
22.2400 1293.0000 1.0000
22.2500 1359.0000 1.0000
22.2600 1379.0000 1.0000
22.2700 1359.0000 1.0000
22.2800 1407.0000 1.0000
22.2900 1399.0000 1.0000
22.3000 1394.0000 1.0000
22.3100 1410.0000 1.0000
22.3200 1428.0000 1.0000
22.3300 1378.0000 1.0000
22.3400 1444.0000 1.0000
22.3500 1393.0000 1.0000
22.3600 1393.0000 1.0000
22.3700 1442.0000 1.0000
22.3800 1413.0000 1.0000
22.3900 1372.0000 1.0000
22.4000 1406.0000 1.0000
22.4100 1461.0000 1.0000
22.4200 1439.0000 1.0000
22.4300 1439.0000 1.0000
22.4400 1383.0000 1.0000
22.4500 1377.0000 1.0000
22.4600 1393.0000 1.0000
22.4700 1381.0000 1.0000
22.4800 1404.0000 1.0000
22.4900 1368.0000 1.0000
22.5000 1371.0000 1.0000
22.5100 1396.0000 1.0000
22.5200 1392.0000 1.0000
22.5300 1371.0000 1.0000
22.5400 1377.0000 1.0000
22.5500 1415.0000 1.0000
22.5600 1437.0000 1.0000
22.5700 1407.0000 1.0000
22.5800 1388.0000 1.0000
22.5900 1382.0000 1.0000
22.6000 1452.0000 1.0000
22.6100 1433.0000 1.0000
22.6200 1389.0000 1.0000
22.6300 1409.0000 1.0000
22.6400 1370.0000 1.0000
22.6500 1396.0000 1.0000
22.6600 1377.0000 1.0000
22.6700 1454.0000 1.0000
22.6800 1445.0000 1.0000
22.6900 1457.0000 1.0000
22.7000 1339.0000 1.0000
22.7100 1329.0000 1.0000
22.7200 1381.0000 1.0000
22.7300 1408.0000 1.0000
22.7400 1358.0000 1.0000
22.7500 1401.0000 1.0000
22.7600 1404.0000 1.0000
22.7700 1431.0000 1.0000
22.7800 1409.0000 1.0000
22.7900 1469.0000 1.0000
22.8000 1422.0000 1.0000
22.8100 1449.0000 1.0000
22.8200 1356.0000 1.0000
22.8300 1360.0000 1.0000
22.8400 1413.0000 1.0000
22.8500 1394.0000 1.0000
22.8600 1417.0000 1.0000
22.8700 1423.0000 1.0000
22.8800 1442.0000 1.0000
22.8900 1434.0000 1.0000
22.9000 1386.0000 1.0000
22.9100 1415.0000 1.0000
22.9200 1372.0000 1.0000
22.9300 1373.0000 1.0000
22.9400 1416.0000 1.0000
22.9500 1328.0000 1.0000
22.9600 1401.0000 1.0000
22.9700 1369.0000 1.0000
22.9800 1443.0000 1.0000
22.9900 1403.0000 1.0000
23.0000 1358.0000 1.0000
23.0100 1413.0000 1.0000
23.0200 1448.0000 1.0000
23.0300 1396.0000 1.0000
23.0400 1340.0000 1.0000
23.0500 1357.0000 1.0000
23.0600 1413.0000 1.0000
23.0700 1446.0000 1.0000
23.0800 1383.0000 1.0000
23.0900 1360.0000 1.0000
23.1000 1422.0000 1.0000
23.1100 1375.0000 1.0000
23.1200 1393.0000 1.0000
23.1300 1399.0000 1.0000
23.1400 1425.0000 1.0000
23.1500 1436.0000 1.0000
23.1600 1410.0000 1.0000
23.1700 1380.0000 1.0000
23.1800 1445.0000 1.0000
23.1900 1440.0000 1.0000
23.2000 1416.0000 1.0000
23.2100 1437.0000 1.0000
23.2200 1440.0000 1.0000
23.2300 1420.0000 1.0000
23.2400 1429.0000 1.0000
23.2500 1403.0000 1.0000
23.2600 1389.0000 1.0000
23.2700 1395.0000 1.0000
23.2800 1420.0000 1.0000
23.2900 1419.0000 1.0000
23.3000 1425.0000 1.0000
23.3100 1447.0000 1.0000
23.3200 1380.0000 1.0000
23.3300 1393.0000 1.0000
23.3400 1387.0000 1.0000
23.3500 1355.0000 1.0000
23.3600 1382.0000 1.0000
23.3700 1383.0000 1.0000
23.3800 1441.0000 1.0000
23.3900 1414.0000 1.0000
23.4000 1453.0000 1.0000
23.4100 1481.0000 1.0000
23.4200 1426.0000 1.0000
23.4300 1440.0000 1.0000
23.4400 1437.0000 1.0000
23.4500 1346.0000 1.0000
23.4600 1443.0000 1.0000
23.4700 1445.0000 1.0000
23.4800 1426.0000 1.0000
23.4900 1376.0000 1.0000
23.5000 1426.0000 1.0000
23.5100 1425.0000 1.0000
23.5200 1419.0000 1.0000
23.5300 1421.0000 1.0000
23.5400 1497.0000 1.0000
23.5500 1453.0000 1.0000
23.5600 1426.0000 1.0000
23.5700 1441.0000 1.0000
23.5800 1386.0000 1.0000
23.5900 1444.0000 1.0000
23.6000 1425.0000 1.0000
23.6100 1417.0000 1.0000
23.6200 1391.0000 1.0000
23.6300 1421.0000 1.0000
23.6400 1395.0000 1.0000
23.6500 1401.0000 1.0000
23.6600 1427.0000 1.0000
23.6700 1502.0000 1.0000
23.6800 1504.0000 1.0000
23.6900 1472.0000 1.0000
23.7000 1405.0000 1.0000
23.7100 1387.0000 1.0000
23.7200 1397.0000 1.0000
23.7300 1384.0000 1.0000
23.7400 1462.0000 1.0000
23.7500 1466.0000 1.0000
23.7600 1467.0000 1.0000
23.7700 1449.0000 1.0000
23.7800 1397.0000 1.0000
23.7900 1443.0000 1.0000
23.8000 1381.0000 1.0000
23.8100 1382.0000 1.0000
23.8200 1395.0000 1.0000
23.8300 1445.0000 1.0000
23.8400 1384.0000 1.0000
23.8500 1450.0000 1.0000
23.8600 1368.0000 1.0000
23.8700 1383.0000 1.0000
23.8800 1396.0000 1.0000
23.8900 1424.0000 1.0000
23.9000 1418.0000 1.0000
23.9100 1447.0000 1.0000
23.9200 1471.0000 1.0000
23.9300 1432.0000 1.0000
23.9400 1422.0000 1.0000
23.9500 1435.0000 1.0000
23.9600 1416.0000 1.0000
23.9700 1433.0000 1.0000
23.9800 1489.0000 1.0000
23.9900 1466.0000 1.0000
24.0000 1446.0000 1.0000
24.0100 1459.0000 1.0000
24.0200 1413.0000 1.0000
24.0300 1495.0000 1.0000
24.0400 1440.0000 1.0000
24.0500 1444.0000 1.0000
24.0600 1403.0000 1.0000
24.0700 1415.0000 1.0000
24.0800 1432.0000 1.0000
24.0900 1467.0000 1.0000
24.1000 1472.0000 1.0000
24.1100 1508.0000 1.0000
24.1200 1431.0000 1.0000
24.1300 1425.0000 1.0000
24.1400 1487.0000 1.0000
24.1500 1455.0000 1.0000
24.1600 1473.0000 1.0000
24.1700 1407.0000 1.0000
24.1800 1475.0000 1.0000
24.1900 1449.0000 1.0000
24.2000 1475.0000 1.0000
24.2100 1383.0000 1.0000
24.2200 1431.0000 1.0000
24.2300 1389.0000 1.0000
24.2400 1429.0000 1.0000
24.2500 1408.0000 1.0000
24.2600 1452.0000 1.0000
24.2700 1480.0000 1.0000
24.2800 1439.0000 1.0000
24.2900 1529.0000 1.0000
24.3000 1437.0000 1.0000
24.3100 1423.0000 1.0000
24.3200 1402.0000 1.0000
24.3300 1475.0000 1.0000
24.3400 1447.0000 1.0000
24.3500 1492.0000 1.0000
24.3600 1443.0000 1.0000
24.3700 1440.0000 1.0000
24.3800 1448.0000 1.0000
24.3900 1448.0000 1.0000
24.4000 1448.0000 1.0000
24.4100 1436.0000 1.0000
24.4200 1456.0000 1.0000
24.4300 1465.0000 1.0000
24.4400 1477.0000 1.0000
24.4500 1514.0000 1.0000
24.4600 1503.0000 1.0000
24.4700 1474.0000 1.0000
24.4800 1479.0000 1.0000
24.4900 1436.0000 1.0000
24.5000 1468.0000 1.0000
24.5100 1467.0000 1.0000
24.5200 1482.0000 1.0000
24.5300 1521.0000 1.0000
24.5400 1498.0000 1.0000
24.5500 1521.0000 1.0000
24.5600 1495.0000 1.0000
24.5700 1462.0000 1.0000
24.5800 1513.0000 1.0000
24.5900 1492.0000 1.0000
24.6000 1419.0000 1.0000
24.6100 1425.0000 1.0000
24.6200 1494.0000 1.0000
24.6300 1445.0000 1.0000
24.6400 1462.0000 1.0000
24.6500 1539.0000 1.0000
24.6600 1490.0000 1.0000
24.6700 1491.0000 1.0000
24.6800 1425.0000 1.0000
24.6900 1544.0000 1.0000
24.7000 1509.0000 1.0000
24.7100 1487.0000 1.0000
24.7200 1497.0000 1.0000
24.7300 1566.0000 1.0000
24.7400 1549.0000 1.0000
24.7500 1564.0000 1.0000
24.7600 1533.0000 1.0000
24.7700 1481.0000 1.0000
24.7800 1518.0000 1.0000
24.7900 1513.0000 1.0000
24.8000 1498.0000 1.0000
24.8100 1477.0000 1.0000
24.8200 1473.0000 1.0000
24.8300 1537.0000 1.0000
24.8400 1528.0000 1.0000
24.8500 1439.0000 1.0000
24.8600 1446.0000 1.0000
24.8700 1489.0000 1.0000
24.8800 1534.0000 1.0000
24.8900 1561.0000 1.0000
24.9000 1518.0000 1.0000
24.9100 1476.0000 1.0000
24.9200 1560.0000 1.0000
24.9300 1483.0000 1.0000
24.9400 1570.0000 1.0000
24.9500 1585.0000 1.0000
24.9600 1493.0000 1.0000
24.9700 1500.0000 1.0000
24.9800 1547.0000 1.0000
24.9900 1539.0000 1.0000
25.0000 1567.0000 1.0000
25.0100 1590.0000 1.0000
25.0200 1505.0000 1.0000
25.0300 1537.0000 1.0000
25.0400 1586.0000 1.0000
25.0500 1534.0000 1.0000
25.0600 1475.0000 1.0000
25.0700 1550.0000 1.0000
25.0800 1469.0000 1.0000
25.0900 1550.0000 1.0000
25.1000 1601.0000 1.0000
25.1100 1563.0000 1.0000
25.1200 1523.0000 1.0000
25.1300 1549.0000 1.0000
25.1400 1596.0000 1.0000
25.1500 1572.0000 1.0000
25.1600 1512.0000 1.0000
25.1700 1516.0000 1.0000
25.1800 1572.0000 1.0000
25.1900 1547.0000 1.0000
25.2000 1561.0000 1.0000
25.2100 1591.0000 1.0000
25.2200 1537.0000 1.0000
25.2300 1600.0000 1.0000
25.2400 1531.0000 1.0000
25.2500 1460.0000 1.0000
25.2600 1523.0000 1.0000
25.2700 1623.0000 1.0000
25.2800 1582.0000 1.0000
25.2900 1527.0000 1.0000
25.3000 1580.0000 1.0000
25.3100 1596.0000 1.0000
25.3200 1510.0000 1.0000
25.3300 1544.0000 1.0000
25.3400 1546.0000 1.0000
25.3500 1539.0000 1.0000
25.3600 1626.0000 1.0000
25.3700 1594.0000 1.0000
25.3800 1544.0000 1.0000
25.3900 1582.0000 1.0000
25.4000 1572.0000 1.0000
25.4100 1572.0000 1.0000
25.4200 1597.0000 1.0000
25.4300 1550.0000 1.0000
25.4400 1505.0000 1.0000
25.4500 1565.0000 1.0000
25.4600 1592.0000 1.0000
25.4700 1587.0000 1.0000
25.4800 1523.0000 1.0000
25.4900 1503.0000 1.0000
25.5000 1566.0000 1.0000
25.5100 1493.0000 1.0000
25.5200 1510.0000 1.0000
25.5300 1576.0000 1.0000
25.5400 1538.0000 1.0000
25.5500 1521.0000 1.0000
25.5600 1545.0000 1.0000
25.5700 1628.0000 1.0000
25.5800 1582.0000 1.0000
25.5900 1576.0000 1.0000
25.6000 1538.0000 1.0000
25.6100 1542.0000 1.0000
25.6200 1593.0000 1.0000
25.6300 1543.0000 1.0000
25.6400 1521.0000 1.0000
25.6500 1554.0000 1.0000
25.6600 1545.0000 1.0000
25.6700 1562.0000 1.0000
25.6800 1533.0000 1.0000
25.6900 1539.0000 1.0000
25.7000 1511.0000 1.0000
25.7100 1522.0000 1.0000
25.7200 1593.0000 1.0000
25.7300 1494.0000 1.0000
25.7400 1571.0000 1.0000
25.7500 1566.0000 1.0000
25.7600 1595.0000 1.0000
25.7700 1544.0000 1.0000
25.7800 1517.0000 1.0000
25.7900 1578.0000 1.0000
25.8000 1614.0000 1.0000
25.8100 1567.0000 1.0000
25.8200 1555.0000 1.0000
25.8300 1597.0000 1.0000
25.8400 1572.0000 1.0000
25.8500 1613.0000 1.0000
25.8600 1623.0000 1.0000
25.8700 1568.0000 1.0000
25.8800 1563.0000 1.0000
25.8900 1570.0000 1.0000
25.9000 1554.0000 1.0000
25.9100 1496.0000 1.0000
25.9200 1522.0000 1.0000
25.9300 1539.0000 1.0000
25.9400 1556.0000 1.0000
25.9500 1525.0000 1.0000
25.9600 1569.0000 1.0000
25.9700 1571.0000 1.0000
25.9800 1516.0000 1.0000
25.9900 1523.0000 1.0000
26.0000 1571.0000 1.0000
26.0100 1528.0000 1.0000
26.0200 1538.0000 1.0000
26.0300 1569.0000 1.0000
26.0400 1526.0000 1.0000
26.0500 1544.0000 1.0000
26.0600 1570.0000 1.0000
26.0700 1561.0000 1.0000
26.0800 1609.0000 1.0000
26.0900 1625.0000 1.0000
26.1000 1588.0000 1.0000
26.1100 1601.0000 1.0000
26.1200 1557.0000 1.0000
26.1300 1615.0000 1.0000
26.1400 1573.0000 1.0000
26.1500 1617.0000 1.0000
26.1600 1618.0000 1.0000
26.1700 1574.0000 1.0000
26.1800 1583.0000 1.0000
26.1900 1626.0000 1.0000
26.2000 1535.0000 1.0000
26.2100 1510.0000 1.0000
26.2200 1537.0000 1.0000
26.2300 1573.0000 1.0000
26.2400 1593.0000 1.0000
26.2500 1650.0000 1.0000
26.2600 1618.0000 1.0000
26.2700 1597.0000 1.0000
26.2800 1635.0000 1.0000
26.2900 1588.0000 1.0000
26.3000 1660.0000 1.0000
26.3100 1627.0000 1.0000
26.3200 1591.0000 1.0000
26.3300 1589.0000 1.0000
26.3400 1612.0000 1.0000
26.3500 1563.0000 1.0000
26.3600 1649.0000 1.0000
26.3700 1586.0000 1.0000
26.3800 1633.0000 1.0000
26.3900 1626.0000 1.0000
26.4000 1622.0000 1.0000
26.4100 1642.0000 1.0000
26.4200 1608.0000 1.0000
26.4300 1633.0000 1.0000
26.4400 1605.0000 1.0000
26.4500 1689.0000 1.0000
26.4600 1665.0000 1.0000
26.4700 1654.0000 1.0000
26.4800 1653.0000 1.0000
26.4900 1676.0000 1.0000
26.5000 1622.0000 1.0000
26.5100 1649.0000 1.0000
26.5200 1667.0000 1.0000
26.5300 1669.0000 1.0000
26.5400 1653.0000 1.0000
26.5500 1606.0000 1.0000
26.5600 1621.0000 1.0000
26.5700 1679.0000 1.0000
26.5800 1667.0000 1.0000
26.5900 1635.0000 1.0000
26.6000 1578.0000 1.0000
26.6100 1685.0000 1.0000
26.6200 1692.0000 1.0000
26.6300 1710.0000 1.0000
26.6400 1721.0000 1.0000
26.6500 1733.0000 1.0000
26.6600 1714.0000 1.0000
26.6700 1690.0000 1.0000
26.6800 1639.0000 1.0000
26.6900 1625.0000 1.0000
26.7000 1714.0000 1.0000
26.7100 1743.0000 1.0000
26.7200 1703.0000 1.0000
26.7300 1731.0000 1.0000
26.7400 1744.0000 1.0000
26.7500 1787.0000 1.0000
26.7600 1799.0000 1.0000
26.7700 1705.0000 1.0000
26.7800 1757.0000 1.0000
26.7900 1772.0000 1.0000
26.8000 1759.0000 1.0000
26.8100 1699.0000 1.0000
26.8200 1776.0000 1.0000
26.8300 1810.0000 1.0000
26.8400 1831.0000 1.0000
26.8500 1857.0000 1.0000
26.8600 1903.0000 1.0000
26.8700 1874.0000 1.0000
26.8800 1799.0000 1.0000
26.8900 1864.0000 1.0000
26.9000 1980.0000 1.0000
26.9100 1912.0000 1.0000
26.9200 1931.0000 1.0000
26.9300 1969.0000 1.0000
26.9400 1978.0000 1.0000
26.9500 1983.0000 1.0000
26.9600 2043.0000 1.0000
26.9700 2095.0000 1.0000
26.9800 2071.0000 1.0000
26.9900 2147.0000 1.0000
27.0000 2128.0000 1.0000
27.0100 2153.0000 1.0000
27.0200 2257.0000 1.0000
27.0300 2321.0000 1.0000
27.0400 2420.0000 1.0000
27.0500 2420.0000 1.0000
27.0600 2479.0000 1.0000
27.0700 2554.0000 1.0000
27.0800 2666.0000 1.0000
27.0900 2762.0000 1.0000
27.1000 2877.0000 1.0000
27.1100 2956.0000 1.0000
27.1200 3096.0000 1.0000
27.1300 3186.0000 1.0000
27.1400 3412.0000 1.0000
27.1500 3531.0000 1.0000
27.1600 3733.0000 1.0000
27.1700 3853.0000 1.0000
27.1800 4136.0000 1.0000
27.1900 4436.0000 1.0000
27.2000 4662.0000 1.0000
27.2100 4924.0000 1.0000
27.2200 5192.0000 1.0000
27.2300 5491.0000 1.0000
27.2400 6058.0000 1.0000
27.2500 6238.0000 1.0000
27.2600 6484.0000 1.0000
27.2700 6804.0000 1.0000
27.2800 6993.0000 1.0000
27.2900 7170.0000 1.0000
27.3000 7218.0000 1.0000
27.3100 7288.0000 1.0000
27.3200 7063.0000 1.0000
27.3300 6975.0000 1.0000
27.3400 6702.0000 1.0000
27.3500 6516.0000 1.0000
27.3600 6302.0000 1.0000
27.3700 6003.0000 1.0000
27.3800 5613.0000 1.0000
27.3900 5449.0000 1.0000
27.4000 4922.0000 1.0000
27.4100 4738.0000 1.0000
27.4200 4468.0000 1.0000
27.4300 4108.0000 1.0000
27.4400 3935.0000 1.0000
27.4500 3774.0000 1.0000
27.4600 3620.0000 1.0000
27.4700 3445.0000 1.0000
27.4800 3230.0000 1.0000
27.4900 3196.0000 1.0000
27.5000 2992.0000 1.0000
27.5100 2936.0000 1.0000
27.5200 2798.0000 1.0000
27.5300 2649.0000 1.0000
27.5400 2649.0000 1.0000
27.5500 2519.0000 1.0000
27.5600 2455.0000 1.0000
27.5700 2416.0000 1.0000
27.5800 2323.0000 1.0000
27.5900 2274.0000 1.0000
27.6000 2179.0000 1.0000
27.6100 2158.0000 1.0000
27.6200 2123.0000 1.0000
27.6300 2135.0000 1.0000
27.6400 2019.0000 1.0000
27.6500 1983.0000 1.0000
27.6600 1949.0000 1.0000
27.6700 1899.0000 1.0000
27.6800 1967.0000 1.0000
27.6900 1906.0000 1.0000
27.7000 1886.0000 1.0000
27.7100 1873.0000 1.0000
27.7200 1870.0000 1.0000
27.7300 1868.0000 1.0000
27.7400 1786.0000 1.0000
27.7500 1832.0000 1.0000
27.7600 1809.0000 1.0000
27.7700 1805.0000 1.0000
27.7800 1779.0000 1.0000
27.7900 1831.0000 1.0000
27.8000 1761.0000 1.0000
27.8100 1722.0000 1.0000
27.8200 1709.0000 1.0000
27.8300 1724.0000 1.0000
27.8400 1678.0000 1.0000
27.8500 1654.0000 1.0000
27.8600 1674.0000 1.0000
27.8700 1677.0000 1.0000
27.8800 1628.0000 1.0000
27.8900 1689.0000 1.0000
27.9000 1707.0000 1.0000
27.9100 1594.0000 1.0000
27.9200 1686.0000 1.0000
27.9300 1693.0000 1.0000
27.9400 1620.0000 1.0000
27.9500 1590.0000 1.0000
27.9600 1595.0000 1.0000
27.9700 1576.0000 1.0000
27.9800 1599.0000 1.0000
27.9900 1625.0000 1.0000
28.0000 1603.0000 1.0000
28.0100 1629.0000 1.0000
28.0200 1569.0000 1.0000
28.0300 1618.0000 1.0000
28.0400 1568.0000 1.0000
28.0500 1634.0000 1.0000
28.0600 1541.0000 1.0000
28.0700 1536.0000 1.0000
28.0800 1575.0000 1.0000
28.0900 1567.0000 1.0000
28.1000 1459.0000 1.0000
28.1100 1581.0000 1.0000
28.1200 1528.0000 1.0000
28.1300 1577.0000 1.0000
28.1400 1558.0000 1.0000
28.1500 1586.0000 1.0000
28.1600 1551.0000 1.0000
28.1700 1630.0000 1.0000
28.1800 1573.0000 1.0000
28.1900 1501.0000 1.0000
28.2000 1571.0000 1.0000
28.2100 1598.0000 1.0000
28.2200 1492.0000 1.0000
28.2300 1521.0000 1.0000
28.2400 1548.0000 1.0000
28.2500 1562.0000 1.0000
28.2600 1574.0000 1.0000
28.2700 1545.0000 1.0000
28.2800 1565.0000 1.0000
28.2900 1511.0000 1.0000
28.3000 1583.0000 1.0000
28.3100 1563.0000 1.0000
28.3200 1545.0000 1.0000
28.3300 1590.0000 1.0000
28.3400 1528.0000 1.0000
28.3500 1521.0000 1.0000
28.3600 1480.0000 1.0000
28.3700 1530.0000 1.0000
28.3800 1575.0000 1.0000
28.3900 1573.0000 1.0000
28.4000 1505.0000 1.0000
28.4100 1541.0000 1.0000
28.4200 1525.0000 1.0000
28.4300 1489.0000 1.0000
28.4400 1446.0000 1.0000
28.4500 1449.0000 1.0000
28.4600 1476.0000 1.0000
28.4700 1470.0000 1.0000
28.4800 1480.0000 1.0000
28.4900 1454.0000 1.0000
28.5000 1496.0000 1.0000
28.5100 1474.0000 1.0000
28.5200 1503.0000 1.0000
28.5300 1520.0000 1.0000
28.5400 1539.0000 1.0000
28.5500 1546.0000 1.0000
28.5600 1412.0000 1.0000
28.5700 1481.0000 1.0000
28.5800 1455.0000 1.0000
28.5900 1433.0000 1.0000
28.6000 1499.0000 1.0000
28.6100 1475.0000 1.0000
28.6200 1465.0000 1.0000
28.6300 1519.0000 1.0000
28.6400 1428.0000 1.0000
28.6500 1484.0000 1.0000
28.6600 1493.0000 1.0000
28.6700 1400.0000 1.0000
28.6800 1498.0000 1.0000
28.6900 1505.0000 1.0000
28.7000 1396.0000 1.0000
28.7100 1427.0000 1.0000
28.7200 1474.0000 1.0000
28.7300 1458.0000 1.0000
28.7400 1507.0000 1.0000
28.7500 1420.0000 1.0000
28.7600 1424.0000 1.0000
28.7700 1456.0000 1.0000
28.7800 1471.0000 1.0000
28.7900 1458.0000 1.0000
28.8000 1420.0000 1.0000
28.8100 1415.0000 1.0000
28.8200 1397.0000 1.0000
28.8300 1461.0000 1.0000
28.8400 1460.0000 1.0000
28.8500 1441.0000 1.0000
28.8600 1409.0000 1.0000
28.8700 1421.0000 1.0000
28.8800 1431.0000 1.0000
28.8900 1422.0000 1.0000
28.9000 1473.0000 1.0000
28.9100 1388.0000 1.0000
28.9200 1458.0000 1.0000
28.9300 1385.0000 1.0000
28.9400 1349.0000 1.0000
28.9500 1409.0000 1.0000
28.9600 1426.0000 1.0000
28.9700 1403.0000 1.0000
28.9800 1426.0000 1.0000
28.9900 1434.0000 1.0000
29.0000 1425.0000 1.0000
29.0100 1422.0000 1.0000
29.0200 1432.0000 1.0000
29.0300 1411.0000 1.0000
29.0400 1451.0000 1.0000
29.0500 1458.0000 1.0000
29.0600 1456.0000 1.0000
29.0700 1448.0000 1.0000
29.0800 1376.0000 1.0000
29.0900 1433.0000 1.0000
29.1000 1485.0000 1.0000
29.1100 1394.0000 1.0000
29.1200 1433.0000 1.0000
29.1300 1440.0000 1.0000
29.1400 1446.0000 1.0000
29.1500 1501.0000 1.0000
29.1600 1442.0000 1.0000
29.1700 1419.0000 1.0000
29.1800 1447.0000 1.0000
29.1900 1436.0000 1.0000
29.2000 1465.0000 1.0000
29.2100 1420.0000 1.0000
29.2200 1399.0000 1.0000
29.2300 1357.0000 1.0000
29.2400 1444.0000 1.0000
29.2500 1401.0000 1.0000
29.2600 1444.0000 1.0000
29.2700 1400.0000 1.0000
29.2800 1382.0000 1.0000
29.2900 1428.0000 1.0000
29.3000 1472.0000 1.0000
29.3100 1476.0000 1.0000
29.3200 1404.0000 1.0000
29.3300 1410.0000 1.0000
29.3400 1396.0000 1.0000
29.3500 1423.0000 1.0000
29.3600 1410.0000 1.0000
29.3700 1399.0000 1.0000
29.3800 1408.0000 1.0000
29.3900 1462.0000 1.0000
29.4000 1418.0000 1.0000
29.4100 1418.0000 1.0000
29.4200 1432.0000 1.0000
29.4300 1400.0000 1.0000
29.4400 1383.0000 1.0000
29.4500 1323.0000 1.0000
29.4600 1353.0000 1.0000
29.4700 1395.0000 1.0000
29.4800 1321.0000 1.0000
29.4900 1338.0000 1.0000
29.5000 1391.0000 1.0000
29.5100 1400.0000 1.0000
29.5200 1394.0000 1.0000
29.5300 1396.0000 1.0000
29.5400 1400.0000 1.0000
29.5500 1437.0000 1.0000
29.5600 1414.0000 1.0000
29.5700 1386.0000 1.0000
29.5800 1421.0000 1.0000
29.5900 1447.0000 1.0000
29.6000 1407.0000 1.0000
29.6100 1409.0000 1.0000
29.6200 1405.0000 1.0000
29.6300 1378.0000 1.0000
29.6400 1347.0000 1.0000
29.6500 1401.0000 1.0000
29.6600 1384.0000 1.0000
29.6700 1350.0000 1.0000
29.6800 1428.0000 1.0000
29.6900 1377.0000 1.0000
29.7000 1368.0000 1.0000
29.7100 1436.0000 1.0000
29.7200 1388.0000 1.0000
29.7300 1368.0000 1.0000
29.7400 1313.0000 1.0000
29.7500 1376.0000 1.0000
29.7600 1397.0000 1.0000
29.7700 1392.0000 1.0000
29.7800 1296.0000 1.0000
29.7900 1336.0000 1.0000
29.8000 1344.0000 1.0000
29.8100 1384.0000 1.0000
29.8200 1445.0000 1.0000
29.8300 1378.0000 1.0000
29.8400 1331.0000 1.0000
29.8500 1349.0000 1.0000
29.8600 1423.0000 1.0000
29.8700 1449.0000 1.0000
29.8800 1403.0000 1.0000
29.8900 1386.0000 1.0000
29.9000 1378.0000 1.0000
29.9100 1332.0000 1.0000
29.9200 1404.0000 1.0000
29.9300 1408.0000 1.0000
29.9400 1340.0000 1.0000
29.9500 1380.0000 1.0000
29.9600 1380.0000 1.0000
29.9700 1340.0000 1.0000
29.9800 1327.0000 1.0000
29.9900 1314.0000 1.0000
30.0000 1383.0000 1.0000
30.0100 1337.0000 1.0000
30.0200 1357.0000 1.0000
30.0300 1328.0000 1.0000
30.0400 1387.0000 1.0000
30.0500 1324.0000 1.0000
30.0600 1342.0000 1.0000
30.0700 1351.0000 1.0000
30.0800 1333.0000 1.0000
30.0900 1294.0000 1.0000
30.1000 1329.0000 1.0000
30.1100 1334.0000 1.0000
30.1200 1371.0000 1.0000
30.1300 1344.0000 1.0000
30.1400 1367.0000 1.0000
30.1500 1378.0000 1.0000
30.1600 1320.0000 1.0000
30.1700 1332.0000 1.0000
30.1800 1303.0000 1.0000
30.1900 1351.0000 1.0000
30.2000 1377.0000 1.0000
30.2100 1373.0000 1.0000
30.2200 1390.0000 1.0000
30.2300 1372.0000 1.0000
30.2400 1353.0000 1.0000
30.2500 1343.0000 1.0000
30.2600 1292.0000 1.0000
30.2700 1351.0000 1.0000
30.2800 1337.0000 1.0000
30.2900 1302.0000 1.0000
30.3000 1362.0000 1.0000
30.3100 1323.0000 1.0000
30.3200 1302.0000 1.0000
30.3300 1335.0000 1.0000
30.3400 1333.0000 1.0000
30.3500 1346.0000 1.0000
30.3600 1298.0000 1.0000
30.3700 1351.0000 1.0000
30.3800 1326.0000 1.0000
30.3900 1302.0000 1.0000
30.4000 1315.0000 1.0000
30.4100 1378.0000 1.0000
30.4200 1363.0000 1.0000
30.4300 1304.0000 1.0000
30.4400 1303.0000 1.0000
30.4500 1350.0000 1.0000
30.4600 1320.0000 1.0000
30.4700 1348.0000 1.0000
30.4800 1355.0000 1.0000
30.4900 1370.0000 1.0000
30.5000 1301.0000 1.0000
30.5100 1336.0000 1.0000
30.5200 1333.0000 1.0000
30.5300 1311.0000 1.0000
30.5400 1324.0000 1.0000
30.5500 1307.0000 1.0000
30.5600 1303.0000 1.0000
30.5700 1297.0000 1.0000
30.5800 1363.0000 1.0000
30.5900 1377.0000 1.0000
30.6000 1268.0000 1.0000
30.6100 1347.0000 1.0000
30.6200 1308.0000 1.0000
30.6300 1329.0000 1.0000
30.6400 1326.0000 1.0000
30.6500 1361.0000 1.0000
30.6600 1316.0000 1.0000
30.6700 1294.0000 1.0000
30.6800 1283.0000 1.0000
30.6900 1257.0000 1.0000
30.7000 1306.0000 1.0000
30.7100 1291.0000 1.0000
30.7200 1308.0000 1.0000
30.7300 1326.0000 1.0000
30.7400 1324.0000 1.0000
30.7500 1293.0000 1.0000
30.7600 1278.0000 1.0000
30.7700 1355.0000 1.0000
30.7800 1324.0000 1.0000
30.7900 1273.0000 1.0000
30.8000 1283.0000 1.0000
30.8100 1270.0000 1.0000
30.8200 1249.0000 1.0000
30.8300 1352.0000 1.0000
30.8400 1310.0000 1.0000
30.8500 1345.0000 1.0000
30.8600 1242.0000 1.0000
30.8700 1299.0000 1.0000
30.8800 1328.0000 1.0000
30.8900 1319.0000 1.0000
30.9000 1290.0000 1.0000
30.9100 1303.0000 1.0000
30.9200 1300.0000 1.0000
30.9300 1302.0000 1.0000
30.9400 1273.0000 1.0000
30.9500 1337.0000 1.0000
30.9600 1374.0000 1.0000
30.9700 1285.0000 1.0000
30.9800 1306.0000 1.0000
30.9900 1280.0000 1.0000
31.0000 1316.0000 1.0000
31.0100 1301.0000 1.0000
31.0200 1307.0000 1.0000
31.0300 1302.0000 1.0000
31.0400 1290.0000 1.0000
31.0500 1339.0000 1.0000
31.0600 1330.0000 1.0000
31.0700 1320.0000 1.0000
31.0800 1316.0000 1.0000
31.0900 1364.0000 1.0000
31.1000 1286.0000 1.0000
31.1100 1352.0000 1.0000
31.1200 1322.0000 1.0000
31.1300 1296.0000 1.0000
31.1400 1252.0000 1.0000
31.1500 1327.0000 1.0000
31.1600 1272.0000 1.0000
31.1700 1258.0000 1.0000
31.1800 1331.0000 1.0000
31.1900 1289.0000 1.0000
31.2000 1317.0000 1.0000
31.2100 1329.0000 1.0000
31.2200 1307.0000 1.0000
31.2300 1279.0000 1.0000
31.2400 1328.0000 1.0000
31.2500 1332.0000 1.0000
31.2600 1302.0000 1.0000
31.2700 1282.0000 1.0000
31.2800 1256.0000 1.0000
31.2900 1220.0000 1.0000
31.3000 1223.0000 1.0000
31.3100 1306.0000 1.0000
31.3200 1242.0000 1.0000
31.3300 1270.0000 1.0000
31.3400 1336.0000 1.0000
31.3500 1254.0000 1.0000
31.3600 1287.0000 1.0000
31.3700 1318.0000 1.0000
31.3800 1233.0000 1.0000
31.3900 1246.0000 1.0000
31.4000 1243.0000 1.0000
31.4100 1260.0000 1.0000
31.4200 1299.0000 1.0000
31.4300 1252.0000 1.0000
31.4400 1245.0000 1.0000
31.4500 1258.0000 1.0000
31.4600 1261.0000 1.0000
31.4700 1240.0000 1.0000
31.4800 1243.0000 1.0000
31.4900 1183.0000 1.0000
31.5000 1281.0000 1.0000
31.5100 1292.0000 1.0000
31.5200 1313.0000 1.0000
31.5300 1263.0000 1.0000
31.5400 1223.0000 1.0000
31.5500 1281.0000 1.0000
31.5600 1181.0000 1.0000
31.5700 1185.0000 1.0000
31.5800 1241.0000 1.0000
31.5900 1233.0000 1.0000
31.6000 1197.0000 1.0000
31.6100 1227.0000 1.0000
31.6200 1190.0000 1.0000
31.6300 1174.0000 1.0000
31.6400 1255.0000 1.0000
31.6500 1222.0000 1.0000
31.6600 1228.0000 1.0000
31.6700 1268.0000 1.0000
31.6800 1255.0000 1.0000
31.6900 1233.0000 1.0000
31.7000 1229.0000 1.0000
31.7100 1244.0000 1.0000
31.7200 1253.0000 1.0000
31.7300 1225.0000 1.0000
31.7400 1281.0000 1.0000
31.7500 1233.0000 1.0000
31.7600 1252.0000 1.0000
31.7700 1258.0000 1.0000
31.7800 1300.0000 1.0000
31.7900 1257.0000 1.0000
31.8000 1247.0000 1.0000
31.8100 1243.0000 1.0000
31.8200 1232.0000 1.0000
31.8300 1281.0000 1.0000
31.8400 1268.0000 1.0000
31.8500 1238.0000 1.0000
31.8600 1286.0000 1.0000
31.8700 1263.0000 1.0000
31.8800 1324.0000 1.0000
31.8900 1267.0000 1.0000
31.9000 1256.0000 1.0000
31.9100 1301.0000 1.0000
31.9200 1272.0000 1.0000
31.9300 1256.0000 1.0000
31.9400 1268.0000 1.0000
31.9500 1280.0000 1.0000
31.9600 1332.0000 1.0000
31.9700 1318.0000 1.0000
31.9800 1277.0000 1.0000
31.9900 1288.0000 1.0000
32.0000 1305.0000 1.0000
32.0100 1313.0000 1.0000
32.0200 1253.0000 1.0000
32.0300 1305.0000 1.0000
32.0400 1284.0000 1.0000
32.0500 1239.0000 1.0000
32.0600 1287.0000 1.0000
32.0700 1232.0000 1.0000
32.0800 1258.0000 1.0000
32.0900 1276.0000 1.0000
32.1000 1232.0000 1.0000
32.1100 1284.0000 1.0000
32.1200 1238.0000 1.0000
32.1300 1272.0000 1.0000
32.1400 1286.0000 1.0000
32.1500 1202.0000 1.0000
32.1600 1246.0000 1.0000
32.1700 1229.0000 1.0000
32.1800 1258.0000 1.0000
32.1900 1204.0000 1.0000
32.2000 1235.0000 1.0000
32.2100 1244.0000 1.0000
32.2200 1228.0000 1.0000
32.2300 1229.0000 1.0000
32.2400 1202.0000 1.0000
32.2500 1263.0000 1.0000
32.2600 1290.0000 1.0000
32.2700 1228.0000 1.0000
32.2800 1194.0000 1.0000
32.2900 1203.0000 1.0000
32.3000 1209.0000 1.0000
32.3100 1273.0000 1.0000
32.3200 1245.0000 1.0000
32.3300 1196.0000 1.0000
32.3400 1198.0000 1.0000
32.3500 1230.0000 1.0000
32.3600 1221.0000 1.0000
32.3700 1261.0000 1.0000
32.3800 1195.0000 1.0000
32.3900 1205.0000 1.0000
32.4000 1162.0000 1.0000
32.4100 1209.0000 1.0000
32.4200 1214.0000 1.0000
32.4300 1193.0000 1.0000
32.4400 1187.0000 1.0000
32.4500 1188.0000 1.0000
32.4600 1181.0000 1.0000
32.4700 1250.0000 1.0000
32.4800 1243.0000 1.0000
32.4900 1182.0000 1.0000
32.5000 1188.0000 1.0000
32.5100 1220.0000 1.0000
32.5200 1225.0000 1.0000
32.5300 1232.0000 1.0000
32.5400 1209.0000 1.0000
32.5500 1156.0000 1.0000
32.5600 1225.0000 1.0000
32.5700 1209.0000 1.0000
32.5800 1189.0000 1.0000
32.5900 1184.0000 1.0000
32.6000 1157.0000 1.0000
32.6100 1204.0000 1.0000
32.6200 1186.0000 1.0000
32.6300 1174.0000 1.0000
32.6400 1258.0000 1.0000
32.6500 1189.0000 1.0000
32.6600 1169.0000 1.0000
32.6700 1126.0000 1.0000
32.6800 1201.0000 1.0000
32.6900 1190.0000 1.0000
32.7000 1232.0000 1.0000
32.7100 1200.0000 1.0000
32.7200 1191.0000 1.0000
32.7300 1192.0000 1.0000
32.7400 1209.0000 1.0000
32.7500 1177.0000 1.0000
32.7600 1141.0000 1.0000
32.7700 1181.0000 1.0000
32.7800 1166.0000 1.0000
32.7900 1228.0000 1.0000
32.8000 1173.0000 1.0000
32.8100 1142.0000 1.0000
32.8200 1145.0000 1.0000
32.8300 1156.0000 1.0000
32.8400 1164.0000 1.0000
32.8500 1200.0000 1.0000
32.8600 1117.0000 1.0000
32.8700 1196.0000 1.0000
32.8800 1240.0000 1.0000
32.8900 1180.0000 1.0000
32.9000 1209.0000 1.0000
32.9100 1173.0000 1.0000
32.9200 1170.0000 1.0000
32.9300 1171.0000 1.0000
32.9400 1237.0000 1.0000
32.9500 1164.0000 1.0000
32.9600 1145.0000 1.0000
32.9700 1163.0000 1.0000
32.9800 1175.0000 1.0000
32.9900 1209.0000 1.0000
33.0000 1114.0000 1.0000
33.0100 1143.0000 1.0000
33.0200 1182.0000 1.0000
33.0300 1195.0000 1.0000
33.0400 1200.0000 1.0000
33.0500 1157.0000 1.0000
33.0600 1179.0000 1.0000
33.0700 1177.0000 1.0000
33.0800 1196.0000 1.0000
33.0900 1174.0000 1.0000
33.1000 1121.0000 1.0000
33.1100 1175.0000 1.0000
33.1200 1159.0000 1.0000
33.1300 1172.0000 1.0000
33.1400 1172.0000 1.0000
33.1500 1132.0000 1.0000
33.1600 1179.0000 1.0000
33.1700 1183.0000 1.0000
33.1800 1227.0000 1.0000
33.1900 1155.0000 1.0000
33.2000 1170.0000 1.0000
33.2100 1175.0000 1.0000
33.2200 1160.0000 1.0000
33.2300 1216.0000 1.0000
33.2400 1184.0000 1.0000
33.2500 1155.0000 1.0000
33.2600 1158.0000 1.0000
33.2700 1226.0000 1.0000
33.2800 1163.0000 1.0000
33.2900 1198.0000 1.0000
33.3000 1114.0000 1.0000
33.3100 1166.0000 1.0000
33.3200 1182.0000 1.0000
33.3300 1180.0000 1.0000
33.3400 1181.0000 1.0000
33.3500 1237.0000 1.0000
33.3600 1220.0000 1.0000
33.3700 1151.0000 1.0000
33.3800 1183.0000 1.0000
33.3900 1228.0000 1.0000
33.4000 1175.0000 1.0000
33.4100 1184.0000 1.0000
33.4200 1173.0000 1.0000
33.4300 1149.0000 1.0000
33.4400 1161.0000 1.0000
33.4500 1134.0000 1.0000
33.4600 1133.0000 1.0000
33.4700 1130.0000 1.0000
33.4800 1172.0000 1.0000
33.4900 1131.0000 1.0000
33.5000 1156.0000 1.0000
33.5100 1223.0000 1.0000
33.5200 1174.0000 1.0000
33.5300 1133.0000 1.0000
33.5400 1214.0000 1.0000
33.5500 1218.0000 1.0000
33.5600 1221.0000 1.0000
33.5700 1257.0000 1.0000
33.5800 1186.0000 1.0000
33.5900 1142.0000 1.0000
33.6000 1161.0000 1.0000
33.6100 1205.0000 1.0000
33.6200 1201.0000 1.0000
33.6300 1205.0000 1.0000
33.6400 1139.0000 1.0000
33.6500 1157.0000 1.0000
33.6600 1135.0000 1.0000
33.6700 1159.0000 1.0000
33.6800 1248.0000 1.0000
33.6900 1236.0000 1.0000
33.7000 1209.0000 1.0000
33.7100 1233.0000 1.0000
33.7200 1153.0000 1.0000
33.7300 1132.0000 1.0000
33.7400 1200.0000 1.0000
33.7500 1246.0000 1.0000
33.7600 1235.0000 1.0000
33.7700 1269.0000 1.0000
33.7800 1214.0000 1.0000
33.7900 1227.0000 1.0000
33.8000 1200.0000 1.0000
33.8100 1201.0000 1.0000
33.8200 1197.0000 1.0000
33.8300 1179.0000 1.0000
33.8400 1224.0000 1.0000
33.8500 1179.0000 1.0000
33.8600 1189.0000 1.0000
33.8700 1220.0000 1.0000
33.8800 1295.0000 1.0000
33.8900 1213.0000 1.0000
33.9000 1213.0000 1.0000
33.9100 1178.0000 1.0000
33.9200 1256.0000 1.0000
33.9300 1301.0000 1.0000
33.9400 1250.0000 1.0000
33.9500 1248.0000 1.0000
33.9600 1248.0000 1.0000
33.9700 1234.0000 1.0000
33.9800 1236.0000 1.0000
33.9900 1251.0000 1.0000
34.0000 1277.0000 1.0000
34.0100 1252.0000 1.0000
34.0200 1268.0000 1.0000
34.0300 1324.0000 1.0000
34.0400 1316.0000 1.0000
34.0500 1259.0000 1.0000
34.0600 1276.0000 1.0000
34.0700 1288.0000 1.0000
34.0800 1316.0000 1.0000
34.0900 1278.0000 1.0000
34.1000 1302.0000 1.0000
34.1100 1360.0000 1.0000
34.1200 1282.0000 1.0000
34.1300 1322.0000 1.0000
34.1400 1283.0000 1.0000
34.1500 1337.0000 1.0000
34.1600 1356.0000 1.0000
34.1700 1373.0000 1.0000
34.1800 1463.0000 1.0000
34.1900 1410.0000 1.0000
34.2000 1415.0000 1.0000
34.2100 1428.0000 1.0000
34.2200 1442.0000 1.0000
34.2300 1522.0000 1.0000
34.2400 1521.0000 1.0000
34.2500 1523.0000 1.0000
34.2600 1605.0000 1.0000
34.2700 1621.0000 1.0000
34.2800 1662.0000 1.0000
34.2900 1658.0000 1.0000
34.3000 1684.0000 1.0000
34.3100 1795.0000 1.0000
34.3200 1773.0000 1.0000
34.3300 1897.0000 1.0000
34.3400 1976.0000 1.0000
34.3500 1929.0000 1.0000
34.3600 2128.0000 1.0000
34.3700 2222.0000 1.0000
34.3800 2300.0000 1.0000
34.3900 2428.0000 1.0000
34.4000 2481.0000 1.0000
34.4100 2616.0000 1.0000
34.4200 2673.0000 1.0000
34.4300 2897.0000 1.0000
34.4400 3051.0000 1.0000
34.4500 3186.0000 1.0000
34.4600 3255.0000 1.0000
34.4700 3285.0000 1.0000
34.4800 3349.0000 1.0000
34.4900 3468.0000 1.0000
34.5000 3469.0000 1.0000
34.5100 3381.0000 1.0000
34.5200 3342.0000 1.0000
34.5300 3232.0000 1.0000
34.5400 3102.0000 1.0000
34.5500 3031.0000 1.0000
34.5600 3041.0000 1.0000
34.5700 2953.0000 1.0000
34.5800 2756.0000 1.0000
34.5900 2666.0000 1.0000
34.6000 2502.0000 1.0000
34.6100 2480.0000 1.0000
34.6200 2364.0000 1.0000
34.6300 2201.0000 1.0000
34.6400 2058.0000 1.0000
34.6500 2009.0000 1.0000
34.6600 1864.0000 1.0000
34.6700 1841.0000 1.0000
34.6800 1813.0000 1.0000
34.6900 1769.0000 1.0000
34.7000 1686.0000 1.0000
34.7100 1736.0000 1.0000
34.7200 1612.0000 1.0000
34.7300 1640.0000 1.0000
34.7400 1603.0000 1.0000
34.7500 1570.0000 1.0000
34.7600 1557.0000 1.0000
34.7700 1457.0000 1.0000
34.7800 1469.0000 1.0000
34.7900 1519.0000 1.0000
34.8000 1487.0000 1.0000
34.8100 1418.0000 1.0000
34.8200 1392.0000 1.0000
34.8300 1368.0000 1.0000
34.8400 1299.0000 1.0000
34.8500 1294.0000 1.0000
34.8600 1296.0000 1.0000
34.8700 1263.0000 1.0000
34.8800 1284.0000 1.0000
34.8900 1258.0000 1.0000
34.9000 1275.0000 1.0000
34.9100 1279.0000 1.0000
34.9200 1243.0000 1.0000
34.9300 1236.0000 1.0000
34.9400 1182.0000 1.0000
34.9500 1146.0000 1.0000
34.9600 1182.0000 1.0000
34.9700 1141.0000 1.0000
34.9800 1183.0000 1.0000
34.9900 1189.0000 1.0000
35.0000 1183.0000 1.0000
35.0100 1182.0000 1.0000
35.0200 1221.0000 1.0000
35.0300 1129.0000 1.0000
35.0400 1136.0000 1.0000
35.0500 1135.0000 1.0000
35.0600 1139.0000 1.0000
35.0700 1127.0000 1.0000
35.0800 1088.0000 1.0000
35.0900 1091.0000 1.0000
35.1000 1096.0000 1.0000
35.1100 1131.0000 1.0000
35.1200 1107.0000 1.0000
35.1300 1063.0000 1.0000
35.1400 1105.0000 1.0000
35.1500 1128.0000 1.0000
35.1600 1074.0000 1.0000
35.1700 1078.0000 1.0000
35.1800 1057.0000 1.0000
35.1900 1061.0000 1.0000
35.2000 1094.0000 1.0000
35.2100 1056.0000 1.0000
35.2200 1043.0000 1.0000
35.2300 1074.0000 1.0000
35.2400 1076.0000 1.0000
35.2500 1075.0000 1.0000
35.2600 1042.0000 1.0000
35.2700 1069.0000 1.0000
35.2800 1066.0000 1.0000
35.2900 1095.0000 1.0000
35.3000 1032.0000 1.0000
35.3100 1043.0000 1.0000
35.3200 1032.0000 1.0000
35.3300 1084.0000 1.0000
35.3400 1050.0000 1.0000
35.3500 972.0000 1.0000
35.3600 995.0000 1.0000
35.3700 959.0000 1.0000
35.3800 1013.0000 1.0000
35.3900 1030.0000 1.0000
35.4000 1052.0000 1.0000
35.4100 1071.0000 1.0000
35.4200 1059.0000 1.0000
35.4300 1046.0000 1.0000
35.4400 1028.0000 1.0000
35.4500 1016.0000 1.0000
35.4600 1007.0000 1.0000
35.4700 1057.0000 1.0000
35.4800 1029.0000 1.0000
35.4900 1016.0000 1.0000
35.5000 1014.0000 1.0000
35.5100 1004.0000 1.0000
35.5200 1051.0000 1.0000
35.5300 1024.0000 1.0000
35.5400 987.0000 1.0000
35.5500 1021.0000 1.0000
35.5600 1033.0000 1.0000
35.5700 1004.0000 1.0000
35.5800 1084.0000 1.0000
35.5900 1003.0000 1.0000
35.6000 1068.0000 1.0000
35.6100 992.0000 1.0000
35.6200 983.0000 1.0000
35.6300 1023.0000 1.0000
35.6400 1038.0000 1.0000
35.6500 1056.0000 1.0000
35.6600 1005.0000 1.0000
35.6700 1027.0000 1.0000
35.6800 960.0000 1.0000
35.6900 1011.0000 1.0000
35.7000 1004.0000 1.0000
35.7100 968.0000 1.0000
35.7200 961.0000 1.0000
35.7300 991.0000 1.0000
35.7400 988.0000 1.0000
35.7500 974.0000 1.0000
35.7600 968.0000 1.0000
35.7700 995.0000 1.0000
35.7800 1044.0000 1.0000
35.7900 1042.0000 1.0000
35.8000 995.0000 1.0000
35.8100 1007.0000 1.0000
35.8200 994.0000 1.0000
35.8300 994.0000 1.0000
35.8400 1018.0000 1.0000
35.8500 909.0000 1.0000
35.8600 966.0000 1.0000
35.8700 1008.0000 1.0000
35.8800 973.0000 1.0000
35.8900 1000.0000 1.0000
35.9000 1022.0000 1.0000
35.9100 1032.0000 1.0000
35.9200 1001.0000 1.0000
35.9300 985.0000 1.0000
35.9400 982.0000 1.0000
35.9500 1014.0000 1.0000
35.9600 1031.0000 1.0000
35.9700 1006.0000 1.0000
35.9800 1007.0000 1.0000
35.9900 965.0000 1.0000
36.0000 1015.0000 1.0000
36.0100 1023.0000 1.0000
36.0200 994.0000 1.0000
36.0300 1009.0000 1.0000
36.0400 1007.0000 1.0000
36.0500 1005.0000 1.0000
36.0600 1007.0000 1.0000
36.0700 957.0000 1.0000
36.0800 1004.0000 1.0000
36.0900 1026.0000 1.0000
36.1000 1004.0000 1.0000
36.1100 966.0000 1.0000
36.1200 991.0000 1.0000
36.1300 1061.0000 1.0000
36.1400 1015.0000 1.0000
36.1500 1031.0000 1.0000
36.1600 997.0000 1.0000
36.1700 1002.0000 1.0000
36.1800 1031.0000 1.0000
36.1900 1029.0000 1.0000
36.2000 1007.0000 1.0000
36.2100 1041.0000 1.0000
36.2200 1029.0000 1.0000
36.2300 1028.0000 1.0000
36.2400 1013.0000 1.0000
36.2500 1026.0000 1.0000
36.2600 1050.0000 1.0000
36.2700 1073.0000 1.0000
36.2800 1072.0000 1.0000
36.2900 1066.0000 1.0000
36.3000 1056.0000 1.0000
36.3100 1067.0000 1.0000
36.3200 1038.0000 1.0000
36.3300 1057.0000 1.0000
36.3400 1053.0000 1.0000
36.3500 1033.0000 1.0000
36.3600 1040.0000 1.0000
36.3700 1064.0000 1.0000
36.3800 1079.0000 1.0000
36.3900 1045.0000 1.0000
36.4000 1053.0000 1.0000
36.4100 1036.0000 1.0000
36.4200 1034.0000 1.0000
36.4300 1038.0000 1.0000
36.4400 1004.0000 1.0000
36.4500 1043.0000 1.0000
36.4600 1016.0000 1.0000
36.4700 1025.0000 1.0000
36.4800 1049.0000 1.0000
36.4900 1035.0000 1.0000
36.5000 1027.0000 1.0000
36.5100 1037.0000 1.0000
36.5200 1049.0000 1.0000
36.5300 1016.0000 1.0000
36.5400 996.0000 1.0000
36.5500 1023.0000 1.0000
36.5600 1016.0000 1.0000
36.5700 973.0000 1.0000
36.5800 1026.0000 1.0000
36.5900 1011.0000 1.0000
36.6000 992.0000 1.0000
36.6100 1010.0000 1.0000
36.6200 1020.0000 1.0000
36.6300 1005.0000 1.0000
36.6400 1010.0000 1.0000
36.6500 976.0000 1.0000
36.6600 975.0000 1.0000
36.6700 943.0000 1.0000
36.6800 966.0000 1.0000
36.6900 1005.0000 1.0000
36.7000 976.0000 1.0000
36.7100 958.0000 1.0000
36.7200 919.0000 1.0000
36.7300 936.0000 1.0000
36.7400 937.0000 1.0000
36.7500 991.0000 1.0000
36.7600 916.0000 1.0000
36.7700 907.0000 1.0000
36.7800 928.0000 1.0000
36.7900 902.0000 1.0000
36.8000 950.0000 1.0000
36.8100 942.0000 1.0000
36.8200 974.0000 1.0000
36.8300 871.0000 1.0000
36.8400 972.0000 1.0000
36.8500 926.0000 1.0000
36.8600 940.0000 1.0000
36.8700 919.0000 1.0000
36.8800 896.0000 1.0000
36.8900 860.0000 1.0000
36.9000 866.0000 1.0000
36.9100 912.0000 1.0000
36.9200 931.0000 1.0000
36.9300 939.0000 1.0000
36.9400 945.0000 1.0000
36.9500 939.0000 1.0000
36.9600 965.0000 1.0000
36.9700 941.0000 1.0000
36.9800 879.0000 1.0000
36.9900 947.0000 1.0000
37.0000 917.0000 1.0000
37.0100 921.0000 1.0000
37.0200 915.0000 1.0000
37.0300 905.0000 1.0000
37.0400 904.0000 1.0000
37.0500 955.0000 1.0000
37.0600 876.0000 1.0000
37.0700 884.0000 1.0000
37.0800 903.0000 1.0000
37.0900 949.0000 1.0000
37.1000 918.0000 1.0000
37.1100 886.0000 1.0000
37.1200 941.0000 1.0000
37.1300 886.0000 1.0000
37.1400 933.0000 1.0000
37.1500 984.0000 1.0000
37.1600 960.0000 1.0000
37.1700 920.0000 1.0000
37.1800 902.0000 1.0000
37.1900 924.0000 1.0000
37.2000 953.0000 1.0000
37.2100 963.0000 1.0000
37.2200 943.0000 1.0000
37.2300 911.0000 1.0000
37.2400 871.0000 1.0000
37.2500 918.0000 1.0000
37.2600 885.0000 1.0000
37.2700 899.0000 1.0000
37.2800 911.0000 1.0000
37.2900 946.0000 1.0000
37.3000 923.0000 1.0000
37.3100 901.0000 1.0000
37.3200 911.0000 1.0000
37.3300 928.0000 1.0000
37.3400 873.0000 1.0000
37.3500 875.0000 1.0000
37.3600 872.0000 1.0000
37.3700 930.0000 1.0000
37.3800 930.0000 1.0000
37.3900 896.0000 1.0000
37.4000 950.0000 1.0000
37.4100 916.0000 1.0000
37.4200 943.0000 1.0000
37.4300 913.0000 1.0000
37.4400 955.0000 1.0000
37.4500 903.0000 1.0000
37.4600 933.0000 1.0000
37.4700 916.0000 1.0000
37.4800 927.0000 1.0000
37.4900 870.0000 1.0000
37.5000 896.0000 1.0000
37.5100 921.0000 1.0000
37.5200 945.0000 1.0000
37.5300 972.0000 1.0000
37.5400 923.0000 1.0000
37.5500 924.0000 1.0000
37.5600 889.0000 1.0000
37.5700 895.0000 1.0000
37.5800 869.0000 1.0000
37.5900 911.0000 1.0000
37.6000 933.0000 1.0000
37.6100 916.0000 1.0000
37.6200 865.0000 1.0000
37.6300 939.0000 1.0000
37.6400 905.0000 1.0000
37.6500 905.0000 1.0000
37.6600 904.0000 1.0000
37.6700 922.0000 1.0000
37.6800 914.0000 1.0000
37.6900 931.0000 1.0000
37.7000 881.0000 1.0000
37.7100 905.0000 1.0000
37.7200 892.0000 1.0000
37.7300 885.0000 1.0000
37.7400 897.0000 1.0000
37.7500 883.0000 1.0000
37.7600 907.0000 1.0000
37.7700 916.0000 1.0000
37.7800 876.0000 1.0000
37.7900 880.0000 1.0000
37.8000 896.0000 1.0000
37.8100 879.0000 1.0000
37.8200 960.0000 1.0000
37.8300 953.0000 1.0000
37.8400 918.0000 1.0000
37.8500 880.0000 1.0000
37.8600 912.0000 1.0000
37.8700 889.0000 1.0000
37.8800 931.0000 1.0000
37.8900 928.0000 1.0000
37.9000 917.0000 1.0000
37.9100 904.0000 1.0000
37.9200 928.0000 1.0000
37.9300 976.0000 1.0000
37.9400 911.0000 1.0000
37.9500 944.0000 1.0000
37.9600 941.0000 1.0000
37.9700 919.0000 1.0000
37.9800 942.0000 1.0000
37.9900 994.0000 1.0000
38.0000 999.0000 1.0000
38.0100 1026.0000 1.0000
38.0200 999.0000 1.0000
38.0300 983.0000 1.0000
38.0400 1011.0000 1.0000
38.0500 1008.0000 1.0000
38.0600 971.0000 1.0000
38.0700 1041.0000 1.0000
38.0800 985.0000 1.0000
38.0900 1061.0000 1.0000
38.1000 1080.0000 1.0000
38.1100 1129.0000 1.0000
38.1200 1112.0000 1.0000
38.1300 1139.0000 1.0000
38.1400 1117.0000 1.0000
38.1500 1153.0000 1.0000
38.1600 1153.0000 1.0000
38.1700 1213.0000 1.0000
38.1800 1166.0000 1.0000
38.1900 1249.0000 1.0000
38.2000 1274.0000 1.0000
38.2100 1342.0000 1.0000
38.2200 1367.0000 1.0000
38.2300 1399.0000 1.0000
38.2400 1469.0000 1.0000
38.2500 1530.0000 1.0000
38.2600 1581.0000 1.0000
38.2700 1647.0000 1.0000
38.2800 1629.0000 1.0000
38.2900 1734.0000 1.0000
38.3000 1769.0000 1.0000
38.3100 1872.0000 1.0000
38.3200 1977.0000 1.0000
38.3300 2131.0000 1.0000
38.3400 2247.0000 1.0000
38.3500 2416.0000 1.0000
38.3600 2460.0000 1.0000
38.3700 2681.0000 1.0000
38.3800 2857.0000 1.0000
38.3900 3012.0000 1.0000
38.4000 3368.0000 1.0000
38.4100 3539.0000 1.0000
38.4200 3775.0000 1.0000
38.4300 4020.0000 1.0000
38.4400 4375.0000 1.0000
38.4500 4761.0000 1.0000
38.4600 5007.0000 1.0000
38.4700 5303.0000 1.0000
38.4800 5581.0000 1.0000
38.4900 5808.0000 1.0000
38.5000 6051.0000 1.0000
38.5100 6174.0000 1.0000
38.5200 6210.0000 1.0000
38.5300 6272.0000 1.0000
38.5400 6163.0000 1.0000
38.5500 6176.0000 1.0000
38.5600 6004.0000 1.0000
38.5700 5952.0000 1.0000
38.5800 5613.0000 1.0000
38.5900 5582.0000 1.0000
38.6000 5439.0000 1.0000
38.6100 5198.0000 1.0000
38.6200 4908.0000 1.0000
38.6300 4628.0000 1.0000
38.6400 4246.0000 1.0000
38.6500 4111.0000 1.0000
38.6600 3857.0000 1.0000
38.6700 3572.0000 1.0000
38.6800 3424.0000 1.0000
38.6900 3196.0000 1.0000
38.7000 2957.0000 1.0000
38.7100 2714.0000 1.0000
38.7200 2569.0000 1.0000
38.7300 2385.0000 1.0000
38.7400 2218.0000 1.0000
38.7500 2085.0000 1.0000
38.7600 2092.0000 1.0000
38.7700 1975.0000 1.0000
38.7800 1830.0000 1.0000
38.7900 1691.0000 1.0000
38.8000 1625.0000 1.0000
38.8100 1487.0000 1.0000
38.8200 1471.0000 1.0000
38.8300 1411.0000 1.0000
38.8400 1369.0000 1.0000
38.8500 1302.0000 1.0000
38.8600 1277.0000 1.0000
38.8700 1290.0000 1.0000
38.8800 1222.0000 1.0000
38.8900 1175.0000 1.0000
38.9000 1141.0000 1.0000
38.9100 1124.0000 1.0000
38.9200 1066.0000 1.0000
38.9300 1050.0000 1.0000
38.9400 1025.0000 1.0000
38.9500 1048.0000 1.0000
38.9600 1032.0000 1.0000
38.9700 1064.0000 1.0000
38.9800 1032.0000 1.0000
38.9900 953.0000 1.0000
39.0000 966.0000 1.0000
39.0100 932.0000 1.0000
39.0200 974.0000 1.0000
39.0300 979.0000 1.0000
39.0400 870.0000 1.0000
39.0500 928.0000 1.0000
39.0600 899.0000 1.0000
39.0700 900.0000 1.0000
39.0800 944.0000 1.0000
39.0900 868.0000 1.0000
39.1000 868.0000 1.0000
39.1100 873.0000 1.0000
39.1200 902.0000 1.0000
39.1300 880.0000 1.0000
39.1400 892.0000 1.0000
39.1500 914.0000 1.0000
39.1600 902.0000 1.0000
39.1700 889.0000 1.0000
39.1800 864.0000 1.0000
39.1900 833.0000 1.0000
39.2000 890.0000 1.0000
39.2100 878.0000 1.0000
39.2200 890.0000 1.0000
39.2300 845.0000 1.0000
39.2400 854.0000 1.0000
39.2500 843.0000 1.0000
39.2600 816.0000 1.0000
39.2700 824.0000 1.0000
39.2800 771.0000 1.0000
39.2900 827.0000 1.0000
39.3000 849.0000 1.0000
39.3100 847.0000 1.0000
39.3200 816.0000 1.0000
39.3300 793.0000 1.0000
39.3400 805.0000 1.0000
39.3500 837.0000 1.0000
39.3600 839.0000 1.0000
39.3700 860.0000 1.0000
39.3800 855.0000 1.0000
39.3900 824.0000 1.0000
39.4000 837.0000 1.0000
39.4100 832.0000 1.0000
39.4200 835.0000 1.0000
39.4300 825.0000 1.0000
39.4400 824.0000 1.0000
39.4500 844.0000 1.0000
39.4600 807.0000 1.0000
39.4700 833.0000 1.0000
39.4800 872.0000 1.0000
39.4900 831.0000 1.0000
39.5000 865.0000 1.0000
39.5100 869.0000 1.0000
39.5200 858.0000 1.0000
39.5300 885.0000 1.0000
39.5400 891.0000 1.0000
39.5500 921.0000 1.0000
39.5600 834.0000 1.0000
39.5700 852.0000 1.0000
39.5800 837.0000 1.0000
39.5900 854.0000 1.0000
39.6000 916.0000 1.0000
39.6100 846.0000 1.0000
39.6200 876.0000 1.0000
39.6300 877.0000 1.0000
39.6400 898.0000 1.0000
39.6500 825.0000 1.0000
39.6600 868.0000 1.0000
39.6700 860.0000 1.0000
39.6800 890.0000 1.0000
39.6900 824.0000 1.0000
39.7000 828.0000 1.0000
39.7100 856.0000 1.0000
39.7200 839.0000 1.0000
39.7300 861.0000 1.0000
39.7400 799.0000 1.0000
39.7500 792.0000 1.0000
39.7600 864.0000 1.0000
39.7700 830.0000 1.0000
39.7800 787.0000 1.0000
39.7900 864.0000 1.0000
39.8000 814.0000 1.0000
39.8100 847.0000 1.0000
39.8200 884.0000 1.0000
39.8300 830.0000 1.0000
39.8400 819.0000 1.0000
39.8500 809.0000 1.0000
39.8600 814.0000 1.0000
39.8700 828.0000 1.0000
39.8800 837.0000 1.0000
39.8900 821.0000 1.0000
39.9000 789.0000 1.0000
39.9100 780.0000 1.0000
39.9200 789.0000 1.0000
39.9300 794.0000 1.0000
39.9400 776.0000 1.0000
39.9500 777.0000 1.0000
39.9600 795.0000 1.0000
39.9700 785.0000 1.0000
39.9800 760.0000 1.0000
39.9900 788.0000 1.0000
40.0000 784.0000 1.0000
40.0100 794.0000 1.0000
40.0200 804.0000 1.0000
40.0300 800.0000 1.0000
40.0400 739.0000 1.0000
40.0500 762.0000 1.0000
40.0600 820.0000 1.0000
40.0700 782.0000 1.0000
40.0800 776.0000 1.0000
40.0900 763.0000 1.0000
40.1000 743.0000 1.0000
40.1100 789.0000 1.0000
40.1200 744.0000 1.0000
40.1300 778.0000 1.0000
40.1400 730.0000 1.0000
40.1500 761.0000 1.0000
40.1600 780.0000 1.0000
40.1700 759.0000 1.0000
40.1800 768.0000 1.0000
40.1900 744.0000 1.0000
40.2000 809.0000 1.0000
40.2100 780.0000 1.0000
40.2200 726.0000 1.0000
40.2300 743.0000 1.0000
40.2400 778.0000 1.0000
40.2500 772.0000 1.0000
40.2600 743.0000 1.0000
40.2700 780.0000 1.0000
40.2800 772.0000 1.0000
40.2900 793.0000 1.0000
40.3000 746.0000 1.0000
40.3100 768.0000 1.0000
40.3200 785.0000 1.0000
40.3300 780.0000 1.0000
40.3400 768.0000 1.0000
40.3500 754.0000 1.0000
40.3600 797.0000 1.0000
40.3700 733.0000 1.0000
40.3800 813.0000 1.0000
40.3900 767.0000 1.0000
40.4000 750.0000 1.0000
40.4100 758.0000 1.0000
40.4200 784.0000 1.0000
40.4300 779.0000 1.0000
40.4400 725.0000 1.0000
40.4500 750.0000 1.0000
40.4600 796.0000 1.0000
40.4700 745.0000 1.0000
40.4800 750.0000 1.0000
40.4900 786.0000 1.0000
40.5000 720.0000 1.0000
40.5100 713.0000 1.0000
40.5200 752.0000 1.0000
40.5300 767.0000 1.0000
40.5400 765.0000 1.0000
40.5500 766.0000 1.0000
40.5600 774.0000 1.0000
40.5700 781.0000 1.0000
40.5800 761.0000 1.0000
40.5900 730.0000 1.0000
40.6000 707.0000 1.0000
40.6100 755.0000 1.0000
40.6200 790.0000 1.0000
40.6300 732.0000 1.0000
40.6400 718.0000 1.0000
40.6500 721.0000 1.0000
40.6600 743.0000 1.0000
40.6700 738.0000 1.0000
40.6800 755.0000 1.0000
40.6900 720.0000 1.0000
40.7000 795.0000 1.0000
40.7100 760.0000 1.0000
40.7200 795.0000 1.0000
40.7300 716.0000 1.0000
40.7400 741.0000 1.0000
40.7500 735.0000 1.0000
40.7600 757.0000 1.0000
40.7700 735.0000 1.0000
40.7800 716.0000 1.0000
40.7900 742.0000 1.0000
40.8000 706.0000 1.0000
40.8100 754.0000 1.0000
40.8200 701.0000 1.0000
40.8300 720.0000 1.0000
40.8400 743.0000 1.0000
40.8500 763.0000 1.0000
40.8600 758.0000 1.0000
40.8700 737.0000 1.0000
40.8800 736.0000 1.0000
40.8900 784.0000 1.0000
40.9000 744.0000 1.0000
40.9100 778.0000 1.0000
40.9200 741.0000 1.0000
40.9300 730.0000 1.0000
40.9400 758.0000 1.0000
40.9500 716.0000 1.0000
40.9600 738.0000 1.0000
40.9700 746.0000 1.0000
40.9800 781.0000 1.0000
40.9900 723.0000 1.0000
41.0000 758.0000 1.0000
41.0100 730.0000 1.0000
41.0200 728.0000 1.0000
41.0300 745.0000 1.0000
41.0400 744.0000 1.0000
41.0500 771.0000 1.0000
41.0600 735.0000 1.0000
41.0700 727.0000 1.0000
41.0800 727.0000 1.0000
41.0900 720.0000 1.0000
41.1000 769.0000 1.0000
41.1100 790.0000 1.0000
41.1200 718.0000 1.0000
41.1300 691.0000 1.0000
41.1400 721.0000 1.0000
41.1500 755.0000 1.0000
41.1600 730.0000 1.0000
41.1700 724.0000 1.0000
41.1800 774.0000 1.0000
41.1900 758.0000 1.0000
41.2000 715.0000 1.0000
41.2100 707.0000 1.0000
41.2200 733.0000 1.0000
41.2300 768.0000 1.0000
41.2400 725.0000 1.0000
41.2500 702.0000 1.0000
41.2600 760.0000 1.0000
41.2700 734.0000 1.0000
41.2800 740.0000 1.0000
41.2900 706.0000 1.0000
41.3000 767.0000 1.0000
41.3100 725.0000 1.0000
41.3200 712.0000 1.0000
41.3300 725.0000 1.0000
41.3400 729.0000 1.0000
41.3500 732.0000 1.0000
41.3600 731.0000 1.0000
41.3700 725.0000 1.0000
41.3800 776.0000 1.0000
41.3900 728.0000 1.0000
41.4000 771.0000 1.0000
41.4100 751.0000 1.0000
41.4200 722.0000 1.0000
41.4300 766.0000 1.0000
41.4400 736.0000 1.0000
41.4500 743.0000 1.0000
41.4600 779.0000 1.0000
41.4700 719.0000 1.0000
41.4800 743.0000 1.0000
41.4900 762.0000 1.0000
41.5000 720.0000 1.0000
41.5100 756.0000 1.0000
41.5200 674.0000 1.0000
41.5300 753.0000 1.0000
41.5400 700.0000 1.0000
41.5500 708.0000 1.0000
41.5600 739.0000 1.0000
41.5700 767.0000 1.0000
41.5800 753.0000 1.0000
41.5900 757.0000 1.0000
41.6000 749.0000 1.0000
41.6100 740.0000 1.0000
41.6200 735.0000 1.0000
41.6300 713.0000 1.0000
41.6400 753.0000 1.0000
41.6500 766.0000 1.0000
41.6600 704.0000 1.0000
41.6700 761.0000 1.0000
41.6800 758.0000 1.0000
41.6900 750.0000 1.0000
41.7000 695.0000 1.0000
41.7100 767.0000 1.0000
41.7200 742.0000 1.0000
41.7300 736.0000 1.0000
41.7400 706.0000 1.0000
41.7500 690.0000 1.0000
41.7600 713.0000 1.0000
41.7700 765.0000 1.0000
41.7800 759.0000 1.0000
41.7900 738.0000 1.0000
41.8000 744.0000 1.0000
41.8100 728.0000 1.0000
41.8200 752.0000 1.0000
41.8300 732.0000 1.0000
41.8400 730.0000 1.0000
41.8500 722.0000 1.0000
41.8600 750.0000 1.0000
41.8700 774.0000 1.0000
41.8800 751.0000 1.0000
41.8900 725.0000 1.0000
41.9000 714.0000 1.0000
41.9100 746.0000 1.0000
41.9200 765.0000 1.0000
41.9300 761.0000 1.0000
41.9400 758.0000 1.0000
41.9500 732.0000 1.0000
41.9600 736.0000 1.0000
41.9700 755.0000 1.0000
41.9800 743.0000 1.0000
41.9900 742.0000 1.0000
42.0000 734.0000 1.0000
42.0100 756.0000 1.0000
42.0200 727.0000 1.0000
42.0300 769.0000 1.0000
42.0400 750.0000 1.0000
42.0500 704.0000 1.0000
42.0600 729.0000 1.0000
42.0700 718.0000 1.0000
42.0800 706.0000 1.0000
42.0900 751.0000 1.0000
42.1000 727.0000 1.0000
42.1100 716.0000 1.0000
42.1200 756.0000 1.0000
42.1300 728.0000 1.0000
42.1400 733.0000 1.0000
42.1500 732.0000 1.0000
42.1600 733.0000 1.0000
42.1700 729.0000 1.0000
42.1800 765.0000 1.0000
42.1900 683.0000 1.0000
42.2000 715.0000 1.0000
42.2100 720.0000 1.0000
42.2200 714.0000 1.0000
42.2300 771.0000 1.0000
42.2400 750.0000 1.0000
42.2500 732.0000 1.0000
42.2600 669.0000 1.0000
42.2700 724.0000 1.0000
42.2800 707.0000 1.0000
42.2900 755.0000 1.0000
42.3000 711.0000 1.0000
42.3100 731.0000 1.0000
42.3200 682.0000 1.0000
42.3300 710.0000 1.0000
42.3400 723.0000 1.0000
42.3500 689.0000 1.0000
42.3600 710.0000 1.0000
42.3700 704.0000 1.0000
42.3800 723.0000 1.0000
42.3900 745.0000 1.0000
42.4000 721.0000 1.0000
42.4100 717.0000 1.0000
42.4200 712.0000 1.0000
42.4300 723.0000 1.0000
42.4400 756.0000 1.0000
42.4500 698.0000 1.0000
42.4600 730.0000 1.0000
42.4700 721.0000 1.0000
42.4800 680.0000 1.0000
42.4900 709.0000 1.0000
42.5000 737.0000 1.0000
42.5100 737.0000 1.0000
42.5200 745.0000 1.0000
42.5300 766.0000 1.0000
42.5400 715.0000 1.0000
42.5500 731.0000 1.0000
42.5600 716.0000 1.0000
42.5700 738.0000 1.0000
42.5800 730.0000 1.0000
42.5900 764.0000 1.0000
42.6000 700.0000 1.0000
42.6100 697.0000 1.0000
42.6200 710.0000 1.0000
42.6300 721.0000 1.0000
42.6400 734.0000 1.0000
42.6500 721.0000 1.0000
42.6600 696.0000 1.0000
42.6700 745.0000 1.0000
42.6800 706.0000 1.0000
42.6900 719.0000 1.0000
42.7000 666.0000 1.0000
42.7100 716.0000 1.0000
42.7200 745.0000 1.0000
42.7300 719.0000 1.0000
42.7400 769.0000 1.0000
42.7500 779.0000 1.0000
42.7600 731.0000 1.0000
42.7700 732.0000 1.0000
42.7800 744.0000 1.0000
42.7900 729.0000 1.0000
42.8000 726.0000 1.0000
42.8100 701.0000 1.0000
42.8200 752.0000 1.0000
42.8300 722.0000 1.0000
42.8400 724.0000 1.0000
42.8500 751.0000 1.0000
42.8600 736.0000 1.0000
42.8700 703.0000 1.0000
42.8800 695.0000 1.0000
42.8900 682.0000 1.0000
42.9000 701.0000 1.0000
42.9100 735.0000 1.0000
42.9200 670.0000 1.0000
42.9300 714.0000 1.0000
42.9400 747.0000 1.0000
42.9500 704.0000 1.0000
42.9600 709.0000 1.0000
42.9700 728.0000 1.0000
42.9800 670.0000 1.0000
42.9900 726.0000 1.0000
43.0000 714.0000 1.0000
43.0100 748.0000 1.0000
43.0200 734.0000 1.0000
43.0300 725.0000 1.0000
43.0400 787.0000 1.0000
43.0500 757.0000 1.0000
43.0600 704.0000 1.0000
43.0700 801.0000 1.0000
43.0800 769.0000 1.0000
43.0900 740.0000 1.0000
43.1000 746.0000 1.0000
43.1100 768.0000 1.0000
43.1200 789.0000 1.0000
43.1300 822.0000 1.0000
43.1400 751.0000 1.0000
43.1500 834.0000 1.0000
43.1600 800.0000 1.0000
43.1700 796.0000 1.0000
43.1800 813.0000 1.0000
43.1900 805.0000 1.0000
43.2000 780.0000 1.0000
43.2100 798.0000 1.0000
43.2200 835.0000 1.0000
43.2300 803.0000 1.0000
43.2400 787.0000 1.0000
43.2500 786.0000 1.0000
43.2600 853.0000 1.0000
43.2700 848.0000 1.0000
43.2800 832.0000 1.0000
43.2900 803.0000 1.0000
43.3000 818.0000 1.0000
43.3100 832.0000 1.0000
43.3200 795.0000 1.0000
43.3300 828.0000 1.0000
43.3400 773.0000 1.0000
43.3500 769.0000 1.0000
43.3600 764.0000 1.0000
43.3700 788.0000 1.0000
43.3800 757.0000 1.0000
43.3900 761.0000 1.0000
43.4000 747.0000 1.0000
43.4100 814.0000 1.0000
43.4200 781.0000 1.0000
43.4300 742.0000 1.0000
43.4400 754.0000 1.0000
43.4500 754.0000 1.0000
43.4600 718.0000 1.0000
43.4700 735.0000 1.0000
43.4800 742.0000 1.0000
43.4900 767.0000 1.0000
43.5000 735.0000 1.0000
43.5100 690.0000 1.0000
43.5200 724.0000 1.0000
43.5300 729.0000 1.0000
43.5400 724.0000 1.0000
43.5500 737.0000 1.0000
43.5600 728.0000 1.0000
43.5700 733.0000 1.0000
43.5800 691.0000 1.0000
43.5900 752.0000 1.0000
43.6000 735.0000 1.0000
43.6100 744.0000 1.0000
43.6200 742.0000 1.0000
43.6300 735.0000 1.0000
43.6400 739.0000 1.0000
43.6500 778.0000 1.0000
43.6600 724.0000 1.0000
43.6700 710.0000 1.0000
43.6800 710.0000 1.0000
43.6900 690.0000 1.0000
43.7000 713.0000 1.0000
43.7100 737.0000 1.0000
43.7200 711.0000 1.0000
43.7300 707.0000 1.0000
43.7400 715.0000 1.0000
43.7500 707.0000 1.0000
43.7600 752.0000 1.0000
43.7700 725.0000 1.0000
43.7800 743.0000 1.0000
43.7900 720.0000 1.0000
43.8000 686.0000 1.0000
43.8100 689.0000 1.0000
43.8200 721.0000 1.0000
43.8300 759.0000 1.0000
43.8400 698.0000 1.0000
43.8500 705.0000 1.0000
43.8600 697.0000 1.0000
43.8700 663.0000 1.0000
43.8800 713.0000 1.0000
43.8900 691.0000 1.0000
43.9000 720.0000 1.0000
43.9100 696.0000 1.0000
43.9200 665.0000 1.0000
43.9300 695.0000 1.0000
43.9400 736.0000 1.0000
43.9500 722.0000 1.0000
43.9600 656.0000 1.0000
43.9700 682.0000 1.0000
43.9800 758.0000 1.0000
43.9900 687.0000 1.0000
44.0000 695.0000 1.0000
44.0100 703.0000 1.0000
44.0200 690.0000 1.0000
44.0300 713.0000 1.0000
44.0400 697.0000 1.0000
44.0500 676.0000 1.0000
44.0600 691.0000 1.0000
44.0700 659.0000 1.0000
44.0800 697.0000 1.0000
44.0900 676.0000 1.0000
44.1000 711.0000 1.0000
44.1100 721.0000 1.0000
44.1200 699.0000 1.0000
44.1300 659.0000 1.0000
44.1400 727.0000 1.0000
44.1500 659.0000 1.0000
44.1600 684.0000 1.0000
44.1700 699.0000 1.0000
44.1800 667.0000 1.0000
44.1900 688.0000 1.0000
44.2000 697.0000 1.0000
44.2100 654.0000 1.0000
44.2200 698.0000 1.0000
44.2300 693.0000 1.0000
44.2400 678.0000 1.0000
44.2500 687.0000 1.0000
44.2600 696.0000 1.0000
44.2700 700.0000 1.0000
44.2800 712.0000 1.0000
44.2900 731.0000 1.0000
44.3000 678.0000 1.0000
44.3100 706.0000 1.0000
44.3200 687.0000 1.0000
44.3300 714.0000 1.0000
44.3400 712.0000 1.0000
44.3500 687.0000 1.0000
44.3600 682.0000 1.0000
44.3700 675.0000 1.0000
44.3800 687.0000 1.0000
44.3900 720.0000 1.0000
44.4000 683.0000 1.0000
44.4100 744.0000 1.0000
44.4200 727.0000 1.0000
44.4300 731.0000 1.0000
44.4400 718.0000 1.0000
44.4500 705.0000 1.0000
44.4600 740.0000 1.0000
44.4700 685.0000 1.0000
44.4800 692.0000 1.0000
44.4900 680.0000 1.0000
44.5000 686.0000 1.0000
44.5100 680.0000 1.0000
44.5200 687.0000 1.0000
44.5300 720.0000 1.0000
44.5400 714.0000 1.0000
44.5500 759.0000 1.0000
44.5600 712.0000 1.0000
44.5700 706.0000 1.0000
44.5800 670.0000 1.0000
44.5900 679.0000 1.0000
44.6000 664.0000 1.0000
44.6100 696.0000 1.0000
44.6200 664.0000 1.0000
44.6300 723.0000 1.0000
44.6400 700.0000 1.0000
44.6500 660.0000 1.0000
44.6600 698.0000 1.0000
44.6700 687.0000 1.0000
44.6800 716.0000 1.0000
44.6900 732.0000 1.0000
44.7000 700.0000 1.0000
44.7100 690.0000 1.0000
44.7200 694.0000 1.0000
44.7300 690.0000 1.0000
44.7400 696.0000 1.0000
44.7500 727.0000 1.0000
44.7600 657.0000 1.0000
44.7700 701.0000 1.0000
44.7800 712.0000 1.0000
44.7900 724.0000 1.0000
44.8000 672.0000 1.0000
44.8100 650.0000 1.0000
44.8200 673.0000 1.0000
44.8300 677.0000 1.0000
44.8400 670.0000 1.0000
44.8500 706.0000 1.0000
44.8600 722.0000 1.0000
44.8700 698.0000 1.0000
44.8800 694.0000 1.0000
44.8900 693.0000 1.0000
44.9000 680.0000 1.0000
44.9100 660.0000 1.0000
44.9200 657.0000 1.0000
44.9300 694.0000 1.0000
44.9400 703.0000 1.0000
44.9500 691.0000 1.0000
44.9600 682.0000 1.0000
44.9700 687.0000 1.0000
44.9800 676.0000 1.0000
44.9900 684.0000 1.0000
45.0000 697.0000 1.0000
45.0100 689.0000 1.0000
45.0200 685.0000 1.0000
45.0300 690.0000 1.0000
45.0400 683.0000 1.0000
45.0500 684.0000 1.0000
45.0600 707.0000 1.0000
45.0700 681.0000 1.0000
45.0800 629.0000 1.0000
45.0900 631.0000 1.0000
45.1000 716.0000 1.0000
45.1100 684.0000 1.0000
45.1200 679.0000 1.0000
45.1300 650.0000 1.0000
45.1400 682.0000 1.0000
45.1500 694.0000 1.0000
45.1600 713.0000 1.0000
45.1700 704.0000 1.0000
45.1800 699.0000 1.0000
45.1900 688.0000 1.0000
45.2000 680.0000 1.0000
45.2100 704.0000 1.0000
45.2200 692.0000 1.0000
45.2300 687.0000 1.0000
45.2400 718.0000 1.0000
45.2500 722.0000 1.0000
45.2600 697.0000 1.0000
45.2700 685.0000 1.0000
45.2800 648.0000 1.0000
45.2900 704.0000 1.0000
45.3000 653.0000 1.0000
45.3100 711.0000 1.0000
45.3200 668.0000 1.0000
45.3300 688.0000 1.0000
45.3400 650.0000 1.0000
45.3500 635.0000 1.0000
45.3600 670.0000 1.0000
45.3700 697.0000 1.0000
45.3800 684.0000 1.0000
45.3900 692.0000 1.0000
45.4000 637.0000 1.0000
45.4100 675.0000 1.0000
45.4200 671.0000 1.0000
45.4300 700.0000 1.0000
45.4400 697.0000 1.0000
45.4500 684.0000 1.0000
45.4600 673.0000 1.0000
45.4700 662.0000 1.0000
45.4800 647.0000 1.0000
45.4900 681.0000 1.0000
45.5000 705.0000 1.0000
45.5100 683.0000 1.0000
45.5200 738.0000 1.0000
45.5300 659.0000 1.0000
45.5400 678.0000 1.0000
45.5500 660.0000 1.0000
45.5600 682.0000 1.0000
45.5700 624.0000 1.0000
45.5800 672.0000 1.0000
45.5900 648.0000 1.0000
45.6000 665.0000 1.0000
45.6100 684.0000 1.0000
45.6200 644.0000 1.0000
45.6300 716.0000 1.0000
45.6400 664.0000 1.0000
45.6500 702.0000 1.0000
45.6600 690.0000 1.0000
45.6700 641.0000 1.0000
45.6800 684.0000 1.0000
45.6900 683.0000 1.0000
45.7000 659.0000 1.0000
45.7100 691.0000 1.0000
45.7200 692.0000 1.0000
45.7300 711.0000 1.0000
45.7400 683.0000 1.0000
45.7500 666.0000 1.0000
45.7600 684.0000 1.0000
45.7700 686.0000 1.0000
45.7800 722.0000 1.0000
45.7900 694.0000 1.0000
45.8000 704.0000 1.0000
45.8100 695.0000 1.0000
45.8200 701.0000 1.0000
45.8300 688.0000 1.0000
45.8400 678.0000 1.0000
45.8500 643.0000 1.0000
45.8600 689.0000 1.0000
45.8700 668.0000 1.0000
45.8800 670.0000 1.0000
45.8900 704.0000 1.0000
45.9000 668.0000 1.0000
45.9100 668.0000 1.0000
45.9200 701.0000 1.0000
45.9300 672.0000 1.0000
45.9400 660.0000 1.0000
45.9500 653.0000 1.0000
45.9600 683.0000 1.0000
45.9700 680.0000 1.0000
45.9800 681.0000 1.0000
45.9900 682.0000 1.0000
46.0000 635.0000 1.0000
46.0100 684.0000 1.0000
46.0200 693.0000 1.0000
46.0300 673.0000 1.0000
46.0400 666.0000 1.0000
46.0500 648.0000 1.0000
46.0600 668.0000 1.0000
46.0700 701.0000 1.0000
46.0800 708.0000 1.0000
46.0900 656.0000 1.0000
46.1000 695.0000 1.0000
46.1100 656.0000 1.0000
46.1200 673.0000 1.0000
46.1300 660.0000 1.0000
46.1400 639.0000 1.0000
46.1500 656.0000 1.0000
46.1600 646.0000 1.0000
46.1700 724.0000 1.0000
46.1800 683.0000 1.0000
46.1900 696.0000 1.0000
46.2000 685.0000 1.0000
46.2100 670.0000 1.0000
46.2200 664.0000 1.0000
46.2300 692.0000 1.0000
46.2400 703.0000 1.0000
46.2500 651.0000 1.0000
46.2600 693.0000 1.0000
46.2700 698.0000 1.0000
46.2800 657.0000 1.0000
46.2900 675.0000 1.0000
46.3000 671.0000 1.0000
46.3100 705.0000 1.0000
46.3200 693.0000 1.0000
46.3300 668.0000 1.0000
46.3400 683.0000 1.0000
46.3500 644.0000 1.0000
46.3600 681.0000 1.0000
46.3700 676.0000 1.0000
46.3800 662.0000 1.0000
46.3900 672.0000 1.0000
46.4000 682.0000 1.0000
46.4100 646.0000 1.0000
46.4200 663.0000 1.0000
46.4300 694.0000 1.0000
46.4400 676.0000 1.0000
46.4500 670.0000 1.0000
46.4600 668.0000 1.0000
46.4700 624.0000 1.0000
46.4800 659.0000 1.0000
46.4900 646.0000 1.0000
46.5000 649.0000 1.0000
46.5100 674.0000 1.0000
46.5200 717.0000 1.0000
46.5300 650.0000 1.0000
46.5400 639.0000 1.0000
46.5500 656.0000 1.0000
46.5600 629.0000 1.0000
46.5700 651.0000 1.0000
46.5800 707.0000 1.0000
46.5900 679.0000 1.0000
46.6000 675.0000 1.0000
46.6100 664.0000 1.0000
46.6200 667.0000 1.0000
46.6300 669.0000 1.0000
46.6400 695.0000 1.0000
46.6500 664.0000 1.0000
46.6600 620.0000 1.0000
46.6700 615.0000 1.0000
46.6800 661.0000 1.0000
46.6900 632.0000 1.0000
46.7000 675.0000 1.0000
46.7100 668.0000 1.0000
46.7200 632.0000 1.0000
46.7300 630.0000 1.0000
46.7400 648.0000 1.0000
46.7500 690.0000 1.0000
46.7600 673.0000 1.0000
46.7700 673.0000 1.0000
46.7800 678.0000 1.0000
46.7900 672.0000 1.0000
46.8000 650.0000 1.0000
46.8100 668.0000 1.0000
46.8200 617.0000 1.0000
46.8300 631.0000 1.0000
46.8400 684.0000 1.0000
46.8500 703.0000 1.0000
46.8600 679.0000 1.0000
46.8700 701.0000 1.0000
46.8800 635.0000 1.0000
46.8900 640.0000 1.0000
46.9000 652.0000 1.0000
46.9100 697.0000 1.0000
46.9200 712.0000 1.0000
46.9300 673.0000 1.0000
46.9400 692.0000 1.0000
46.9500 691.0000 1.0000
46.9600 686.0000 1.0000
46.9700 714.0000 1.0000
46.9800 696.0000 1.0000
46.9900 709.0000 1.0000
47.0000 730.0000 1.0000
47.0100 725.0000 1.0000
47.0200 661.0000 1.0000
47.0300 654.0000 1.0000
47.0400 629.0000 1.0000
47.0500 675.0000 1.0000
47.0600 641.0000 1.0000
47.0700 644.0000 1.0000
47.0800 639.0000 1.0000
47.0900 664.0000 1.0000
47.1000 681.0000 1.0000
47.1100 682.0000 1.0000
47.1200 664.0000 1.0000
47.1300 630.0000 1.0000
47.1400 617.0000 1.0000
47.1500 677.0000 1.0000
47.1600 675.0000 1.0000
47.1700 669.0000 1.0000
47.1800 679.0000 1.0000
47.1900 667.0000 1.0000
47.2000 682.0000 1.0000
47.2100 645.0000 1.0000
47.2200 655.0000 1.0000
47.2300 633.0000 1.0000
47.2400 679.0000 1.0000
47.2500 642.0000 1.0000
47.2600 661.0000 1.0000
47.2700 644.0000 1.0000
47.2800 647.0000 1.0000
47.2900 638.0000 1.0000
47.3000 646.0000 1.0000
47.3100 683.0000 1.0000
47.3200 669.0000 1.0000
47.3300 658.0000 1.0000
47.3400 654.0000 1.0000
47.3500 645.0000 1.0000
47.3600 644.0000 1.0000
47.3700 658.0000 1.0000
47.3800 621.0000 1.0000
47.3900 648.0000 1.0000
47.4000 641.0000 1.0000
47.4100 639.0000 1.0000
47.4200 688.0000 1.0000
47.4300 656.0000 1.0000
47.4400 640.0000 1.0000
47.4500 678.0000 1.0000
47.4600 664.0000 1.0000
47.4700 657.0000 1.0000
47.4800 649.0000 1.0000
47.4900 626.0000 1.0000
47.5000 655.0000 1.0000
47.5100 647.0000 1.0000
47.5200 693.0000 1.0000
47.5300 643.0000 1.0000
47.5400 624.0000 1.0000
47.5500 665.0000 1.0000
47.5600 625.0000 1.0000
47.5700 668.0000 1.0000
47.5800 679.0000 1.0000
47.5900 634.0000 1.0000
47.6000 622.0000 1.0000
47.6100 649.0000 1.0000
47.6200 664.0000 1.0000
47.6300 673.0000 1.0000
47.6400 628.0000 1.0000
47.6500 644.0000 1.0000
47.6600 702.0000 1.0000
47.6700 675.0000 1.0000
47.6800 627.0000 1.0000
47.6900 609.0000 1.0000
47.7000 650.0000 1.0000
47.7100 679.0000 1.0000
47.7200 658.0000 1.0000
47.7300 635.0000 1.0000
47.7400 650.0000 1.0000
47.7500 635.0000 1.0000
47.7600 638.0000 1.0000
47.7700 622.0000 1.0000
47.7800 622.0000 1.0000
47.7900 624.0000 1.0000
47.8000 617.0000 1.0000
47.8100 603.0000 1.0000
47.8200 649.0000 1.0000
47.8300 678.0000 1.0000
47.8400 651.0000 1.0000
47.8500 675.0000 1.0000
47.8600 629.0000 1.0000
47.8700 661.0000 1.0000
47.8800 644.0000 1.0000
47.8900 647.0000 1.0000
47.9000 597.0000 1.0000
47.9100 622.0000 1.0000
47.9200 591.0000 1.0000
47.9300 640.0000 1.0000
47.9400 618.0000 1.0000
47.9500 627.0000 1.0000
47.9600 663.0000 1.0000
47.9700 648.0000 1.0000
47.9800 655.0000 1.0000
47.9900 651.0000 1.0000
48.0000 641.0000 1.0000
48.0100 642.0000 1.0000
48.0200 657.0000 1.0000
48.0300 637.0000 1.0000
48.0400 657.0000 1.0000
48.0500 650.0000 1.0000
48.0600 643.0000 1.0000
48.0700 642.0000 1.0000
48.0800 619.0000 1.0000
48.0900 584.0000 1.0000
48.1000 663.0000 1.0000
48.1100 677.0000 1.0000
48.1200 625.0000 1.0000
48.1300 633.0000 1.0000
48.1400 661.0000 1.0000
48.1500 605.0000 1.0000
48.1600 667.0000 1.0000
48.1700 698.0000 1.0000
48.1800 665.0000 1.0000
48.1900 659.0000 1.0000
48.2000 619.0000 1.0000
48.2100 647.0000 1.0000
48.2200 614.0000 1.0000
48.2300 607.0000 1.0000
48.2400 617.0000 1.0000
48.2500 637.0000 1.0000
48.2600 635.0000 1.0000
48.2700 610.0000 1.0000
48.2800 619.0000 1.0000
48.2900 645.0000 1.0000
48.3000 661.0000 1.0000
48.3100 683.0000 1.0000
48.3200 664.0000 1.0000
48.3300 682.0000 1.0000
48.3400 672.0000 1.0000
48.3500 650.0000 1.0000
48.3600 642.0000 1.0000
48.3700 621.0000 1.0000
48.3800 616.0000 1.0000
48.3900 640.0000 1.0000
48.4000 628.0000 1.0000
48.4100 659.0000 1.0000
48.4200 677.0000 1.0000
48.4300 634.0000 1.0000
48.4400 624.0000 1.0000
48.4500 653.0000 1.0000
48.4600 582.0000 1.0000
48.4700 631.0000 1.0000
48.4800 696.0000 1.0000
48.4900 636.0000 1.0000
48.5000 619.0000 1.0000
48.5100 618.0000 1.0000
48.5200 639.0000 1.0000
48.5300 601.0000 1.0000
48.5400 629.0000 1.0000
48.5500 606.0000 1.0000
48.5600 607.0000 1.0000
48.5700 655.0000 1.0000
48.5800 654.0000 1.0000
48.5900 603.0000 1.0000
48.6000 619.0000 1.0000
48.6100 606.0000 1.0000
48.6200 622.0000 1.0000
48.6300 624.0000 1.0000
48.6400 627.0000 1.0000
48.6500 658.0000 1.0000
48.6600 601.0000 1.0000
48.6700 623.0000 1.0000
48.6800 612.0000 1.0000
48.6900 610.0000 1.0000
48.7000 661.0000 1.0000
48.7100 664.0000 1.0000
48.7200 658.0000 1.0000
48.7300 633.0000 1.0000
48.7400 600.0000 1.0000
48.7500 687.0000 1.0000
48.7600 629.0000 1.0000
48.7700 626.0000 1.0000
48.7800 652.0000 1.0000
48.7900 654.0000 1.0000
48.8000 643.0000 1.0000
48.8100 673.0000 1.0000
48.8200 591.0000 1.0000
48.8300 630.0000 1.0000
48.8400 647.0000 1.0000
48.8500 673.0000 1.0000
48.8600 635.0000 1.0000
48.8700 588.0000 1.0000
48.8800 646.0000 1.0000
48.8900 655.0000 1.0000
48.9000 635.0000 1.0000
48.9100 655.0000 1.0000
48.9200 619.0000 1.0000
48.9300 635.0000 1.0000
48.9400 654.0000 1.0000
48.9500 639.0000 1.0000
48.9600 629.0000 1.0000
48.9700 667.0000 1.0000
48.9800 658.0000 1.0000
48.9900 603.0000 1.0000
49.0000 594.0000 1.0000
49.0100 634.0000 1.0000
49.0200 607.0000 1.0000
49.0300 597.0000 1.0000
49.0400 613.0000 1.0000
49.0500 618.0000 1.0000
49.0600 658.0000 1.0000
49.0700 637.0000 1.0000
49.0800 635.0000 1.0000
49.0900 630.0000 1.0000
49.1000 635.0000 1.0000
49.1100 638.0000 1.0000
49.1200 666.0000 1.0000
49.1300 611.0000 1.0000
49.1400 678.0000 1.0000
49.1500 651.0000 1.0000
49.1600 630.0000 1.0000
49.1700 664.0000 1.0000
49.1800 647.0000 1.0000
49.1900 617.0000 1.0000
49.2000 624.0000 1.0000
49.2100 636.0000 1.0000
49.2200 648.0000 1.0000
49.2300 630.0000 1.0000
49.2400 631.0000 1.0000
49.2500 638.0000 1.0000
49.2600 643.0000 1.0000
49.2700 640.0000 1.0000
49.2800 641.0000 1.0000
49.2900 606.0000 1.0000
49.3000 620.0000 1.0000
49.3100 644.0000 1.0000
49.3200 599.0000 1.0000
49.3300 613.0000 1.0000
49.3400 596.0000 1.0000
49.3500 612.0000 1.0000
49.3600 635.0000 1.0000
49.3700 606.0000 1.0000
49.3800 583.0000 1.0000
49.3900 630.0000 1.0000
49.4000 640.0000 1.0000
49.4100 668.0000 1.0000
49.4200 660.0000 1.0000
49.4300 641.0000 1.0000
49.4400 614.0000 1.0000
49.4500 612.0000 1.0000
49.4600 584.0000 1.0000
49.4700 602.0000 1.0000
49.4800 629.0000 1.0000
49.4900 616.0000 1.0000
49.5000 633.0000 1.0000
49.5100 585.0000 1.0000
49.5200 651.0000 1.0000
49.5300 639.0000 1.0000
49.5400 652.0000 1.0000
49.5500 616.0000 1.0000
49.5600 607.0000 1.0000
49.5700 577.0000 1.0000
49.5800 627.0000 1.0000
49.5900 627.0000 1.0000
49.6000 634.0000 1.0000
49.6100 614.0000 1.0000
49.6200 643.0000 1.0000
49.6300 656.0000 1.0000
49.6400 626.0000 1.0000
49.6500 602.0000 1.0000
49.6600 615.0000 1.0000
49.6700 657.0000 1.0000
49.6800 630.0000 1.0000
49.6900 615.0000 1.0000
49.7000 632.0000 1.0000
49.7100 614.0000 1.0000
49.7200 625.0000 1.0000
49.7300 616.0000 1.0000
49.7400 642.0000 1.0000
49.7500 662.0000 1.0000
49.7600 631.0000 1.0000
49.7700 637.0000 1.0000
49.7800 582.0000 1.0000
49.7900 580.0000 1.0000
49.8000 618.0000 1.0000
49.8100 679.0000 1.0000
49.8200 633.0000 1.0000
49.8300 637.0000 1.0000
49.8400 626.0000 1.0000
49.8500 649.0000 1.0000
49.8600 675.0000 1.0000
49.8700 624.0000 1.0000
49.8800 631.0000 1.0000
49.8900 651.0000 1.0000
49.9000 634.0000 1.0000
49.9100 611.0000 1.0000
49.9200 620.0000 1.0000
49.9300 632.0000 1.0000
49.9400 616.0000 1.0000
49.9500 618.0000 1.0000
49.9600 597.0000 1.0000
49.9700 603.0000 1.0000
49.9800 663.0000 1.0000
49.9900 654.0000 1.0000
50.0000 641.0000 1.0000
50.0100 614.0000 1.0000
50.0200 629.0000 1.0000
50.0300 656.0000 1.0000
50.0400 636.0000 1.0000
50.0500 634.0000 1.0000
50.0600 627.0000 1.0000
50.0700 643.0000 1.0000
50.0800 670.0000 1.0000
50.0900 637.0000 1.0000
50.1000 639.0000 1.0000
50.1100 625.0000 1.0000
50.1200 587.0000 1.0000
50.1300 616.0000 1.0000
50.1400 652.0000 1.0000
50.1500 596.0000 1.0000
50.1600 676.0000 1.0000
50.1700 619.0000 1.0000
50.1800 638.0000 1.0000
50.1900 617.0000 1.0000
50.2000 672.0000 1.0000
50.2100 631.0000 1.0000
50.2200 631.0000 1.0000
50.2300 614.0000 1.0000
50.2400 644.0000 1.0000
50.2500 596.0000 1.0000
50.2600 609.0000 1.0000
50.2700 630.0000 1.0000
50.2800 665.0000 1.0000
50.2900 632.0000 1.0000
50.3000 643.0000 1.0000
50.3100 624.0000 1.0000
50.3200 613.0000 1.0000
50.3300 630.0000 1.0000
50.3400 677.0000 1.0000
50.3500 668.0000 1.0000
50.3600 667.0000 1.0000
50.3700 659.0000 1.0000
50.3800 660.0000 1.0000
50.3900 632.0000 1.0000
50.4000 620.0000 1.0000
50.4100 622.0000 1.0000
50.4200 621.0000 1.0000
50.4300 628.0000 1.0000
50.4400 638.0000 1.0000
50.4500 653.0000 1.0000
50.4600 628.0000 1.0000
50.4700 647.0000 1.0000
50.4800 683.0000 1.0000
50.4900 650.0000 1.0000
50.5000 629.0000 1.0000
50.5100 659.0000 1.0000
50.5200 646.0000 1.0000
50.5300 635.0000 1.0000
50.5400 691.0000 1.0000
50.5500 664.0000 1.0000
50.5600 604.0000 1.0000
50.5700 603.0000 1.0000
50.5800 625.0000 1.0000
50.5900 637.0000 1.0000
50.6000 625.0000 1.0000
50.6100 640.0000 1.0000
50.6200 639.0000 1.0000
50.6300 671.0000 1.0000
50.6400 661.0000 1.0000
50.6500 698.0000 1.0000
50.6600 659.0000 1.0000
50.6700 655.0000 1.0000
50.6800 612.0000 1.0000
50.6900 665.0000 1.0000
50.7000 649.0000 1.0000
50.7100 631.0000 1.0000
50.7200 607.0000 1.0000
50.7300 688.0000 1.0000
50.7400 624.0000 1.0000
50.7500 637.0000 1.0000
50.7600 637.0000 1.0000
50.7700 663.0000 1.0000
50.7800 647.0000 1.0000
50.7900 643.0000 1.0000
50.8000 632.0000 1.0000
50.8100 626.0000 1.0000
50.8200 657.0000 1.0000
50.8300 617.0000 1.0000
50.8400 630.0000 1.0000
50.8500 674.0000 1.0000
50.8600 676.0000 1.0000
50.8700 656.0000 1.0000
50.8800 614.0000 1.0000
50.8900 643.0000 1.0000
50.9000 631.0000 1.0000
50.9100 604.0000 1.0000
50.9200 637.0000 1.0000
50.9300 690.0000 1.0000
50.9400 670.0000 1.0000
50.9500 615.0000 1.0000
50.9600 642.0000 1.0000
50.9700 600.0000 1.0000
50.9800 606.0000 1.0000
50.9900 652.0000 1.0000
51.0000 683.0000 1.0000
51.0100 647.0000 1.0000
51.0200 630.0000 1.0000
51.0300 679.0000 1.0000
51.0400 665.0000 1.0000
51.0500 667.0000 1.0000
51.0600 624.0000 1.0000
51.0700 621.0000 1.0000
51.0800 639.0000 1.0000
51.0900 665.0000 1.0000
51.1000 639.0000 1.0000
51.1100 669.0000 1.0000
51.1200 633.0000 1.0000
51.1300 632.0000 1.0000
51.1400 662.0000 1.0000
51.1500 684.0000 1.0000
51.1600 675.0000 1.0000
51.1700 662.0000 1.0000
51.1800 650.0000 1.0000
51.1900 630.0000 1.0000
51.2000 627.0000 1.0000
51.2100 636.0000 1.0000
51.2200 643.0000 1.0000
51.2300 639.0000 1.0000
51.2400 677.0000 1.0000
51.2500 654.0000 1.0000
51.2600 674.0000 1.0000
51.2700 633.0000 1.0000
51.2800 666.0000 1.0000
51.2900 639.0000 1.0000
51.3000 644.0000 1.0000
51.3100 722.0000 1.0000
51.3200 698.0000 1.0000
51.3300 658.0000 1.0000
51.3400 684.0000 1.0000
51.3500 650.0000 1.0000
51.3600 671.0000 1.0000
51.3700 652.0000 1.0000
51.3800 657.0000 1.0000
51.3900 607.0000 1.0000
51.4000 657.0000 1.0000
51.4100 639.0000 1.0000
51.4200 613.0000 1.0000
51.4300 669.0000 1.0000
51.4400 677.0000 1.0000
51.4500 660.0000 1.0000
51.4600 657.0000 1.0000
51.4700 648.0000 1.0000
51.4800 731.0000 1.0000
51.4900 710.0000 1.0000
51.5000 657.0000 1.0000
51.5100 665.0000 1.0000
51.5200 658.0000 1.0000
51.5300 659.0000 1.0000
51.5400 660.0000 1.0000
51.5500 629.0000 1.0000
51.5600 711.0000 1.0000
51.5700 664.0000 1.0000
51.5800 651.0000 1.0000
51.5900 626.0000 1.0000
51.6000 644.0000 1.0000
51.6100 648.0000 1.0000
51.6200 656.0000 1.0000
51.6300 713.0000 1.0000
51.6400 702.0000 1.0000
51.6500 696.0000 1.0000
51.6600 693.0000 1.0000
51.6700 713.0000 1.0000
51.6800 694.0000 1.0000
51.6900 703.0000 1.0000
51.7000 679.0000 1.0000
51.7100 680.0000 1.0000
51.7200 709.0000 1.0000
51.7300 702.0000 1.0000
51.7400 709.0000 1.0000
51.7500 761.0000 1.0000
51.7600 711.0000 1.0000
51.7700 733.0000 1.0000
51.7800 725.0000 1.0000
51.7900 723.0000 1.0000
51.8000 750.0000 1.0000
51.8100 777.0000 1.0000
51.8200 745.0000 1.0000
51.8300 765.0000 1.0000
51.8400 717.0000 1.0000
51.8500 719.0000 1.0000
51.8600 784.0000 1.0000
51.8700 780.0000 1.0000
51.8800 843.0000 1.0000
51.8900 857.0000 1.0000
51.9000 828.0000 1.0000
51.9100 846.0000 1.0000
51.9200 837.0000 1.0000
51.9300 900.0000 1.0000
51.9400 1009.0000 1.0000
51.9500 968.0000 1.0000
51.9600 955.0000 1.0000
51.9700 994.0000 1.0000
51.9800 1063.0000 1.0000
51.9900 1043.0000 1.0000
52.0000 1115.0000 1.0000
52.0100 1199.0000 1.0000
52.0200 1192.0000 1.0000
52.0300 1271.0000 1.0000
52.0400 1385.0000 1.0000
52.0500 1391.0000 1.0000
52.0600 1418.0000 1.0000
52.0700 1500.0000 1.0000
52.0800 1588.0000 1.0000
52.0900 1727.0000 1.0000
52.1000 1782.0000 1.0000
52.1100 1938.0000 1.0000
52.1200 2047.0000 1.0000
52.1300 2278.0000 1.0000
52.1400 2534.0000 1.0000
52.1500 2674.0000 1.0000
52.1600 2918.0000 1.0000
52.1700 3227.0000 1.0000
52.1800 3478.0000 1.0000
52.1900 3738.0000 1.0000
52.2000 4182.0000 1.0000
52.2100 4487.0000 1.0000
52.2200 4923.0000 1.0000
52.2300 5162.0000 1.0000
52.2400 5281.0000 1.0000
52.2500 5544.0000 1.0000
52.2600 5629.0000 1.0000
52.2700 5537.0000 1.0000
52.2800 5439.0000 1.0000
52.2900 5373.0000 1.0000
52.3000 5174.0000 1.0000
52.3100 4994.0000 1.0000
52.3200 4822.0000 1.0000
52.3300 4686.0000 1.0000
52.3400 4514.0000 1.0000
52.3500 4478.0000 1.0000
52.3600 4297.0000 1.0000
52.3700 4197.0000 1.0000
52.3800 4275.0000 1.0000
52.3900 4027.0000 1.0000
52.4000 3951.0000 1.0000
52.4100 3765.0000 1.0000
52.4200 3484.0000 1.0000
52.4300 3319.0000 1.0000
52.4400 3049.0000 1.0000
52.4500 2903.0000 1.0000
52.4600 2727.0000 1.0000
52.4700 2525.0000 1.0000
52.4800 2326.0000 1.0000
52.4900 2120.0000 1.0000
52.5000 1970.0000 1.0000
52.5100 1777.0000 1.0000
52.5200 1783.0000 1.0000
52.5300 1657.0000 1.0000
52.5400 1545.0000 1.0000
52.5500 1497.0000 1.0000
52.5600 1418.0000 1.0000
52.5700 1376.0000 1.0000
52.5800 1251.0000 1.0000
52.5900 1201.0000 1.0000
52.6000 1176.0000 1.0000
52.6100 1108.0000 1.0000
52.6200 1122.0000 1.0000
52.6300 1068.0000 1.0000
52.6400 1003.0000 1.0000
52.6500 1015.0000 1.0000
52.6600 1029.0000 1.0000
52.6700 963.0000 1.0000
52.6800 939.0000 1.0000
52.6900 912.0000 1.0000
52.7000 868.0000 1.0000
52.7100 880.0000 1.0000
52.7200 831.0000 1.0000
52.7300 829.0000 1.0000
52.7400 838.0000 1.0000
52.7500 816.0000 1.0000
52.7600 831.0000 1.0000
52.7700 804.0000 1.0000
52.7800 779.0000 1.0000
52.7900 809.0000 1.0000
52.8000 769.0000 1.0000
52.8100 739.0000 1.0000
52.8200 716.0000 1.0000
52.8300 729.0000 1.0000
52.8400 762.0000 1.0000
52.8500 721.0000 1.0000
52.8600 723.0000 1.0000
52.8700 706.0000 1.0000
52.8800 704.0000 1.0000
52.8900 714.0000 1.0000
52.9000 725.0000 1.0000
52.9100 700.0000 1.0000
52.9200 720.0000 1.0000
52.9300 720.0000 1.0000
52.9400 705.0000 1.0000
52.9500 635.0000 1.0000
52.9600 716.0000 1.0000
52.9700 716.0000 1.0000
52.9800 680.0000 1.0000
52.9900 714.0000 1.0000
53.0000 691.0000 1.0000
53.0100 735.0000 1.0000
53.0200 726.0000 1.0000
53.0300 711.0000 1.0000
53.0400 650.0000 1.0000
53.0500 694.0000 1.0000
53.0600 672.0000 1.0000
53.0700 653.0000 1.0000
53.0800 690.0000 1.0000
53.0900 623.0000 1.0000
53.1000 698.0000 1.0000
53.1100 671.0000 1.0000
53.1200 668.0000 1.0000
53.1300 691.0000 1.0000
53.1400 714.0000 1.0000
53.1500 698.0000 1.0000
53.1600 712.0000 1.0000
53.1700 642.0000 1.0000
53.1800 717.0000 1.0000
53.1900 696.0000 1.0000
53.2000 676.0000 1.0000
53.2100 657.0000 1.0000
53.2200 649.0000 1.0000
53.2300 615.0000 1.0000
53.2400 663.0000 1.0000
53.2500 668.0000 1.0000
53.2600 711.0000 1.0000
53.2700 650.0000 1.0000
53.2800 662.0000 1.0000
53.2900 623.0000 1.0000
53.3000 608.0000 1.0000
53.3100 654.0000 1.0000
53.3200 641.0000 1.0000
53.3300 642.0000 1.0000
53.3400 613.0000 1.0000
53.3500 644.0000 1.0000
53.3600 654.0000 1.0000
53.3700 635.0000 1.0000
53.3800 626.0000 1.0000
53.3900 612.0000 1.0000
53.4000 603.0000 1.0000
53.4100 651.0000 1.0000
53.4200 595.0000 1.0000
53.4300 626.0000 1.0000
53.4400 653.0000 1.0000
53.4500 653.0000 1.0000
53.4600 676.0000 1.0000
53.4700 636.0000 1.0000
53.4800 640.0000 1.0000
53.4900 640.0000 1.0000
53.5000 641.0000 1.0000
53.5100 635.0000 1.0000
53.5200 659.0000 1.0000
53.5300 620.0000 1.0000
53.5400 656.0000 1.0000
53.5500 614.0000 1.0000
53.5600 600.0000 1.0000
53.5700 641.0000 1.0000
53.5800 672.0000 1.0000
53.5900 633.0000 1.0000
53.6000 609.0000 1.0000
53.6100 638.0000 1.0000
53.6200 587.0000 1.0000
53.6300 632.0000 1.0000
53.6400 617.0000 1.0000
53.6500 649.0000 1.0000
53.6600 650.0000 1.0000
53.6700 643.0000 1.0000
53.6800 660.0000 1.0000
53.6900 665.0000 1.0000
53.7000 664.0000 1.0000
53.7100 624.0000 1.0000
53.7200 601.0000 1.0000
53.7300 635.0000 1.0000
53.7400 641.0000 1.0000
53.7500 644.0000 1.0000
53.7600 607.0000 1.0000
53.7700 637.0000 1.0000
53.7800 634.0000 1.0000
53.7900 612.0000 1.0000
53.8000 677.0000 1.0000
53.8100 605.0000 1.0000
53.8200 626.0000 1.0000
53.8300 631.0000 1.0000
53.8400 615.0000 1.0000
53.8500 650.0000 1.0000
53.8600 625.0000 1.0000
53.8700 602.0000 1.0000
53.8800 626.0000 1.0000
53.8900 624.0000 1.0000
53.9000 626.0000 1.0000
53.9100 620.0000 1.0000
53.9200 652.0000 1.0000
53.9300 650.0000 1.0000
53.9400 666.0000 1.0000
53.9500 621.0000 1.0000
53.9600 589.0000 1.0000
53.9700 648.0000 1.0000
53.9800 665.0000 1.0000
53.9900 639.0000 1.0000
54.0000 671.0000 1.0000
54.0100 656.0000 1.0000
54.0200 634.0000 1.0000
54.0300 646.0000 1.0000
54.0400 646.0000 1.0000
54.0500 624.0000 1.0000
54.0600 627.0000 1.0000
54.0700 604.0000 1.0000
54.0800 633.0000 1.0000
54.0900 653.0000 1.0000
54.1000 645.0000 1.0000
54.1100 643.0000 1.0000
54.1200 669.0000 1.0000
54.1300 658.0000 1.0000
54.1400 653.0000 1.0000
54.1500 641.0000 1.0000
54.1600 691.0000 1.0000
54.1700 644.0000 1.0000
54.1800 652.0000 1.0000
54.1900 668.0000 1.0000
54.2000 620.0000 1.0000
54.2100 638.0000 1.0000
54.2200 633.0000 1.0000
54.2300 622.0000 1.0000
54.2400 623.0000 1.0000
54.2500 619.0000 1.0000
54.2600 633.0000 1.0000
54.2700 649.0000 1.0000
54.2800 610.0000 1.0000
54.2900 627.0000 1.0000
54.3000 627.0000 1.0000
54.3100 612.0000 1.0000
54.3200 579.0000 1.0000
54.3300 649.0000 1.0000
54.3400 639.0000 1.0000
54.3500 645.0000 1.0000
54.3600 671.0000 1.0000
54.3700 658.0000 1.0000
54.3800 663.0000 1.0000
54.3900 631.0000 1.0000
54.4000 594.0000 1.0000
54.4100 573.0000 1.0000
54.4200 654.0000 1.0000
54.4300 603.0000 1.0000
54.4400 629.0000 1.0000
54.4500 639.0000 1.0000
54.4600 637.0000 1.0000
54.4700 651.0000 1.0000
54.4800 628.0000 1.0000
54.4900 595.0000 1.0000
54.5000 645.0000 1.0000
54.5100 651.0000 1.0000
54.5200 610.0000 1.0000
54.5300 628.0000 1.0000
54.5400 608.0000 1.0000
54.5500 627.0000 1.0000
54.5600 674.0000 1.0000
54.5700 657.0000 1.0000
54.5800 642.0000 1.0000
54.5900 644.0000 1.0000
54.6000 659.0000 1.0000
54.6100 617.0000 1.0000
54.6200 616.0000 1.0000
54.6300 648.0000 1.0000
54.6400 661.0000 1.0000
54.6500 648.0000 1.0000
54.6600 667.0000 1.0000
54.6700 623.0000 1.0000
54.6800 653.0000 1.0000
54.6900 622.0000 1.0000
54.7000 646.0000 1.0000
54.7100 659.0000 1.0000
54.7200 643.0000 1.0000
54.7300 660.0000 1.0000
54.7400 657.0000 1.0000
54.7500 645.0000 1.0000
54.7600 650.0000 1.0000
54.7700 660.0000 1.0000
54.7800 632.0000 1.0000
54.7900 662.0000 1.0000
54.8000 679.0000 1.0000
54.8100 643.0000 1.0000
54.8200 682.0000 1.0000
54.8300 663.0000 1.0000
54.8400 681.0000 1.0000
54.8500 728.0000 1.0000
54.8600 648.0000 1.0000
54.8700 691.0000 1.0000
54.8800 658.0000 1.0000
54.8900 629.0000 1.0000
54.9000 674.0000 1.0000
54.9100 680.0000 1.0000
54.9200 672.0000 1.0000
54.9300 666.0000 1.0000
54.9400 637.0000 1.0000
54.9500 686.0000 1.0000
54.9600 660.0000 1.0000
54.9700 709.0000 1.0000
54.9800 723.0000 1.0000
54.9900 716.0000 1.0000
55.0000 687.0000 1.0000
55.0100 673.0000 1.0000
55.0200 718.0000 1.0000
55.0300 710.0000 1.0000
55.0400 714.0000 1.0000
55.0500 709.0000 1.0000
55.0600 711.0000 1.0000
55.0700 679.0000 1.0000
55.0800 735.0000 1.0000
55.0900 721.0000 1.0000
55.1000 749.0000 1.0000
55.1100 796.0000 1.0000
55.1200 781.0000 1.0000
55.1300 822.0000 1.0000
55.1400 818.0000 1.0000
55.1500 878.0000 1.0000
55.1600 820.0000 1.0000
55.1700 824.0000 1.0000
55.1800 863.0000 1.0000
55.1900 892.0000 1.0000
55.2000 926.0000 1.0000
55.2100 951.0000 1.0000
55.2200 961.0000 1.0000
55.2300 1005.0000 1.0000
55.2400 1026.0000 1.0000
55.2500 1067.0000 1.0000
55.2600 1052.0000 1.0000
55.2700 1040.0000 1.0000
55.2800 1016.0000 1.0000
55.2900 1015.0000 1.0000
55.3000 1025.0000 1.0000
55.3100 1012.0000 1.0000
55.3200 1039.0000 1.0000
55.3300 989.0000 1.0000
55.3400 1009.0000 1.0000
55.3500 969.0000 1.0000
55.3600 1034.0000 1.0000
55.3700 979.0000 1.0000
55.3800 1008.0000 1.0000
55.3900 924.0000 1.0000
55.4000 973.0000 1.0000
55.4100 985.0000 1.0000
55.4200 967.0000 1.0000
55.4300 972.0000 1.0000
55.4400 891.0000 1.0000
55.4500 869.0000 1.0000
55.4600 863.0000 1.0000
55.4700 847.0000 1.0000
55.4800 880.0000 1.0000
55.4900 846.0000 1.0000
55.5000 841.0000 1.0000
55.5100 843.0000 1.0000
55.5200 779.0000 1.0000
55.5300 793.0000 1.0000
55.5400 727.0000 1.0000
55.5500 741.0000 1.0000
55.5600 751.0000 1.0000
55.5700 771.0000 1.0000
55.5800 742.0000 1.0000
55.5900 757.0000 1.0000
55.6000 700.0000 1.0000
55.6100 678.0000 1.0000
55.6200 691.0000 1.0000
55.6300 714.0000 1.0000
55.6400 705.0000 1.0000
55.6500 677.0000 1.0000
55.6600 686.0000 1.0000
55.6700 689.0000 1.0000
55.6800 688.0000 1.0000
55.6900 667.0000 1.0000
55.7000 699.0000 1.0000
55.7100 671.0000 1.0000
55.7200 687.0000 1.0000
55.7300 608.0000 1.0000
55.7400 622.0000 1.0000
55.7500 673.0000 1.0000
55.7600 668.0000 1.0000
55.7700 644.0000 1.0000
55.7800 685.0000 1.0000
55.7900 692.0000 1.0000
55.8000 688.0000 1.0000
55.8100 629.0000 1.0000
55.8200 673.0000 1.0000
55.8300 668.0000 1.0000
55.8400 640.0000 1.0000
55.8500 610.0000 1.0000
55.8600 660.0000 1.0000
55.8700 625.0000 1.0000
55.8800 667.0000 1.0000
55.8900 653.0000 1.0000
55.9000 641.0000 1.0000
55.9100 612.0000 1.0000
55.9200 669.0000 1.0000
55.9300 634.0000 1.0000
55.9400 607.0000 1.0000
55.9500 635.0000 1.0000
55.9600 674.0000 1.0000
55.9700 605.0000 1.0000
55.9800 617.0000 1.0000
55.9900 614.0000 1.0000
56.0000 635.0000 1.0000
56.0100 633.0000 1.0000
56.0200 642.0000 1.0000
56.0300 572.0000 1.0000
56.0400 601.0000 1.0000
56.0500 613.0000 1.0000
56.0600 639.0000 1.0000
56.0700 649.0000 1.0000
56.0800 609.0000 1.0000
56.0900 619.0000 1.0000
56.1000 580.0000 1.0000
56.1100 622.0000 1.0000
56.1200 627.0000 1.0000
56.1300 582.0000 1.0000
56.1400 642.0000 1.0000
56.1500 586.0000 1.0000
56.1600 571.0000 1.0000
56.1700 557.0000 1.0000
56.1800 617.0000 1.0000
56.1900 628.0000 1.0000
56.2000 615.0000 1.0000
56.2100 619.0000 1.0000
56.2200 643.0000 1.0000
56.2300 636.0000 1.0000
56.2400 638.0000 1.0000
56.2500 655.0000 1.0000
56.2600 597.0000 1.0000
56.2700 612.0000 1.0000
56.2800 602.0000 1.0000
56.2900 640.0000 1.0000
56.3000 603.0000 1.0000
56.3100 578.0000 1.0000
56.3200 614.0000 1.0000
56.3300 610.0000 1.0000
56.3400 610.0000 1.0000
56.3500 625.0000 1.0000
56.3600 622.0000 1.0000
56.3700 644.0000 1.0000
56.3800 611.0000 1.0000
56.3900 600.0000 1.0000
56.4000 623.0000 1.0000
56.4100 620.0000 1.0000
56.4200 598.0000 1.0000
56.4300 636.0000 1.0000
56.4400 629.0000 1.0000
56.4500 592.0000 1.0000
56.4600 631.0000 1.0000
56.4700 592.0000 1.0000
56.4800 610.0000 1.0000
56.4900 625.0000 1.0000
56.5000 568.0000 1.0000
56.5100 554.0000 1.0000
56.5200 599.0000 1.0000
56.5300 625.0000 1.0000
56.5400 610.0000 1.0000
56.5500 613.0000 1.0000
56.5600 583.0000 1.0000
56.5700 607.0000 1.0000
56.5800 605.0000 1.0000
56.5900 621.0000 1.0000
56.6000 631.0000 1.0000
56.6100 615.0000 1.0000
56.6200 641.0000 1.0000
56.6300 584.0000 1.0000
56.6400 610.0000 1.0000
56.6500 630.0000 1.0000
56.6600 653.0000 1.0000
56.6700 607.0000 1.0000
56.6800 595.0000 1.0000
56.6900 609.0000 1.0000
56.7000 622.0000 1.0000
56.7100 636.0000 1.0000
56.7200 641.0000 1.0000
56.7300 598.0000 1.0000
56.7400 596.0000 1.0000
56.7500 621.0000 1.0000
56.7600 620.0000 1.0000
56.7700 597.0000 1.0000
56.7800 583.0000 1.0000
56.7900 576.0000 1.0000
56.8000 604.0000 1.0000
56.8100 602.0000 1.0000
56.8200 581.0000 1.0000
56.8300 608.0000 1.0000
56.8400 622.0000 1.0000
56.8500 574.0000 1.0000
56.8600 598.0000 1.0000
56.8700 602.0000 1.0000
56.8800 613.0000 1.0000
56.8900 585.0000 1.0000
56.9000 601.0000 1.0000
56.9100 648.0000 1.0000
56.9200 660.0000 1.0000
56.9300 630.0000 1.0000
56.9400 654.0000 1.0000
56.9500 625.0000 1.0000
56.9600 589.0000 1.0000
56.9700 626.0000 1.0000
56.9800 630.0000 1.0000
56.9900 630.0000 1.0000
57.0000 592.0000 1.0000
57.0100 616.0000 1.0000
57.0200 620.0000 1.0000
57.0300 627.0000 1.0000
57.0400 620.0000 1.0000
57.0500 609.0000 1.0000
57.0600 618.0000 1.0000
57.0700 631.0000 1.0000
57.0800 577.0000 1.0000
57.0900 606.0000 1.0000
57.1000 618.0000 1.0000
57.1100 610.0000 1.0000
57.1200 577.0000 1.0000
57.1300 620.0000 1.0000
57.1400 595.0000 1.0000
57.1500 584.0000 1.0000
57.1600 638.0000 1.0000
57.1700 605.0000 1.0000
57.1800 646.0000 1.0000
57.1900 617.0000 1.0000
57.2000 654.0000 1.0000
57.2100 575.0000 1.0000
57.2200 641.0000 1.0000
57.2300 620.0000 1.0000
57.2400 615.0000 1.0000
57.2500 585.0000 1.0000
57.2600 618.0000 1.0000
57.2700 630.0000 1.0000
57.2800 602.0000 1.0000
57.2900 601.0000 1.0000
57.3000 631.0000 1.0000
57.3100 573.0000 1.0000
57.3200 630.0000 1.0000
57.3300 621.0000 1.0000
57.3400 611.0000 1.0000
57.3500 595.0000 1.0000
57.3600 591.0000 1.0000
57.3700 599.0000 1.0000
57.3800 587.0000 1.0000
57.3900 600.0000 1.0000
57.4000 609.0000 1.0000
57.4100 633.0000 1.0000
57.4200 609.0000 1.0000
57.4300 653.0000 1.0000
57.4400 605.0000 1.0000
57.4500 594.0000 1.0000
57.4600 614.0000 1.0000
57.4700 615.0000 1.0000
57.4800 620.0000 1.0000
57.4900 587.0000 1.0000
57.5000 657.0000 1.0000
57.5100 575.0000 1.0000
57.5200 585.0000 1.0000
57.5300 607.0000 1.0000
57.5400 563.0000 1.0000
57.5500 605.0000 1.0000
57.5600 640.0000 1.0000
57.5700 608.0000 1.0000
57.5800 597.0000 1.0000
57.5900 613.0000 1.0000
57.6000 601.0000 1.0000
57.6100 648.0000 1.0000
57.6200 639.0000 1.0000
57.6300 606.0000 1.0000
57.6400 601.0000 1.0000
57.6500 615.0000 1.0000
57.6600 631.0000 1.0000
57.6700 577.0000 1.0000
57.6800 600.0000 1.0000
57.6900 593.0000 1.0000
57.7000 572.0000 1.0000
57.7100 567.0000 1.0000
57.7200 639.0000 1.0000
57.7300 633.0000 1.0000
57.7400 559.0000 1.0000
57.7500 554.0000 1.0000
57.7600 598.0000 1.0000
57.7700 596.0000 1.0000
57.7800 634.0000 1.0000
57.7900 605.0000 1.0000
57.8000 612.0000 1.0000
57.8100 603.0000 1.0000
57.8200 590.0000 1.0000
57.8300 623.0000 1.0000
57.8400 588.0000 1.0000
57.8500 573.0000 1.0000
57.8600 624.0000 1.0000
57.8700 617.0000 1.0000
57.8800 665.0000 1.0000
57.8900 592.0000 1.0000
57.9000 612.0000 1.0000
57.9100 670.0000 1.0000
57.9200 630.0000 1.0000
57.9300 632.0000 1.0000
57.9400 625.0000 1.0000
57.9500 622.0000 1.0000
57.9600 578.0000 1.0000
57.9700 619.0000 1.0000
57.9800 580.0000 1.0000
57.9900 626.0000 1.0000
58.0000 644.0000 1.0000
58.0100 555.0000 1.0000
58.0200 594.0000 1.0000
58.0300 588.0000 1.0000
58.0400 605.0000 1.0000
58.0500 595.0000 1.0000
58.0600 626.0000 1.0000
58.0700 553.0000 1.0000
58.0800 564.0000 1.0000
58.0900 619.0000 1.0000
58.1000 641.0000 1.0000
58.1100 610.0000 1.0000
58.1200 595.0000 1.0000
58.1300 605.0000 1.0000
58.1400 550.0000 1.0000
58.1500 614.0000 1.0000
58.1600 635.0000 1.0000
58.1700 568.0000 1.0000
58.1800 645.0000 1.0000
58.1900 612.0000 1.0000
58.2000 607.0000 1.0000
58.2100 645.0000 1.0000
58.2200 589.0000 1.0000
58.2300 589.0000 1.0000
58.2400 610.0000 1.0000
58.2500 568.0000 1.0000
58.2600 638.0000 1.0000
58.2700 625.0000 1.0000
58.2800 626.0000 1.0000
58.2900 633.0000 1.0000
58.3000 629.0000 1.0000
58.3100 602.0000 1.0000
58.3200 628.0000 1.0000
58.3300 625.0000 1.0000
58.3400 632.0000 1.0000
58.3500 627.0000 1.0000
58.3600 631.0000 1.0000
58.3700 609.0000 1.0000
58.3800 609.0000 1.0000
58.3900 612.0000 1.0000
58.4000 615.0000 1.0000
58.4100 595.0000 1.0000
58.4200 639.0000 1.0000
58.4300 631.0000 1.0000
58.4400 591.0000 1.0000
58.4500 642.0000 1.0000
58.4600 636.0000 1.0000
58.4700 620.0000 1.0000
58.4800 611.0000 1.0000
58.4900 610.0000 1.0000
58.5000 603.0000 1.0000
58.5100 621.0000 1.0000
58.5200 650.0000 1.0000
58.5300 586.0000 1.0000
58.5400 562.0000 1.0000
58.5500 592.0000 1.0000
58.5600 626.0000 1.0000
58.5700 609.0000 1.0000
58.5800 597.0000 1.0000
58.5900 631.0000 1.0000
58.6000 596.0000 1.0000
58.6100 595.0000 1.0000
58.6200 616.0000 1.0000
58.6300 595.0000 1.0000
58.6400 597.0000 1.0000
58.6500 624.0000 1.0000
58.6600 609.0000 1.0000
58.6700 645.0000 1.0000
58.6800 610.0000 1.0000
58.6900 619.0000 1.0000
58.7000 603.0000 1.0000
58.7100 578.0000 1.0000
58.7200 594.0000 1.0000
58.7300 578.0000 1.0000
58.7400 598.0000 1.0000
58.7500 607.0000 1.0000
58.7600 609.0000 1.0000
58.7700 627.0000 1.0000
58.7800 582.0000 1.0000
58.7900 600.0000 1.0000
58.8000 625.0000 1.0000
58.8100 584.0000 1.0000
58.8200 580.0000 1.0000
58.8300 572.0000 1.0000
58.8400 602.0000 1.0000
58.8500 637.0000 1.0000
58.8600 628.0000 1.0000
58.8700 625.0000 1.0000
58.8800 673.0000 1.0000
58.8900 627.0000 1.0000
58.9000 634.0000 1.0000
58.9100 623.0000 1.0000
58.9200 605.0000 1.0000
58.9300 614.0000 1.0000
58.9400 557.0000 1.0000
58.9500 584.0000 1.0000
58.9600 592.0000 1.0000
58.9700 613.0000 1.0000
58.9800 574.0000 1.0000
58.9900 576.0000 1.0000
59.0000 583.0000 1.0000
59.0100 592.0000 1.0000
59.0200 561.0000 1.0000
59.0300 584.0000 1.0000
59.0400 625.0000 1.0000
59.0500 619.0000 1.0000
59.0600 597.0000 1.0000
59.0700 595.0000 1.0000
59.0800 615.0000 1.0000
59.0900 602.0000 1.0000
59.1000 639.0000 1.0000
59.1100 617.0000 1.0000
59.1200 601.0000 1.0000
59.1300 571.0000 1.0000
59.1400 607.0000 1.0000
59.1500 631.0000 1.0000
59.1600 629.0000 1.0000
59.1700 628.0000 1.0000
59.1800 632.0000 1.0000
59.1900 577.0000 1.0000
59.2000 612.0000 1.0000
59.2100 610.0000 1.0000
59.2200 614.0000 1.0000
59.2300 621.0000 1.0000
59.2400 597.0000 1.0000
59.2500 624.0000 1.0000
59.2600 635.0000 1.0000
59.2700 641.0000 1.0000
59.2800 626.0000 1.0000
59.2900 599.0000 1.0000
59.3000 609.0000 1.0000
59.3100 629.0000 1.0000
59.3200 625.0000 1.0000
59.3300 618.0000 1.0000
59.3400 615.0000 1.0000
59.3500 643.0000 1.0000
59.3600 628.0000 1.0000
59.3700 640.0000 1.0000
59.3800 626.0000 1.0000
59.3900 614.0000 1.0000
59.4000 625.0000 1.0000
59.4100 628.0000 1.0000
59.4200 601.0000 1.0000
59.4300 620.0000 1.0000
59.4400 579.0000 1.0000
59.4500 614.0000 1.0000
59.4600 664.0000 1.0000
59.4700 647.0000 1.0000
59.4800 617.0000 1.0000
59.4900 625.0000 1.0000
59.5000 587.0000 1.0000
59.5100 632.0000 1.0000
59.5200 583.0000 1.0000
59.5300 572.0000 1.0000
59.5400 622.0000 1.0000
59.5500 607.0000 1.0000
59.5600 595.0000 1.0000
59.5700 583.0000 1.0000
59.5800 620.0000 1.0000
59.5900 607.0000 1.0000
59.6000 606.0000 1.0000
59.6100 600.0000 1.0000
59.6200 569.0000 1.0000
59.6300 625.0000 1.0000
59.6400 615.0000 1.0000
59.6500 601.0000 1.0000
59.6600 603.0000 1.0000
59.6700 593.0000 1.0000
59.6800 598.0000 1.0000
59.6900 601.0000 1.0000
59.7000 579.0000 1.0000
59.7100 616.0000 1.0000
59.7200 613.0000 1.0000
59.7300 578.0000 1.0000
59.7400 607.0000 1.0000
59.7500 612.0000 1.0000
59.7600 614.0000 1.0000
59.7700 584.0000 1.0000
59.7800 576.0000 1.0000
59.7900 631.0000 1.0000
59.8000 583.0000 1.0000
59.8100 627.0000 1.0000
59.8200 581.0000 1.0000
59.8300 616.0000 1.0000
59.8400 585.0000 1.0000
59.8500 599.0000 1.0000
59.8600 603.0000 1.0000
59.8700 593.0000 1.0000
59.8800 579.0000 1.0000
59.8900 602.0000 1.0000
59.9000 560.0000 1.0000
59.9100 596.0000 1.0000
59.9200 608.0000 1.0000
59.9300 619.0000 1.0000
59.9400 626.0000 1.0000
59.9500 582.0000 1.0000
59.9600 594.0000 1.0000
59.9700 636.0000 1.0000
59.9800 589.0000 1.0000
59.9900 633.0000 1.0000
60.0000 608.0000 1.0000
60.0100 634.0000 1.0000
60.0200 601.0000 1.0000
60.0300 567.0000 1.0000
60.0400 597.0000 1.0000
60.0500 608.0000 1.0000
60.0600 600.0000 1.0000
60.0700 592.0000 1.0000
60.0800 581.0000 1.0000
60.0900 608.0000 1.0000
60.1000 620.0000 1.0000
60.1100 596.0000 1.0000
60.1200 567.0000 1.0000
60.1300 603.0000 1.0000
60.1400 602.0000 1.0000
60.1500 597.0000 1.0000
60.1600 622.0000 1.0000
60.1700 597.0000 1.0000
60.1800 657.0000 1.0000
60.1900 614.0000 1.0000
60.2000 603.0000 1.0000
60.2100 600.0000 1.0000
60.2200 591.0000 1.0000
60.2300 602.0000 1.0000
60.2400 613.0000 1.0000
60.2500 597.0000 1.0000
60.2600 592.0000 1.0000
60.2700 614.0000 1.0000
60.2800 587.0000 1.0000
60.2900 591.0000 1.0000
60.3000 591.0000 1.0000
60.3100 614.0000 1.0000
60.3200 622.0000 1.0000
60.3300 596.0000 1.0000
60.3400 598.0000 1.0000
60.3500 564.0000 1.0000
60.3600 605.0000 1.0000
60.3700 599.0000 1.0000
60.3800 601.0000 1.0000
60.3900 591.0000 1.0000
60.4000 609.0000 1.0000
60.4100 636.0000 1.0000
60.4200 605.0000 1.0000
60.4300 600.0000 1.0000
60.4400 604.0000 1.0000
60.4500 590.0000 1.0000
60.4600 569.0000 1.0000
60.4700 607.0000 1.0000
60.4800 620.0000 1.0000
60.4900 600.0000 1.0000
60.5000 570.0000 1.0000
60.5100 564.0000 1.0000
60.5200 636.0000 1.0000
60.5300 599.0000 1.0000
60.5400 580.0000 1.0000
60.5500 585.0000 1.0000
60.5600 625.0000 1.0000
60.5700 580.0000 1.0000
60.5800 599.0000 1.0000
60.5900 603.0000 1.0000
60.6000 588.0000 1.0000
60.6100 610.0000 1.0000
60.6200 621.0000 1.0000
60.6300 601.0000 1.0000
60.6400 616.0000 1.0000
60.6500 612.0000 1.0000
60.6600 598.0000 1.0000
60.6700 625.0000 1.0000
60.6800 614.0000 1.0000
60.6900 598.0000 1.0000
60.7000 597.0000 1.0000
60.7100 588.0000 1.0000
60.7200 615.0000 1.0000
60.7300 576.0000 1.0000
60.7400 601.0000 1.0000
60.7500 628.0000 1.0000
60.7600 628.0000 1.0000
60.7700 604.0000 1.0000
60.7800 596.0000 1.0000
60.7900 584.0000 1.0000
60.8000 604.0000 1.0000
60.8100 587.0000 1.0000
60.8200 609.0000 1.0000
60.8300 594.0000 1.0000
60.8400 605.0000 1.0000
60.8500 595.0000 1.0000
60.8600 612.0000 1.0000
60.8700 574.0000 1.0000
60.8800 592.0000 1.0000
60.8900 614.0000 1.0000
60.9000 628.0000 1.0000
60.9100 623.0000 1.0000
60.9200 596.0000 1.0000
60.9300 570.0000 1.0000
60.9400 580.0000 1.0000
60.9500 592.0000 1.0000
60.9600 627.0000 1.0000
60.9700 614.0000 1.0000
60.9800 596.0000 1.0000
60.9900 623.0000 1.0000
61.0000 622.0000 1.0000
61.0100 631.0000 1.0000
61.0200 621.0000 1.0000
61.0300 611.0000 1.0000
61.0400 653.0000 1.0000
61.0500 607.0000 1.0000
61.0600 620.0000 1.0000
61.0700 632.0000 1.0000
61.0800 612.0000 1.0000
61.0900 645.0000 1.0000
61.1000 604.0000 1.0000
61.1100 600.0000 1.0000
61.1200 622.0000 1.0000
61.1300 590.0000 1.0000
61.1400 610.0000 1.0000
61.1500 595.0000 1.0000
61.1600 620.0000 1.0000
61.1700 584.0000 1.0000
61.1800 631.0000 1.0000
61.1900 645.0000 1.0000
61.2000 635.0000 1.0000
61.2100 652.0000 1.0000
61.2200 615.0000 1.0000
61.2300 656.0000 1.0000
61.2400 630.0000 1.0000
61.2500 617.0000 1.0000
61.2600 635.0000 1.0000
61.2700 627.0000 1.0000
61.2800 571.0000 1.0000
61.2900 628.0000 1.0000
61.3000 641.0000 1.0000
61.3100 611.0000 1.0000
61.3200 640.0000 1.0000
61.3300 609.0000 1.0000
61.3400 614.0000 1.0000
61.3500 615.0000 1.0000
61.3600 545.0000 1.0000
61.3700 627.0000 1.0000
61.3800 604.0000 1.0000
61.3900 627.0000 1.0000
61.4000 611.0000 1.0000
61.4100 621.0000 1.0000
61.4200 617.0000 1.0000
61.4300 624.0000 1.0000
61.4400 637.0000 1.0000
61.4500 611.0000 1.0000
61.4600 626.0000 1.0000
61.4700 659.0000 1.0000
61.4800 623.0000 1.0000
61.4900 595.0000 1.0000
61.5000 598.0000 1.0000
61.5100 620.0000 1.0000
61.5200 644.0000 1.0000
61.5300 632.0000 1.0000
61.5400 609.0000 1.0000
61.5500 633.0000 1.0000
61.5600 600.0000 1.0000
61.5700 647.0000 1.0000
61.5800 645.0000 1.0000
61.5900 612.0000 1.0000
61.6000 591.0000 1.0000
61.6100 643.0000 1.0000
61.6200 633.0000 1.0000
61.6300 638.0000 1.0000
61.6400 641.0000 1.0000
61.6500 662.0000 1.0000
61.6600 660.0000 1.0000
61.6700 664.0000 1.0000
61.6800 684.0000 1.0000
61.6900 647.0000 1.0000
61.7000 672.0000 1.0000
61.7100 617.0000 1.0000
61.7200 666.0000 1.0000
61.7300 665.0000 1.0000
61.7400 636.0000 1.0000
61.7500 645.0000 1.0000
61.7600 634.0000 1.0000
61.7700 634.0000 1.0000
61.7800 621.0000 1.0000
61.7900 649.0000 1.0000
61.8000 682.0000 1.0000
61.8100 668.0000 1.0000
61.8200 658.0000 1.0000
61.8300 708.0000 1.0000
61.8400 665.0000 1.0000
61.8500 699.0000 1.0000
61.8600 692.0000 1.0000
61.8700 701.0000 1.0000
61.8800 705.0000 1.0000
61.8900 740.0000 1.0000
61.9000 722.0000 1.0000
61.9100 698.0000 1.0000
61.9200 732.0000 1.0000
61.9300 689.0000 1.0000
61.9400 761.0000 1.0000
61.9500 741.0000 1.0000
61.9600 783.0000 1.0000
61.9700 762.0000 1.0000
61.9800 786.0000 1.0000
61.9900 797.0000 1.0000
62.0000 777.0000 1.0000
62.0100 815.0000 1.0000
62.0200 844.0000 1.0000
62.0300 837.0000 1.0000
62.0400 862.0000 1.0000
62.0500 851.0000 1.0000
62.0600 883.0000 1.0000
62.0700 940.0000 1.0000
62.0800 971.0000 1.0000
62.0900 973.0000 1.0000
62.1000 1003.0000 1.0000
62.1100 1039.0000 1.0000
62.1200 1090.0000 1.0000
62.1300 1061.0000 1.0000
62.1400 1123.0000 1.0000
62.1500 1178.0000 1.0000
62.1600 1207.0000 1.0000
62.1700 1239.0000 1.0000
62.1800 1316.0000 1.0000
62.1900 1298.0000 1.0000
62.2000 1358.0000 1.0000
62.2100 1410.0000 1.0000
62.2200 1462.0000 1.0000
62.2300 1467.0000 1.0000
62.2400 1490.0000 1.0000
62.2500 1447.0000 1.0000
62.2600 1461.0000 1.0000
62.2700 1485.0000 1.0000
62.2800 1509.0000 1.0000
62.2900 1551.0000 1.0000
62.3000 1513.0000 1.0000
62.3100 1486.0000 1.0000
62.3200 1444.0000 1.0000
62.3300 1445.0000 1.0000
62.3400 1447.0000 1.0000
62.3500 1466.0000 1.0000
62.3600 1487.0000 1.0000
62.3700 1445.0000 1.0000
62.3800 1440.0000 1.0000
62.3900 1414.0000 1.0000
62.4000 1359.0000 1.0000
62.4100 1393.0000 1.0000
62.4200 1362.0000 1.0000
62.4300 1351.0000 1.0000
62.4400 1288.0000 1.0000
62.4500 1243.0000 1.0000
62.4600 1235.0000 1.0000
62.4700 1219.0000 1.0000
62.4800 1229.0000 1.0000
62.4900 1208.0000 1.0000
62.5000 1207.0000 1.0000
62.5100 1132.0000 1.0000
62.5200 1123.0000 1.0000
62.5300 1068.0000 1.0000
62.5400 1069.0000 1.0000
62.5500 1053.0000 1.0000
62.5600 1025.0000 1.0000
62.5700 987.0000 1.0000
62.5800 938.0000 1.0000
62.5900 934.0000 1.0000
62.6000 917.0000 1.0000
62.6100 888.0000 1.0000
62.6200 868.0000 1.0000
62.6300 881.0000 1.0000
62.6400 865.0000 1.0000
62.6500 827.0000 1.0000
62.6600 845.0000 1.0000
62.6700 856.0000 1.0000
62.6800 812.0000 1.0000
62.6900 799.0000 1.0000
62.7000 814.0000 1.0000
62.7100 764.0000 1.0000
62.7200 736.0000 1.0000
62.7300 726.0000 1.0000
62.7400 740.0000 1.0000
62.7500 716.0000 1.0000
62.7600 756.0000 1.0000
62.7700 784.0000 1.0000
62.7800 750.0000 1.0000
62.7900 726.0000 1.0000
62.8000 679.0000 1.0000
62.8100 698.0000 1.0000
62.8200 709.0000 1.0000
62.8300 712.0000 1.0000
62.8400 689.0000 1.0000
62.8500 707.0000 1.0000
62.8600 687.0000 1.0000
62.8700 698.0000 1.0000
62.8800 718.0000 1.0000
62.8900 677.0000 1.0000
62.9000 669.0000 1.0000
62.9100 714.0000 1.0000
62.9200 681.0000 1.0000
62.9300 631.0000 1.0000
62.9400 689.0000 1.0000
62.9500 644.0000 1.0000
62.9600 662.0000 1.0000
62.9700 659.0000 1.0000
62.9800 653.0000 1.0000
62.9900 646.0000 1.0000
63.0000 644.0000 1.0000
63.0100 677.0000 1.0000
63.0200 647.0000 1.0000
63.0300 662.0000 1.0000
63.0400 655.0000 1.0000
63.0500 634.0000 1.0000
63.0600 667.0000 1.0000
63.0700 619.0000 1.0000
63.0800 635.0000 1.0000
63.0900 630.0000 1.0000
63.1000 676.0000 1.0000
63.1100 626.0000 1.0000
63.1200 651.0000 1.0000
63.1300 660.0000 1.0000
63.1400 656.0000 1.0000
63.1500 650.0000 1.0000
63.1600 621.0000 1.0000
63.1700 651.0000 1.0000
63.1800 603.0000 1.0000
63.1900 619.0000 1.0000
63.2000 665.0000 1.0000
63.2100 621.0000 1.0000
63.2200 629.0000 1.0000
63.2300 625.0000 1.0000
63.2400 610.0000 1.0000
63.2500 637.0000 1.0000
63.2600 643.0000 1.0000
63.2700 692.0000 1.0000
63.2800 662.0000 1.0000
63.2900 624.0000 1.0000
63.3000 605.0000 1.0000
63.3100 629.0000 1.0000
63.3200 614.0000 1.0000
63.3300 632.0000 1.0000
63.3400 631.0000 1.0000
63.3500 595.0000 1.0000
63.3600 614.0000 1.0000
63.3700 622.0000 1.0000
63.3800 629.0000 1.0000
63.3900 609.0000 1.0000
63.4000 643.0000 1.0000
63.4100 620.0000 1.0000
63.4200 631.0000 1.0000
63.4300 649.0000 1.0000
63.4400 606.0000 1.0000
63.4500 625.0000 1.0000
63.4600 629.0000 1.0000
63.4700 605.0000 1.0000
63.4800 626.0000 1.0000
63.4900 638.0000 1.0000
63.5000 566.0000 1.0000
63.5100 610.0000 1.0000
63.5200 612.0000 1.0000
63.5300 631.0000 1.0000
63.5400 600.0000 1.0000
63.5500 638.0000 1.0000
63.5600 653.0000 1.0000
63.5700 599.0000 1.0000
63.5800 587.0000 1.0000
63.5900 634.0000 1.0000
63.6000 674.0000 1.0000
63.6100 649.0000 1.0000
63.6200 625.0000 1.0000
63.6300 610.0000 1.0000
63.6400 623.0000 1.0000
63.6500 659.0000 1.0000
63.6600 639.0000 1.0000
63.6700 627.0000 1.0000
63.6800 637.0000 1.0000
63.6900 609.0000 1.0000
63.7000 628.0000 1.0000
63.7100 644.0000 1.0000
63.7200 627.0000 1.0000
63.7300 613.0000 1.0000
63.7400 607.0000 1.0000
63.7500 624.0000 1.0000
63.7600 639.0000 1.0000
63.7700 628.0000 1.0000
63.7800 637.0000 1.0000
63.7900 616.0000 1.0000
63.8000 602.0000 1.0000
63.8100 613.0000 1.0000
63.8200 606.0000 1.0000
63.8300 607.0000 1.0000
63.8400 608.0000 1.0000
63.8500 605.0000 1.0000
63.8600 610.0000 1.0000
63.8700 645.0000 1.0000
63.8800 638.0000 1.0000
63.8900 571.0000 1.0000
63.9000 627.0000 1.0000
63.9100 665.0000 1.0000
63.9200 607.0000 1.0000
63.9300 604.0000 1.0000
63.9400 596.0000 1.0000
63.9500 632.0000 1.0000
63.9600 615.0000 1.0000
63.9700 650.0000 1.0000
63.9800 638.0000 1.0000
63.9900 621.0000 1.0000
64.0000 646.0000 1.0000
64.0100 607.0000 1.0000
64.0200 640.0000 1.0000
64.0300 619.0000 1.0000
64.0400 630.0000 1.0000
64.0500 672.0000 1.0000
64.0600 622.0000 1.0000
64.0700 634.0000 1.0000
64.0800 581.0000 1.0000
64.0900 609.0000 1.0000
64.1000 633.0000 1.0000
64.1100 603.0000 1.0000
64.1200 589.0000 1.0000
64.1300 645.0000 1.0000
64.1400 575.0000 1.0000
64.1500 597.0000 1.0000
64.1600 614.0000 1.0000
64.1700 597.0000 1.0000
64.1800 584.0000 1.0000
64.1900 620.0000 1.0000
64.2000 649.0000 1.0000
64.2100 634.0000 1.0000
64.2200 646.0000 1.0000
64.2300 663.0000 1.0000
64.2400 641.0000 1.0000
64.2500 658.0000 1.0000
64.2600 645.0000 1.0000
64.2700 644.0000 1.0000
64.2800 596.0000 1.0000
64.2900 608.0000 1.0000
64.3000 625.0000 1.0000
64.3100 612.0000 1.0000
64.3200 605.0000 1.0000
64.3300 624.0000 1.0000
64.3400 652.0000 1.0000
64.3500 633.0000 1.0000
64.3600 627.0000 1.0000
64.3700 653.0000 1.0000
64.3800 620.0000 1.0000
64.3900 604.0000 1.0000
64.4000 647.0000 1.0000
64.4100 626.0000 1.0000
64.4200 643.0000 1.0000
64.4300 604.0000 1.0000
64.4400 623.0000 1.0000
64.4500 649.0000 1.0000
64.4600 637.0000 1.0000
64.4700 601.0000 1.0000
64.4800 659.0000 1.0000
64.4900 662.0000 1.0000
64.5000 649.0000 1.0000
64.5100 639.0000 1.0000
64.5200 649.0000 1.0000
64.5300 655.0000 1.0000
64.5400 644.0000 1.0000
64.5500 626.0000 1.0000
64.5600 645.0000 1.0000
64.5700 632.0000 1.0000
64.5800 613.0000 1.0000
64.5900 619.0000 1.0000
64.6000 679.0000 1.0000
64.6100 626.0000 1.0000
64.6200 650.0000 1.0000
64.6300 646.0000 1.0000
64.6400 662.0000 1.0000
64.6500 624.0000 1.0000
64.6600 599.0000 1.0000
64.6700 653.0000 1.0000
64.6800 658.0000 1.0000
64.6900 655.0000 1.0000
64.7000 654.0000 1.0000
64.7100 641.0000 1.0000
64.7200 619.0000 1.0000
64.7300 631.0000 1.0000
64.7400 674.0000 1.0000
64.7500 625.0000 1.0000
64.7600 663.0000 1.0000
64.7700 675.0000 1.0000
64.7800 677.0000 1.0000
64.7900 695.0000 1.0000
64.8000 646.0000 1.0000
64.8100 648.0000 1.0000
64.8200 673.0000 1.0000
64.8300 684.0000 1.0000
64.8400 683.0000 1.0000
64.8500 699.0000 1.0000
64.8600 635.0000 1.0000
64.8700 660.0000 1.0000
64.8800 636.0000 1.0000
64.8900 675.0000 1.0000
64.9000 682.0000 1.0000
64.9100 624.0000 1.0000
64.9200 672.0000 1.0000
64.9300 702.0000 1.0000
64.9400 651.0000 1.0000
64.9500 663.0000 1.0000
64.9600 636.0000 1.0000
64.9700 681.0000 1.0000
64.9800 666.0000 1.0000
64.9900 679.0000 1.0000
65.0000 628.0000 1.0000
65.0100 660.0000 1.0000
65.0200 685.0000 1.0000
65.0300 681.0000 1.0000
65.0400 632.0000 1.0000
65.0500 639.0000 1.0000
65.0600 635.0000 1.0000
65.0700 673.0000 1.0000
65.0800 638.0000 1.0000
65.0900 691.0000 1.0000
65.1000 714.0000 1.0000
65.1100 669.0000 1.0000
65.1200 653.0000 1.0000
65.1300 688.0000 1.0000
65.1400 653.0000 1.0000
65.1500 697.0000 1.0000
65.1600 659.0000 1.0000
65.1700 650.0000 1.0000
65.1800 650.0000 1.0000
65.1900 654.0000 1.0000
65.2000 637.0000 1.0000
65.2100 649.0000 1.0000
65.2200 673.0000 1.0000
65.2300 669.0000 1.0000
65.2400 664.0000 1.0000
65.2500 633.0000 1.0000
65.2600 677.0000 1.0000
65.2700 661.0000 1.0000
65.2800 654.0000 1.0000
65.2900 733.0000 1.0000
65.3000 623.0000 1.0000
65.3100 622.0000 1.0000
65.3200 628.0000 1.0000
65.3300 618.0000 1.0000
65.3400 637.0000 1.0000
65.3500 647.0000 1.0000
65.3600 622.0000 1.0000
65.3700 668.0000 1.0000
65.3800 634.0000 1.0000
65.3900 632.0000 1.0000
65.4000 663.0000 1.0000
65.4100 662.0000 1.0000
65.4200 630.0000 1.0000
65.4300 638.0000 1.0000
65.4400 621.0000 1.0000
65.4500 671.0000 1.0000
65.4600 661.0000 1.0000
65.4700 634.0000 1.0000
65.4800 673.0000 1.0000
65.4900 645.0000 1.0000
65.5000 619.0000 1.0000
65.5100 628.0000 1.0000
65.5200 681.0000 1.0000
65.5300 676.0000 1.0000
65.5400 654.0000 1.0000
65.5500 682.0000 1.0000
65.5600 691.0000 1.0000
65.5700 659.0000 1.0000
65.5800 658.0000 1.0000
65.5900 723.0000 1.0000
65.6000 673.0000 1.0000
65.6100 668.0000 1.0000
65.6200 665.0000 1.0000
65.6300 672.0000 1.0000
65.6400 665.0000 1.0000
65.6500 662.0000 1.0000
65.6600 692.0000 1.0000
65.6700 676.0000 1.0000
65.6800 696.0000 1.0000
65.6900 683.0000 1.0000
65.7000 661.0000 1.0000
65.7100 673.0000 1.0000
65.7200 691.0000 1.0000
65.7300 709.0000 1.0000
65.7400 707.0000 1.0000
65.7500 688.0000 1.0000
65.7600 676.0000 1.0000
65.7700 703.0000 1.0000
65.7800 736.0000 1.0000
65.7900 721.0000 1.0000
65.8000 754.0000 1.0000
65.8100 766.0000 1.0000
65.8200 739.0000 1.0000
65.8300 715.0000 1.0000
65.8400 765.0000 1.0000
65.8500 797.0000 1.0000
65.8600 784.0000 1.0000
65.8700 760.0000 1.0000
65.8800 806.0000 1.0000
65.8900 820.0000 1.0000
65.9000 804.0000 1.0000
65.9100 847.0000 1.0000
65.9200 870.0000 1.0000
65.9300 841.0000 1.0000
65.9400 925.0000 1.0000
65.9500 916.0000 1.0000
65.9600 950.0000 1.0000
65.9700 915.0000 1.0000
65.9800 942.0000 1.0000
65.9900 1037.0000 1.0000
66.0000 1048.0000 1.0000
66.0100 1057.0000 1.0000
66.0200 1042.0000 1.0000
66.0300 1102.0000 1.0000
66.0400 1173.0000 1.0000
66.0500 1175.0000 1.0000
66.0600 1244.0000 1.0000
66.0700 1308.0000 1.0000
66.0800 1399.0000 1.0000
66.0900 1394.0000 1.0000
66.1000 1541.0000 1.0000
66.1100 1617.0000 1.0000
66.1200 1725.0000 1.0000
66.1300 1850.0000 1.0000
66.1400 1963.0000 1.0000
66.1500 2002.0000 1.0000
66.1600 2212.0000 1.0000
66.1700 2238.0000 1.0000
66.1800 2402.0000 1.0000
66.1900 2431.0000 1.0000
66.2000 2599.0000 1.0000
66.2100 2668.0000 1.0000
66.2200 2720.0000 1.0000
66.2300 2783.0000 1.0000
66.2400 2767.0000 1.0000
66.2500 2787.0000 1.0000
66.2600 2718.0000 1.0000
66.2700 2678.0000 1.0000
66.2800 2668.0000 1.0000
66.2900 2555.0000 1.0000
66.3000 2514.0000 1.0000
66.3100 2551.0000 1.0000
66.3200 2432.0000 1.0000
66.3300 2466.0000 1.0000
66.3400 2342.0000 1.0000
66.3500 2348.0000 1.0000
66.3600 2385.0000 1.0000
66.3700 2275.0000 1.0000
66.3800 2285.0000 1.0000
66.3900 2312.0000 1.0000
66.4000 2267.0000 1.0000
66.4100 2277.0000 1.0000
66.4200 2201.0000 1.0000
66.4300 2117.0000 1.0000
66.4400 2010.0000 1.0000
66.4500 1928.0000 1.0000
66.4600 1821.0000 1.0000
66.4700 1783.0000 1.0000
66.4800 1798.0000 1.0000
66.4900 1742.0000 1.0000
66.5000 1644.0000 1.0000
66.5100 1560.0000 1.0000
66.5200 1497.0000 1.0000
66.5300 1438.0000 1.0000
66.5400 1336.0000 1.0000
66.5500 1294.0000 1.0000
66.5600 1285.0000 1.0000
66.5700 1203.0000 1.0000
66.5800 1183.0000 1.0000
66.5900 1152.0000 1.0000
66.6000 1078.0000 1.0000
66.6100 1048.0000 1.0000
66.6200 1034.0000 1.0000
66.6300 1002.0000 1.0000
66.6400 966.0000 1.0000
66.6500 1004.0000 1.0000
66.6600 928.0000 1.0000
66.6700 916.0000 1.0000
66.6800 917.0000 1.0000
66.6900 860.0000 1.0000
66.7000 876.0000 1.0000
66.7100 877.0000 1.0000
66.7200 808.0000 1.0000
66.7300 798.0000 1.0000
66.7400 816.0000 1.0000
66.7500 797.0000 1.0000
66.7600 737.0000 1.0000
66.7700 737.0000 1.0000
66.7800 802.0000 1.0000
66.7900 722.0000 1.0000
66.8000 779.0000 1.0000
66.8100 754.0000 1.0000
66.8200 696.0000 1.0000
66.8300 708.0000 1.0000
66.8400 668.0000 1.0000
66.8500 711.0000 1.0000
66.8600 668.0000 1.0000
66.8700 658.0000 1.0000
66.8800 695.0000 1.0000
66.8900 693.0000 1.0000
66.9000 665.0000 1.0000
66.9100 628.0000 1.0000
66.9200 649.0000 1.0000
66.9300 639.0000 1.0000
66.9400 680.0000 1.0000
66.9500 684.0000 1.0000
66.9600 642.0000 1.0000
66.9700 584.0000 1.0000
66.9800 686.0000 1.0000
66.9900 689.0000 1.0000
67.0000 653.0000 1.0000
67.0100 623.0000 1.0000
67.0200 632.0000 1.0000
67.0300 640.0000 1.0000
67.0400 634.0000 1.0000
67.0500 640.0000 1.0000
67.0600 611.0000 1.0000
67.0700 608.0000 1.0000
67.0800 631.0000 1.0000
67.0900 623.0000 1.0000
67.1000 612.0000 1.0000
67.1100 632.0000 1.0000
67.1200 607.0000 1.0000
67.1300 592.0000 1.0000
67.1400 608.0000 1.0000
67.1500 640.0000 1.0000
67.1600 543.0000 1.0000
67.1700 584.0000 1.0000
67.1800 577.0000 1.0000
67.1900 589.0000 1.0000
67.2000 579.0000 1.0000
67.2100 625.0000 1.0000
67.2200 629.0000 1.0000
67.2300 631.0000 1.0000
67.2400 595.0000 1.0000
67.2500 565.0000 1.0000
67.2600 591.0000 1.0000
67.2700 624.0000 1.0000
67.2800 598.0000 1.0000
67.2900 590.0000 1.0000
67.3000 566.0000 1.0000
67.3100 619.0000 1.0000
67.3200 604.0000 1.0000
67.3300 578.0000 1.0000
67.3400 573.0000 1.0000
67.3500 579.0000 1.0000
67.3600 595.0000 1.0000
67.3700 563.0000 1.0000
67.3800 595.0000 1.0000
67.3900 601.0000 1.0000
67.4000 599.0000 1.0000
67.4100 594.0000 1.0000
67.4200 557.0000 1.0000
67.4300 592.0000 1.0000
67.4400 596.0000 1.0000
67.4500 581.0000 1.0000
67.4600 578.0000 1.0000
67.4700 573.0000 1.0000
67.4800 557.0000 1.0000
67.4900 595.0000 1.0000
67.5000 583.0000 1.0000
67.5100 578.0000 1.0000
67.5200 592.0000 1.0000
67.5300 590.0000 1.0000
67.5400 578.0000 1.0000
67.5500 594.0000 1.0000
67.5600 577.0000 1.0000
67.5700 570.0000 1.0000
67.5800 540.0000 1.0000
67.5900 581.0000 1.0000
67.6000 579.0000 1.0000
67.6100 574.0000 1.0000
67.6200 548.0000 1.0000
67.6300 571.0000 1.0000
67.6400 556.0000 1.0000
67.6500 588.0000 1.0000
67.6600 530.0000 1.0000
67.6700 596.0000 1.0000
67.6800 559.0000 1.0000
67.6900 530.0000 1.0000
67.7000 565.0000 1.0000
67.7100 532.0000 1.0000
67.7200 603.0000 1.0000
67.7300 603.0000 1.0000
67.7400 565.0000 1.0000
67.7500 562.0000 1.0000
67.7600 581.0000 1.0000
67.7700 571.0000 1.0000
67.7800 556.0000 1.0000
67.7900 576.0000 1.0000
67.8000 556.0000 1.0000
67.8100 527.0000 1.0000
67.8200 531.0000 1.0000
67.8300 561.0000 1.0000
67.8400 563.0000 1.0000
67.8500 561.0000 1.0000
67.8600 551.0000 1.0000
67.8700 560.0000 1.0000
67.8800 538.0000 1.0000
67.8900 578.0000 1.0000
67.9000 544.0000 1.0000
67.9100 590.0000 1.0000
67.9200 552.0000 1.0000
67.9300 585.0000 1.0000
67.9400 590.0000 1.0000
67.9500 576.0000 1.0000
67.9600 582.0000 1.0000
67.9700 588.0000 1.0000
67.9800 548.0000 1.0000
67.9900 580.0000 1.0000
68.0000 588.0000 1.0000
68.0100 591.0000 1.0000
68.0200 541.0000 1.0000
68.0300 549.0000 1.0000
68.0400 556.0000 1.0000
68.0500 571.0000 1.0000
68.0600 563.0000 1.0000
68.0700 529.0000 1.0000
68.0800 592.0000 1.0000
68.0900 539.0000 1.0000
68.1000 540.0000 1.0000
68.1100 542.0000 1.0000
68.1200 552.0000 1.0000
68.1300 572.0000 1.0000
68.1400 557.0000 1.0000
68.1500 576.0000 1.0000
68.1600 598.0000 1.0000
68.1700 596.0000 1.0000
68.1800 605.0000 1.0000
68.1900 561.0000 1.0000
68.2000 590.0000 1.0000
68.2100 578.0000 1.0000
68.2200 554.0000 1.0000
68.2300 616.0000 1.0000
68.2400 565.0000 1.0000
68.2500 603.0000 1.0000
68.2600 542.0000 1.0000
68.2700 535.0000 1.0000
68.2800 533.0000 1.0000
68.2900 544.0000 1.0000
68.3000 566.0000 1.0000
68.3100 554.0000 1.0000
68.3200 569.0000 1.0000
68.3300 585.0000 1.0000
68.3400 551.0000 1.0000
68.3500 560.0000 1.0000
68.3600 526.0000 1.0000
68.3700 556.0000 1.0000
68.3800 571.0000 1.0000
68.3900 553.0000 1.0000
68.4000 569.0000 1.0000
68.4100 567.0000 1.0000
68.4200 559.0000 1.0000
68.4300 538.0000 1.0000
68.4400 551.0000 1.0000
68.4500 552.0000 1.0000
68.4600 543.0000 1.0000
68.4700 552.0000 1.0000
68.4800 570.0000 1.0000
68.4900 558.0000 1.0000
68.5000 549.0000 1.0000
68.5100 581.0000 1.0000
68.5200 557.0000 1.0000
68.5300 588.0000 1.0000
68.5400 553.0000 1.0000
68.5500 555.0000 1.0000
68.5600 504.0000 1.0000
68.5700 517.0000 1.0000
68.5800 552.0000 1.0000
68.5900 528.0000 1.0000
68.6000 578.0000 1.0000
68.6100 562.0000 1.0000
68.6200 568.0000 1.0000
68.6300 563.0000 1.0000
68.6400 552.0000 1.0000
68.6500 532.0000 1.0000
68.6600 569.0000 1.0000
68.6700 547.0000 1.0000
68.6800 527.0000 1.0000
68.6900 592.0000 1.0000
68.7000 541.0000 1.0000
68.7100 530.0000 1.0000
68.7200 558.0000 1.0000
68.7300 541.0000 1.0000
68.7400 570.0000 1.0000
68.7500 556.0000 1.0000
68.7600 580.0000 1.0000
68.7700 556.0000 1.0000
68.7800 561.0000 1.0000
68.7900 529.0000 1.0000
68.8000 550.0000 1.0000
68.8100 536.0000 1.0000
68.8200 554.0000 1.0000
68.8300 549.0000 1.0000
68.8400 569.0000 1.0000
68.8500 573.0000 1.0000
68.8600 547.0000 1.0000
68.8700 580.0000 1.0000
68.8800 560.0000 1.0000
68.8900 557.0000 1.0000
68.9000 528.0000 1.0000
68.9100 567.0000 1.0000
68.9200 545.0000 1.0000
68.9300 557.0000 1.0000
68.9400 545.0000 1.0000
68.9500 521.0000 1.0000
68.9600 568.0000 1.0000
68.9700 539.0000 1.0000
68.9800 539.0000 1.0000
68.9900 541.0000 1.0000
69.0000 555.0000 1.0000
69.0100 549.0000 1.0000
69.0200 585.0000 1.0000
69.0300 540.0000 1.0000
69.0400 522.0000 1.0000
69.0500 561.0000 1.0000
69.0600 556.0000 1.0000
69.0700 528.0000 1.0000
69.0800 535.0000 1.0000
69.0900 546.0000 1.0000
69.1000 542.0000 1.0000
69.1100 557.0000 1.0000
69.1200 566.0000 1.0000
69.1300 566.0000 1.0000
69.1400 558.0000 1.0000
69.1500 514.0000 1.0000
69.1600 542.0000 1.0000
69.1700 537.0000 1.0000
69.1800 510.0000 1.0000
69.1900 510.0000 1.0000
69.2000 552.0000 1.0000
69.2100 564.0000 1.0000
69.2200 535.0000 1.0000
69.2300 546.0000 1.0000
69.2400 576.0000 1.0000
69.2500 542.0000 1.0000
69.2600 532.0000 1.0000
69.2700 562.0000 1.0000
69.2800 583.0000 1.0000
69.2900 551.0000 1.0000
69.3000 531.0000 1.0000
69.3100 502.0000 1.0000
69.3200 567.0000 1.0000
69.3300 564.0000 1.0000
69.3400 531.0000 1.0000
69.3500 517.0000 1.0000
69.3600 519.0000 1.0000
69.3700 523.0000 1.0000
69.3800 515.0000 1.0000
69.3900 524.0000 1.0000
69.4000 557.0000 1.0000
69.4100 546.0000 1.0000
69.4200 578.0000 1.0000
69.4300 551.0000 1.0000
69.4400 596.0000 1.0000
69.4500 586.0000 1.0000
69.4600 551.0000 1.0000
69.4700 572.0000 1.0000
69.4800 558.0000 1.0000
69.4900 584.0000 1.0000
69.5000 575.0000 1.0000
69.5100 535.0000 1.0000
69.5200 559.0000 1.0000
69.5300 548.0000 1.0000
69.5400 556.0000 1.0000
69.5500 560.0000 1.0000
69.5600 583.0000 1.0000
69.5700 556.0000 1.0000
69.5800 574.0000 1.0000
69.5900 555.0000 1.0000
69.6000 562.0000 1.0000
69.6100 563.0000 1.0000
69.6200 535.0000 1.0000
69.6300 523.0000 1.0000
69.6400 511.0000 1.0000
69.6500 586.0000 1.0000
69.6600 581.0000 1.0000
69.6700 571.0000 1.0000
69.6800 553.0000 1.0000
69.6900 549.0000 1.0000
69.7000 591.0000 1.0000
69.7100 563.0000 1.0000
69.7200 578.0000 1.0000
69.7300 552.0000 1.0000
69.7400 530.0000 1.0000
69.7500 520.0000 1.0000
69.7600 557.0000 1.0000
69.7700 532.0000 1.0000
69.7800 530.0000 1.0000
69.7900 516.0000 1.0000
69.8000 566.0000 1.0000
69.8100 541.0000 1.0000
69.8200 595.0000 1.0000
69.8300 539.0000 1.0000
69.8400 554.0000 1.0000
69.8500 543.0000 1.0000
69.8600 561.0000 1.0000
69.8700 548.0000 1.0000
69.8800 508.0000 1.0000
69.8900 552.0000 1.0000
69.9000 546.0000 1.0000
69.9100 553.0000 1.0000
69.9200 527.0000 1.0000
69.9300 571.0000 1.0000
69.9400 506.0000 1.0000
69.9500 518.0000 1.0000
69.9600 560.0000 1.0000
69.9700 523.0000 1.0000
69.9800 537.0000 1.0000
69.9900 546.0000 1.0000
70.0000 525.0000 1.0000
*RAS_INT_END
*RAS_TEMPERATURE_START
*RAS_TEMPERATURE_END
*RAS_DATA_END
