*RAS_DATA_START
*RAS_HEADER_START
*DISP_FMT_X "%.2f"
*DISP_FMT_Y "%.0f"
*DISP_FULLSCALE "15006.0000000000"
*DISP_LINE_COLOR "255.0000000000"
*DISP_LINE_STYLE "0.0000000000"
*DISP_LINE_WIDTH "0.2500000000"
*DISP_NOTE "測定データ-2"
*DISP_OFFSET_Y "0.0000000000"
*DISP_PEAKSEARCH_UNIT_Y "cps"
*DISP_RANGE_BOTTOM "0.0000000000"
*DISP_RANGE_LEFT "20.0000000000"
*DISP_RANGE_LOGCUTOFF "0.0100000000"
*DISP_RANGE_RIGHT "70.0000000000"
*DISP_RANGE_TOP "15006.0000000000"
*DISP_SCALE_MODE_Y "0.0000000000"
*DISP_TAB_NAME "2θ/θ"
*DISP_TITLE_Y "強度"
*DISP_UNIT_Y "cps"
*DISP_WINDOW_NAME "MSG_MACROENGINE"
*FILE_COMMENT " "
*FILE_MD5 ""
*FILE_MEMO " "
*FILE_OPERATOR "Administrator"
*FILE_SAMPLE " "
*FILE_TYPE "RAS_RAW"
*FILE_USERGROUP "システムマネージャ"
*FILE_VERSION "1.0000000000"
*HW_ATTACHMENT_ID "ATT0025"
*HW_ATTACHMENT_NAME "標準|Standard"
*HW_COUNTER_ID-0 "CUT0025"
*HW_COUNTER_ID-1 "CUT0020"
*HW_COUNTER_ID-2 "CUT0020"
*HW_COUNTER_ID-3 "CSL0021"
*HW_COUNTER_ID-4 "CMC0021"
*HW_COUNTER_NAME-0 "D/teX Ultra|D/teX Ultra"
*HW_COUNTER_NAME-1 "None|None"
*HW_COUNTER_NAME-2 "None|None"
*HW_COUNTER_NAME-3 "BBM|BBM"
*HW_COUNTER_NAME-4 "検出器モノクロメータ|Detector monochromator"
*HW_COUNTER_SELECT_NAME "D/teX Ultra|D/teX Ultra"
*HW_GONIOMETER_ID "GON0023"
*HW_GONIOMETER_NAME "SmartLab|SmartLab"
*HW_GONIOMETER_RADIUS-0 "90.0"
*HW_GONIOMETER_RADIUS-1 "114.0"
*HW_GONIOMETER_RADIUS-2 "190.0"
*HW_GONIOMETER_RADIUS-3 "300.0"
*HW_GONIOMETER_RADIUS-4 "187.0"
*HW_GONIOMETER_RADIUS-5 "300.0"
*HW_GONIOMETER_RADIUS-6 "113.0"
*HW_GONIOMETER_RADIUS-7 "331.0"
*HW_I_OPT_ID-0 "CBO0021"
*HW_I_OPT_ID-1 "ICR0023"
*HW_I_OPT_ID-2 "ISL0021"
*HW_I_OPT_ID-3 "ISO0021"
*HW_I_OPT_ID-4 "IAD0021"
*HW_I_OPT_ID-5 "IPR0001"
*HW_I_OPT_NAME-0 "CBOユニット|CBO unit"
*HW_I_OPT_NAME-1 "標準入射光学ユニット|Standard incident optical unit"
*HW_I_OPT_NAME-2 "標準入射スリットボックス|Standard incident slit box"
*HW_I_OPT_NAME-3 "入射平行スリット|Incident parallel slit"
*HW_I_OPT_NAME-4 "長手制限スリット|Length limiting slit"
*HW_I_OPT_NAME-5 "None|None"
*HW_R_ATTENUATER_AUTOMODE "0"
*HW_R_OPT_ID-0 "RSS0021"
*HW_R_OPT_ID-1 "RCR0023"
*HW_R_OPT_ID-2 "RSO0021"
*HW_R_OPT_ID-3 "RRS0021"
*HW_R_OPT_ID-4 "ATN0021"
*HW_R_OPT_ID-5 "RFL0021"
*HW_R_OPT_ID-6 "RAD0021"
*HW_R_OPT_NAME-0 "標準受光スリットボックス1|Standard receiving slit box # 1"
*HW_R_OPT_NAME-1 "標準受光光学ユニット1|Standard receiving unit # 1"
*HW_R_OPT_NAME-2 "標準受光光学ユニット2|Standard receiving optical unit # 2"
*HW_R_OPT_NAME-3 "標準受光スリットボックス2|Standard receiving slit box # 2"
*HW_R_OPT_NAME-4 "標準アッテネータ|Standard Attenuator"
*HW_R_OPT_NAME-5 "Cu Kβ|Cu K-beta"
*HW_R_OPT_NAME-6 "調整用受光スリット|Alignment receiving slit"
*HW_SAMPLE_HOLDER_ID "SMP0023"
*HW_SAMPLE_HOLDER_NAME "標準Zステージ|Standard Z stage"
*HW_XG_CURRENT_MAX "50"
*HW_XG_CURRENT_MIN "2"
*HW_XG_CURRENT_RESOLUTION "1"
*HW_XG_CURRENT_UNIT "mA"
*HW_XG_FOCUS "1mm x 10mm"
*HW_XG_FOCUS_TYPE "Normal"
*HW_XG_ID ""
*HW_XG_NAME "3kW 封入管(ID:1200)|3kW Sealed tube(ID:1200)"
*HW_XG_TARGET_ATOMIC_NUMBER "29.0000000000"
*HW_XG_TARGET_NAME "Cu"
*HW_XG_TYPE "Hermetic"
*HW_XG_VOLTAGE_MAX "60"
*HW_XG_VOLTAGE_MIN "20"
*HW_XG_VOLTAGE_RESOLUTION "1"
*HW_XG_VOLTAGE_UNIT "kV"
*HW_XG_WATT_MAX "1.500"
*HW_XG_WATT_UNIT "kW"
*HW_XG_WAVE_LENGTH_ALPHA1 "1.540593"
*HW_XG_WAVE_LENGTH_ALPHA2 "1.544414"
*HW_XG_WAVE_LENGTH_BETA "1.392250"
*MEAS_COND_AXIS_NAME-0 "2θ/θ"
*MEAS_COND_AXIS_NAME-1 "2θ"
*MEAS_COND_AXIS_NAME-2 "ω"
*MEAS_COND_AXIS_NAME-3 "Z"
*MEAS_COND_AXIS_NAME-4 "2θ/ω"
*MEAS_COND_AXIS_NAME-5 "θs"
*MEAS_COND_AXIS_NAME-6 "θd"
*MEAS_COND_AXIS_NAME-7 "Ts"
*MEAS_COND_AXIS_NAME-8 "CBO選択スリット"
*MEAS_COND_AXIS_NAME-9 "M"
*MEAS_COND_AXIS_NAME-10 "入射平行スリット"
*MEAS_COND_AXIS_NAME-11 "入射スリット"
*MEAS_COND_AXIS_NAME-12 ""
*MEAS_COND_AXIS_NAME-13 "Zs"
*MEAS_COND_AXIS_NAME-14 "入射光学素子"
*MEAS_COND_AXIS_NAME-15 "長手制限スリット"
*MEAS_COND_AXIS_NAME-16 "センタースリット"
*MEAS_COND_AXIS_NAME-17 "フィルター"
*MEAS_COND_AXIS_NAME-18 "受光スリット1"
*MEAS_COND_AXIS_NAME-19 "受光スリット2"
*MEAS_COND_AXIS_NAME-20 "受光光学素子"
*MEAS_COND_AXIS_NAME-21 "受光平行スリット"
*MEAS_COND_AXIS_NAME-22 "調整用受光スリット"
*MEAS_COND_AXIS_NAME-23 ""
*MEAS_COND_AXIS_NAME-24 ""
*MEAS_COND_AXIS_NAME-25 "Zd"
*MEAS_COND_AXIS_NAME-26 "アッテネータ"
*MEAS_COND_AXIS_NAME-27 "検出器モノクロメータ"
*MEAS_COND_AXIS_NAME-28 "モノクロメータスリット"
*MEAS_COND_AXIS_NAME-29 "プライマリビーム"
*MEAS_COND_AXIS_NAME-30 "PHA"
*MEAS_COND_AXIS_NAME_INTERNAL-0 "TwoThetaTheta"
*MEAS_COND_AXIS_NAME_INTERNAL-1 "TwoTheta"
*MEAS_COND_AXIS_NAME_INTERNAL-2 "Omega"
*MEAS_COND_AXIS_NAME_INTERNAL-3 "Z"
*MEAS_COND_AXIS_NAME_INTERNAL-4 "TwoThetaOmega"
*MEAS_COND_AXIS_NAME_INTERNAL-5 "ThetaS"
*MEAS_COND_AXIS_NAME_INTERNAL-6 "ThetaD"
*MEAS_COND_AXIS_NAME_INTERNAL-7 "Ts"
*MEAS_COND_AXIS_NAME_INTERNAL-8 "CBO"
*MEAS_COND_AXIS_NAME_INTERNAL-9 "CBO-M"
*MEAS_COND_AXIS_NAME_INTERNAL-10 "IncidentSollerSlit"
*MEAS_COND_AXIS_NAME_INTERNAL-11 "IncidentSlitBox"
*MEAS_COND_AXIS_NAME_INTERNAL-12 "IncidentSlitBox-_Axis"
*MEAS_COND_AXIS_NAME_INTERNAL-13 "Zs"
*MEAS_COND_AXIS_NAME_INTERNAL-14 "IncidentMonochromator"
*MEAS_COND_AXIS_NAME_INTERNAL-15 "IncidentAxdSlit"
*MEAS_COND_AXIS_NAME_INTERNAL-16 "CenterSlit"
*MEAS_COND_AXIS_NAME_INTERNAL-17 "Filter"
*MEAS_COND_AXIS_NAME_INTERNAL-18 "ReceivingSlitBox1"
*MEAS_COND_AXIS_NAME_INTERNAL-19 "ReceivingSlitBox2"
*MEAS_COND_AXIS_NAME_INTERNAL-20 "ReceivingOptics"
*MEAS_COND_AXIS_NAME_INTERNAL-21 "ReceivingSollerSlit"
*MEAS_COND_AXIS_NAME_INTERNAL-22 "ReceivingAxdSlit"
*MEAS_COND_AXIS_NAME_INTERNAL-23 "ReceivingSlitBox1-_Axis"
*MEAS_COND_AXIS_NAME_INTERNAL-24 "ReceivingSlitBox2-_Axis"
*MEAS_COND_AXIS_NAME_INTERNAL-25 "ReceivingSlitBox2-Zd"
*MEAS_COND_AXIS_NAME_INTERNAL-26 "Attenuator"
*MEAS_COND_AXIS_NAME_INTERNAL-27 "CounterMonochromator"
*MEAS_COND_AXIS_NAME_INTERNAL-28 "CounterSlit"
*MEAS_COND_AXIS_NAME_INTERNAL-29 "IncidentPrimary"
*MEAS_COND_AXIS_NAME_INTERNAL-30 "PHA"
*MEAS_COND_AXIS_NAME_MAGICNO-0 "83951616.0000000000"
*MEAS_COND_AXIS_NAME_MAGICNO-1 "268632064.0000000000"
*MEAS_COND_AXIS_NAME_MAGICNO-2 "268500992.0000000000"
*MEAS_COND_AXIS_NAME_MAGICNO-3 "285278208.0000000000"
*MEAS_COND_AXIS_NAME_MAGICNO-4 "83951616.0000000000"
*MEAS_COND_AXIS_NAME_MAGICNO-5 "131072.0000000000"
*MEAS_COND_AXIS_NAME_MAGICNO-6 "131072.0000000000"
*MEAS_COND_AXIS_NAME_MAGICNO-7 "318898176.0000000000"
*MEAS_COND_AXIS_NAME_MAGICNO-8 "20971521.0000000000"
*MEAS_COND_AXIS_NAME_MAGICNO-9 "285343744.0000000000"
*MEAS_COND_AXIS_NAME_MAGICNO-10 "20971521.0000000000"
*MEAS_COND_AXIS_NAME_MAGICNO-11 "22020097.0000000000"
*MEAS_COND_AXIS_NAME_MAGICNO-12 "25165824.0000000000"
*MEAS_COND_AXIS_NAME_MAGICNO-13 "318898176.0000000000"
*MEAS_COND_AXIS_NAME_MAGICNO-14 "1.0000000000"
*MEAS_COND_AXIS_NAME_MAGICNO-15 "20971521.0000000000"
*MEAS_COND_AXIS_NAME_MAGICNO-16 "20971521.0000000000"
*MEAS_COND_AXIS_NAME_MAGICNO-17 "20971521.0000000000"
*MEAS_COND_AXIS_NAME_MAGICNO-18 "23068673.0000000000"
*MEAS_COND_AXIS_NAME_MAGICNO-19 "23068673.0000000000"
*MEAS_COND_AXIS_NAME_MAGICNO-20 "20971521.0000000000"
*MEAS_COND_AXIS_NAME_MAGICNO-21 "20971521.0000000000"
*MEAS_COND_AXIS_NAME_MAGICNO-22 "20971521.0000000000"
*MEAS_COND_AXIS_NAME_MAGICNO-23 "25165824.0000000000"
*MEAS_COND_AXIS_NAME_MAGICNO-24 "25165824.0000000000"
*MEAS_COND_AXIS_NAME_MAGICNO-25 "285343744.0000000000"
*MEAS_COND_AXIS_NAME_MAGICNO-26 "17301505.0000000000"
*MEAS_COND_AXIS_NAME_MAGICNO-27 "20971521.0000000000"
*MEAS_COND_AXIS_NAME_MAGICNO-28 "20971521.0000000000"
*MEAS_COND_AXIS_NAME_MAGICNO-29 "20971521.0000000000"
*MEAS_COND_AXIS_NAME_MAGICNO-30 "0.0000000000"
*MEAS_COND_AXIS_OFFSET-0 "-"
*MEAS_COND_AXIS_OFFSET-1 "-0.1081000000"
*MEAS_COND_AXIS_OFFSET-2 "0.3758000000"
*MEAS_COND_AXIS_OFFSET-3 "-"
*MEAS_COND_AXIS_OFFSET-4 "-"
*MEAS_COND_AXIS_OFFSET-5 "0.3758000000"
*MEAS_COND_AXIS_OFFSET-6 "-0.4839000000"
*MEAS_COND_AXIS_OFFSET-7 "-"
*MEAS_COND_AXIS_OFFSET-8 "-"
*MEAS_COND_AXIS_OFFSET-9 "-"
*MEAS_COND_AXIS_OFFSET-10 "-"
*MEAS_COND_AXIS_OFFSET-11 "-"
*MEAS_COND_AXIS_OFFSET-12 "-"
*MEAS_COND_AXIS_OFFSET-13 "-"
*MEAS_COND_AXIS_OFFSET-14 "-"
*MEAS_COND_AXIS_OFFSET-15 "-"
*MEAS_COND_AXIS_OFFSET-16 "-"
*MEAS_COND_AXIS_OFFSET-17 "-"
*MEAS_COND_AXIS_OFFSET-18 "-"
*MEAS_COND_AXIS_OFFSET-19 "-"
*MEAS_COND_AXIS_OFFSET-20 "-"
*MEAS_COND_AXIS_OFFSET-21 "-"
*MEAS_COND_AXIS_OFFSET-22 "-"
*MEAS_COND_AXIS_OFFSET-23 "-"
*MEAS_COND_AXIS_OFFSET-24 "-"
*MEAS_COND_AXIS_OFFSET-25 "-"
*MEAS_COND_AXIS_OFFSET-26 "-"
*MEAS_COND_AXIS_OFFSET-27 "-"
*MEAS_COND_AXIS_OFFSET-28 "-"
*MEAS_COND_AXIS_OFFSET-29 "-"
*MEAS_COND_AXIS_OFFSET-30 "-"
*MEAS_COND_AXIS_POSITION-0 "0.0000000000"
*MEAS_COND_AXIS_POSITION-1 "0.0000000000"
*MEAS_COND_AXIS_POSITION-2 "0.0000000000"
*MEAS_COND_AXIS_POSITION-3 "-0.5500000000"
*MEAS_COND_AXIS_POSITION-4 "0.0000000000"
*MEAS_COND_AXIS_POSITION-5 "0.0000000000"
*MEAS_COND_AXIS_POSITION-6 "0.0000000000"
*MEAS_COND_AXIS_POSITION-7 "-0.4278800000"
*MEAS_COND_AXIS_POSITION-8 "BB"
*MEAS_COND_AXIS_POSITION-9 "0.0000000000"
*MEAS_COND_AXIS_POSITION-10 "Soller_slit_5.0deg"
*MEAS_COND_AXIS_POSITION-11 "2/3deg"
*MEAS_COND_AXIS_POSITION-12 "2.2088000000"
*MEAS_COND_AXIS_POSITION-13 "-0.4140600000"
*MEAS_COND_AXIS_POSITION-14 "0.0000000000"
*MEAS_COND_AXIS_POSITION-15 "10.0mm"
*MEAS_COND_AXIS_POSITION-16 "None"
*MEAS_COND_AXIS_POSITION-17 "Cu_K-beta"
*MEAS_COND_AXIS_POSITION-18 "13.000mm"
*MEAS_COND_AXIS_POSITION-19 "13.000mm"
*MEAS_COND_AXIS_POSITION-20 "No_unit"
*MEAS_COND_AXIS_POSITION-21 "Soller_slit_5.0deg"
*MEAS_COND_AXIS_POSITION-22 "None"
*MEAS_COND_AXIS_POSITION-23 "13.0000000000"
*MEAS_COND_AXIS_POSITION-24 "13.0000000000"
*MEAS_COND_AXIS_POSITION-25 "0.0109400000"
*MEAS_COND_AXIS_POSITION-26 "Open"
*MEAS_COND_AXIS_POSITION-27 "None"
*MEAS_COND_AXIS_POSITION-28 "None"
*MEAS_COND_AXIS_POSITION-29 "None"
*MEAS_COND_AXIS_POSITION-30 "38.0000000000"
*MEAS_COND_AXIS_UNIT-0 "deg"
*MEAS_COND_AXIS_UNIT-1 "deg"
*MEAS_COND_AXIS_UNIT-2 "deg"
*MEAS_COND_AXIS_UNIT-3 "mm"
*MEAS_COND_AXIS_UNIT-4 "deg"
*MEAS_COND_AXIS_UNIT-5 "deg"
*MEAS_COND_AXIS_UNIT-6 "deg"
*MEAS_COND_AXIS_UNIT-7 "mm"
*MEAS_COND_AXIS_UNIT-8 ""
*MEAS_COND_AXIS_UNIT-9 "pulse"
*MEAS_COND_AXIS_UNIT-10 ""
*MEAS_COND_AXIS_UNIT-11 ""
*MEAS_COND_AXIS_UNIT-12 "mm"
*MEAS_COND_AXIS_UNIT-13 "mm"
*MEAS_COND_AXIS_UNIT-14 ""
*MEAS_COND_AXIS_UNIT-15 ""
*MEAS_COND_AXIS_UNIT-16 ""
*MEAS_COND_AXIS_UNIT-17 ""
*MEAS_COND_AXIS_UNIT-18 ""
*MEAS_COND_AXIS_UNIT-19 ""
*MEAS_COND_AXIS_UNIT-20 ""
*MEAS_COND_AXIS_UNIT-21 ""
*MEAS_COND_AXIS_UNIT-22 ""
*MEAS_COND_AXIS_UNIT-23 "mm"
*MEAS_COND_AXIS_UNIT-24 "mm"
*MEAS_COND_AXIS_UNIT-25 "mm"
*MEAS_COND_AXIS_UNIT-26 ""
*MEAS_COND_AXIS_UNIT-27 ""
*MEAS_COND_AXIS_UNIT-28 ""
*MEAS_COND_AXIS_UNIT-29 ""
*MEAS_COND_AXIS_UNIT-30 "div"
*MEAS_COND_COUNTER_CNTLOSS_CORR "0.0000000000"
*MEAS_COND_COUNTER_PHABASE "38.0000000000"
*MEAS_COND_COUNTER_PHAWINDOW "16.0000000000"
*MEAS_COND_COUNTER_PHA_UNIT "div"
*MEAS_COND_COUNTER_TAUDIFF "30.0000000000"
*MEAS_COND_COUNTER_TAUINT "0.0000000000"
*MEAS_COND_IRRADIATION_MODE "OFF"
*MEAS_COND_IRRADIATION_WIDTH ""
*MEAS_COND_OPT_ATTR "集中法"
*MEAS_COND_OPT_NAME "@集中法"
*MEAS_COND_UNSYMMETRIC_MODE "OFF"
*MEAS_COND_XG_CURRENT "30.0000000000"
*MEAS_COND_XG_VOLTAGE "40.0000000000"
*MEAS_COND_XG_WAVE_TYPE "Ka"
*MEAS_DATA_COUNT "5001.0000000000"
*MEAS_SCAN_AXIS_X "2θ/θ"
*MEAS_SCAN_AXIS_X_INTERNAL "TwoThetaTheta"
*MEAS_SCAN_END_TIME "07/14/21 12:29:16"
*MEAS_SCAN_MODE "CONTINUOUS"
*MEAS_SCAN_MONITOR "0"
*MEAS_SCAN_RESOLUTION_X "0.0002"
*MEAS_SCAN_SPEED "1.0"
*MEAS_SCAN_SPEED_UNIT "deg/min"
*MEAS_SCAN_START "20.0000000000"
*MEAS_SCAN_START_TIME "07/14/21 11:36:23"
*MEAS_SCAN_STEP "0.0100000000"
*MEAS_SCAN_STOP "70.0000000000"
*MEAS_SCAN_UNIT_X "deg"
*MEAS_SCAN_UNIT_Y "counts"
*RAS_HEADER_END
*RAS_INT_START
20.0000 1578.0000 1.0000
20.0100 1565.0000 1.0000
20.0200 1557.0000 1.0000
20.0300 1577.0000 1.0000
20.0400 1541.0000 1.0000
20.0500 1567.0000 1.0000
20.0600 1593.0000 1.0000
20.0700 1597.0000 1.0000
20.0800 1568.0000 1.0000
20.0900 1598.0000 1.0000
20.1000 1559.0000 1.0000
20.1100 1501.0000 1.0000
20.1200 1545.0000 1.0000
20.1300 1577.0000 1.0000
20.1400 1566.0000 1.0000
20.1500 1489.0000 1.0000
20.1600 1569.0000 1.0000
20.1700 1588.0000 1.0000
20.1800 1486.0000 1.0000
20.1900 1570.0000 1.0000
20.2000 1515.0000 1.0000
20.2100 1597.0000 1.0000
20.2200 1595.0000 1.0000
20.2300 1518.0000 1.0000
20.2400 1562.0000 1.0000
20.2500 1586.0000 1.0000
20.2600 1531.0000 1.0000
20.2700 1540.0000 1.0000
20.2800 1535.0000 1.0000
20.2900 1584.0000 1.0000
20.3000 1545.0000 1.0000
20.3100 1567.0000 1.0000
20.3200 1590.0000 1.0000
20.3300 1553.0000 1.0000
20.3400 1570.0000 1.0000
20.3500 1531.0000 1.0000
20.3600 1594.0000 1.0000
20.3700 1597.0000 1.0000
20.3800 1536.0000 1.0000
20.3900 1561.0000 1.0000
20.4000 1625.0000 1.0000
20.4100 1646.0000 1.0000
20.4200 1568.0000 1.0000
20.4300 1627.0000 1.0000
20.4400 1506.0000 1.0000
20.4500 1610.0000 1.0000
20.4600 1548.0000 1.0000
20.4700 1584.0000 1.0000
20.4800 1554.0000 1.0000
20.4900 1585.0000 1.0000
20.5000 1577.0000 1.0000
20.5100 1612.0000 1.0000
20.5200 1562.0000 1.0000
20.5300 1542.0000 1.0000
20.5400 1588.0000 1.0000
20.5500 1588.0000 1.0000
20.5600 1575.0000 1.0000
20.5700 1527.0000 1.0000
20.5800 1535.0000 1.0000
20.5900 1618.0000 1.0000
20.6000 1530.0000 1.0000
20.6100 1569.0000 1.0000
20.6200 1632.0000 1.0000
20.6300 1580.0000 1.0000
20.6400 1552.0000 1.0000
20.6500 1626.0000 1.0000
20.6600 1623.0000 1.0000
20.6700 1559.0000 1.0000
20.6800 1552.0000 1.0000
20.6900 1549.0000 1.0000
20.7000 1565.0000 1.0000
20.7100 1590.0000 1.0000
20.7200 1595.0000 1.0000
20.7300 1556.0000 1.0000
20.7400 1561.0000 1.0000
20.7500 1572.0000 1.0000
20.7600 1563.0000 1.0000
20.7700 1592.0000 1.0000
20.7800 1580.0000 1.0000
20.7900 1582.0000 1.0000
20.8000 1599.0000 1.0000
20.8100 1638.0000 1.0000
20.8200 1500.0000 1.0000
20.8300 1527.0000 1.0000
20.8400 1618.0000 1.0000
20.8500 1533.0000 1.0000
20.8600 1559.0000 1.0000
20.8700 1532.0000 1.0000
20.8800 1521.0000 1.0000
20.8900 1524.0000 1.0000
20.9000 1551.0000 1.0000
20.9100 1545.0000 1.0000
20.9200 1539.0000 1.0000
20.9300 1640.0000 1.0000
20.9400 1594.0000 1.0000
20.9500 1584.0000 1.0000
20.9600 1554.0000 1.0000
20.9700 1520.0000 1.0000
20.9800 1590.0000 1.0000
20.9900 1525.0000 1.0000
21.0000 1562.0000 1.0000
21.0100 1553.0000 1.0000
21.0200 1592.0000 1.0000
21.0300 1586.0000 1.0000
21.0400 1547.0000 1.0000
21.0500 1553.0000 1.0000
21.0600 1524.0000 1.0000
21.0700 1552.0000 1.0000
21.0800 1487.0000 1.0000
21.0900 1566.0000 1.0000
21.1000 1587.0000 1.0000
21.1100 1533.0000 1.0000
21.1200 1569.0000 1.0000
21.1300 1573.0000 1.0000
21.1400 1588.0000 1.0000
21.1500 1556.0000 1.0000
21.1600 1529.0000 1.0000
21.1700 1570.0000 1.0000
21.1800 1510.0000 1.0000
21.1900 1503.0000 1.0000
21.2000 1527.0000 1.0000
21.2100 1511.0000 1.0000
21.2200 1595.0000 1.0000
21.2300 1496.0000 1.0000
21.2400 1530.0000 1.0000
21.2500 1599.0000 1.0000
21.2600 1528.0000 1.0000
21.2700 1565.0000 1.0000
21.2800 1542.0000 1.0000
21.2900 1523.0000 1.0000
21.3000 1530.0000 1.0000
21.3100 1597.0000 1.0000
21.3200 1603.0000 1.0000
21.3300 1608.0000 1.0000
21.3400 1558.0000 1.0000
21.3500 1534.0000 1.0000
21.3600 1541.0000 1.0000
21.3700 1607.0000 1.0000
21.3800 1530.0000 1.0000
21.3900 1598.0000 1.0000
21.4000 1582.0000 1.0000
21.4100 1580.0000 1.0000
21.4200 1534.0000 1.0000
21.4300 1537.0000 1.0000
21.4400 1551.0000 1.0000
21.4500 1587.0000 1.0000
21.4600 1574.0000 1.0000
21.4700 1625.0000 1.0000
21.4800 1501.0000 1.0000
21.4900 1558.0000 1.0000
21.5000 1474.0000 1.0000
21.5100 1536.0000 1.0000
21.5200 1567.0000 1.0000
21.5300 1558.0000 1.0000
21.5400 1575.0000 1.0000
21.5500 1593.0000 1.0000
21.5600 1609.0000 1.0000
21.5700 1618.0000 1.0000
21.5800 1637.0000 1.0000
21.5900 1658.0000 1.0000
21.6000 1541.0000 1.0000
21.6100 1596.0000 1.0000
21.6200 1566.0000 1.0000
21.6300 1564.0000 1.0000
21.6400 1539.0000 1.0000
21.6500 1517.0000 1.0000
21.6600 1516.0000 1.0000
21.6700 1513.0000 1.0000
21.6800 1543.0000 1.0000
21.6900 1524.0000 1.0000
21.7000 1525.0000 1.0000
21.7100 1553.0000 1.0000
21.7200 1569.0000 1.0000
21.7300 1535.0000 1.0000
21.7400 1592.0000 1.0000
21.7500 1630.0000 1.0000
21.7600 1532.0000 1.0000
21.7700 1584.0000 1.0000
21.7800 1602.0000 1.0000
21.7900 1520.0000 1.0000
21.8000 1612.0000 1.0000
21.8100 1559.0000 1.0000
21.8200 1591.0000 1.0000
21.8300 1524.0000 1.0000
21.8400 1625.0000 1.0000
21.8500 1497.0000 1.0000
21.8600 1558.0000 1.0000
21.8700 1606.0000 1.0000
21.8800 1577.0000 1.0000
21.8900 1566.0000 1.0000
21.9000 1554.0000 1.0000
21.9100 1581.0000 1.0000
21.9200 1581.0000 1.0000
21.9300 1570.0000 1.0000
21.9400 1541.0000 1.0000
21.9500 1541.0000 1.0000
21.9600 1611.0000 1.0000
21.9700 1531.0000 1.0000
21.9800 1543.0000 1.0000
21.9900 1519.0000 1.0000
22.0000 1536.0000 1.0000
22.0100 1533.0000 1.0000
22.0200 1561.0000 1.0000
22.0300 1553.0000 1.0000
22.0400 1622.0000 1.0000
22.0500 1548.0000 1.0000
22.0600 1554.0000 1.0000
22.0700 1596.0000 1.0000
22.0800 1586.0000 1.0000
22.0900 1514.0000 1.0000
22.1000 1543.0000 1.0000
22.1100 1575.0000 1.0000
22.1200 1573.0000 1.0000
22.1300 1567.0000 1.0000
22.1400 1550.0000 1.0000
22.1500 1580.0000 1.0000
22.1600 1569.0000 1.0000
22.1700 1593.0000 1.0000
22.1800 1585.0000 1.0000
22.1900 1565.0000 1.0000
22.2000 1525.0000 1.0000
22.2100 1559.0000 1.0000
22.2200 1599.0000 1.0000
22.2300 1552.0000 1.0000
22.2400 1566.0000 1.0000
22.2500 1624.0000 1.0000
22.2600 1527.0000 1.0000
22.2700 1624.0000 1.0000
22.2800 1649.0000 1.0000
22.2900 1550.0000 1.0000
22.3000 1598.0000 1.0000
22.3100 1611.0000 1.0000
22.3200 1529.0000 1.0000
22.3300 1586.0000 1.0000
22.3400 1609.0000 1.0000
22.3500 1613.0000 1.0000
22.3600 1619.0000 1.0000
22.3700 1566.0000 1.0000
22.3800 1634.0000 1.0000
22.3900 1549.0000 1.0000
22.4000 1605.0000 1.0000
22.4100 1551.0000 1.0000
22.4200 1569.0000 1.0000
22.4300 1546.0000 1.0000
22.4400 1545.0000 1.0000
22.4500 1594.0000 1.0000
22.4600 1611.0000 1.0000
22.4700 1587.0000 1.0000
22.4800 1554.0000 1.0000
22.4900 1572.0000 1.0000
22.5000 1602.0000 1.0000
22.5100 1538.0000 1.0000
22.5200 1561.0000 1.0000
22.5300 1609.0000 1.0000
22.5400 1565.0000 1.0000
22.5500 1509.0000 1.0000
22.5600 1544.0000 1.0000
22.5700 1598.0000 1.0000
22.5800 1563.0000 1.0000
22.5900 1610.0000 1.0000
22.6000 1603.0000 1.0000
22.6100 1593.0000 1.0000
22.6200 1616.0000 1.0000
22.6300 1508.0000 1.0000
22.6400 1578.0000 1.0000
22.6500 1597.0000 1.0000
22.6600 1582.0000 1.0000
22.6700 1558.0000 1.0000
22.6800 1622.0000 1.0000
22.6900 1582.0000 1.0000
22.7000 1515.0000 1.0000
22.7100 1587.0000 1.0000
22.7200 1621.0000 1.0000
22.7300 1612.0000 1.0000
22.7400 1576.0000 1.0000
22.7500 1545.0000 1.0000
22.7600 1614.0000 1.0000
22.7700 1563.0000 1.0000
22.7800 1547.0000 1.0000
22.7900 1557.0000 1.0000
22.8000 1616.0000 1.0000
22.8100 1569.0000 1.0000
22.8200 1583.0000 1.0000
22.8300 1608.0000 1.0000
22.8400 1594.0000 1.0000
22.8500 1625.0000 1.0000
22.8600 1576.0000 1.0000
22.8700 1629.0000 1.0000
22.8800 1547.0000 1.0000
22.8900 1529.0000 1.0000
22.9000 1572.0000 1.0000
22.9100 1545.0000 1.0000
22.9200 1565.0000 1.0000
22.9300 1611.0000 1.0000
22.9400 1642.0000 1.0000
22.9500 1643.0000 1.0000
22.9600 1552.0000 1.0000
22.9700 1583.0000 1.0000
22.9800 1616.0000 1.0000
22.9900 1577.0000 1.0000
23.0000 1631.0000 1.0000
23.0100 1632.0000 1.0000
23.0200 1626.0000 1.0000
23.0300 1643.0000 1.0000
23.0400 1541.0000 1.0000
23.0500 1622.0000 1.0000
23.0600 1617.0000 1.0000
23.0700 1655.0000 1.0000
23.0800 1579.0000 1.0000
23.0900 1589.0000 1.0000
23.1000 1568.0000 1.0000
23.1100 1593.0000 1.0000
23.1200 1622.0000 1.0000
23.1300 1637.0000 1.0000
23.1400 1552.0000 1.0000
23.1500 1594.0000 1.0000
23.1600 1567.0000 1.0000
23.1700 1618.0000 1.0000
23.1800 1575.0000 1.0000
23.1900 1573.0000 1.0000
23.2000 1633.0000 1.0000
23.2100 1591.0000 1.0000
23.2200 1570.0000 1.0000
23.2300 1620.0000 1.0000
23.2400 1590.0000 1.0000
23.2500 1597.0000 1.0000
23.2600 1575.0000 1.0000
23.2700 1577.0000 1.0000
23.2800 1593.0000 1.0000
23.2900 1624.0000 1.0000
23.3000 1522.0000 1.0000
23.3100 1588.0000 1.0000
23.3200 1591.0000 1.0000
23.3300 1557.0000 1.0000
23.3400 1584.0000 1.0000
23.3500 1577.0000 1.0000
23.3600 1542.0000 1.0000
23.3700 1639.0000 1.0000
23.3800 1623.0000 1.0000
23.3900 1611.0000 1.0000
23.4000 1590.0000 1.0000
23.4100 1551.0000 1.0000
23.4200 1616.0000 1.0000
23.4300 1600.0000 1.0000
23.4400 1574.0000 1.0000
23.4500 1591.0000 1.0000
23.4600 1577.0000 1.0000
23.4700 1582.0000 1.0000
23.4800 1677.0000 1.0000
23.4900 1629.0000 1.0000
23.5000 1628.0000 1.0000
23.5100 1612.0000 1.0000
23.5200 1623.0000 1.0000
23.5300 1586.0000 1.0000
23.5400 1654.0000 1.0000
23.5500 1601.0000 1.0000
23.5600 1628.0000 1.0000
23.5700 1621.0000 1.0000
23.5800 1633.0000 1.0000
23.5900 1646.0000 1.0000
23.6000 1645.0000 1.0000
23.6100 1588.0000 1.0000
23.6200 1580.0000 1.0000
23.6300 1635.0000 1.0000
23.6400 1569.0000 1.0000
23.6500 1606.0000 1.0000
23.6600 1614.0000 1.0000
23.6700 1593.0000 1.0000
23.6800 1678.0000 1.0000
23.6900 1596.0000 1.0000
23.7000 1618.0000 1.0000
23.7100 1640.0000 1.0000
23.7200 1658.0000 1.0000
23.7300 1650.0000 1.0000
23.7400 1591.0000 1.0000
23.7500 1638.0000 1.0000
23.7600 1607.0000 1.0000
23.7700 1613.0000 1.0000
23.7800 1585.0000 1.0000
23.7900 1569.0000 1.0000
23.8000 1600.0000 1.0000
23.8100 1582.0000 1.0000
23.8200 1635.0000 1.0000
23.8300 1624.0000 1.0000
23.8400 1592.0000 1.0000
23.8500 1654.0000 1.0000
23.8600 1645.0000 1.0000
23.8700 1550.0000 1.0000
23.8800 1568.0000 1.0000
23.8900 1633.0000 1.0000
23.9000 1559.0000 1.0000
23.9100 1592.0000 1.0000
23.9200 1661.0000 1.0000
23.9300 1602.0000 1.0000
23.9400 1687.0000 1.0000
23.9500 1655.0000 1.0000
23.9600 1594.0000 1.0000
23.9700 1595.0000 1.0000
23.9800 1656.0000 1.0000
23.9900 1648.0000 1.0000
24.0000 1639.0000 1.0000
24.0100 1580.0000 1.0000
24.0200 1594.0000 1.0000
24.0300 1599.0000 1.0000
24.0400 1613.0000 1.0000
24.0500 1612.0000 1.0000
24.0600 1606.0000 1.0000
24.0700 1631.0000 1.0000
24.0800 1644.0000 1.0000
24.0900 1629.0000 1.0000
24.1000 1616.0000 1.0000
24.1100 1625.0000 1.0000
24.1200 1608.0000 1.0000
24.1300 1647.0000 1.0000
24.1400 1604.0000 1.0000
24.1500 1644.0000 1.0000
24.1600 1632.0000 1.0000
24.1700 1607.0000 1.0000
24.1800 1618.0000 1.0000
24.1900 1609.0000 1.0000
24.2000 1645.0000 1.0000
24.2100 1645.0000 1.0000
24.2200 1593.0000 1.0000
24.2300 1657.0000 1.0000
24.2400 1598.0000 1.0000
24.2500 1591.0000 1.0000
24.2600 1576.0000 1.0000
24.2700 1631.0000 1.0000
24.2800 1612.0000 1.0000
24.2900 1614.0000 1.0000
24.3000 1645.0000 1.0000
24.3100 1590.0000 1.0000
24.3200 1598.0000 1.0000
24.3300 1587.0000 1.0000
24.3400 1560.0000 1.0000
24.3500 1601.0000 1.0000
24.3600 1583.0000 1.0000
24.3700 1641.0000 1.0000
24.3800 1571.0000 1.0000
24.3900 1619.0000 1.0000
24.4000 1563.0000 1.0000
24.4100 1602.0000 1.0000
24.4200 1580.0000 1.0000
24.4300 1547.0000 1.0000
24.4400 1646.0000 1.0000
24.4500 1640.0000 1.0000
24.4600 1676.0000 1.0000
24.4700 1628.0000 1.0000
24.4800 1672.0000 1.0000
24.4900 1631.0000 1.0000
24.5000 1628.0000 1.0000
24.5100 1652.0000 1.0000
24.5200 1623.0000 1.0000
24.5300 1583.0000 1.0000
24.5400 1575.0000 1.0000
24.5500 1620.0000 1.0000
24.5600 1606.0000 1.0000
24.5700 1584.0000 1.0000
24.5800 1681.0000 1.0000
24.5900 1648.0000 1.0000
24.6000 1636.0000 1.0000
24.6100 1681.0000 1.0000
24.6200 1635.0000 1.0000
24.6300 1580.0000 1.0000
24.6400 1627.0000 1.0000
24.6500 1579.0000 1.0000
24.6600 1684.0000 1.0000
24.6700 1643.0000 1.0000
24.6800 1657.0000 1.0000
24.6900 1695.0000 1.0000
24.7000 1687.0000 1.0000
24.7100 1724.0000 1.0000
24.7200 1651.0000 1.0000
24.7300 1701.0000 1.0000
24.7400 1603.0000 1.0000
24.7500 1597.0000 1.0000
24.7600 1662.0000 1.0000
24.7700 1641.0000 1.0000
24.7800 1630.0000 1.0000
24.7900 1660.0000 1.0000
24.8000 1689.0000 1.0000
24.8100 1654.0000 1.0000
24.8200 1725.0000 1.0000
24.8300 1635.0000 1.0000
24.8400 1652.0000 1.0000
24.8500 1663.0000 1.0000
24.8600 1703.0000 1.0000
24.8700 1699.0000 1.0000
24.8800 1628.0000 1.0000
24.8900 1655.0000 1.0000
24.9000 1666.0000 1.0000
24.9100 1620.0000 1.0000
24.9200 1696.0000 1.0000
24.9300 1733.0000 1.0000
24.9400 1658.0000 1.0000
24.9500 1671.0000 1.0000
24.9600 1662.0000 1.0000
24.9700 1681.0000 1.0000
24.9800 1630.0000 1.0000
24.9900 1698.0000 1.0000
25.0000 1702.0000 1.0000
25.0100 1737.0000 1.0000
25.0200 1722.0000 1.0000
25.0300 1693.0000 1.0000
25.0400 1685.0000 1.0000
25.0500 1608.0000 1.0000
25.0600 1637.0000 1.0000
25.0700 1604.0000 1.0000
25.0800 1632.0000 1.0000
25.0900 1702.0000 1.0000
25.1000 1652.0000 1.0000
25.1100 1660.0000 1.0000
25.1200 1743.0000 1.0000
25.1300 1667.0000 1.0000
25.1400 1681.0000 1.0000
25.1500 1646.0000 1.0000
25.1600 1687.0000 1.0000
25.1700 1712.0000 1.0000
25.1800 1652.0000 1.0000
25.1900 1627.0000 1.0000
25.2000 1697.0000 1.0000
25.2100 1719.0000 1.0000
25.2200 1701.0000 1.0000
25.2300 1704.0000 1.0000
25.2400 1663.0000 1.0000
25.2500 1691.0000 1.0000
25.2600 1638.0000 1.0000
25.2700 1700.0000 1.0000
25.2800 1659.0000 1.0000
25.2900 1694.0000 1.0000
25.3000 1657.0000 1.0000
25.3100 1658.0000 1.0000
25.3200 1683.0000 1.0000
25.3300 1653.0000 1.0000
25.3400 1648.0000 1.0000
25.3500 1638.0000 1.0000
25.3600 1658.0000 1.0000
25.3700 1654.0000 1.0000
25.3800 1635.0000 1.0000
25.3900 1719.0000 1.0000
25.4000 1665.0000 1.0000
25.4100 1698.0000 1.0000
25.4200 1660.0000 1.0000
25.4300 1676.0000 1.0000
25.4400 1648.0000 1.0000
25.4500 1674.0000 1.0000
25.4600 1718.0000 1.0000
25.4700 1600.0000 1.0000
25.4800 1660.0000 1.0000
25.4900 1600.0000 1.0000
25.5000 1632.0000 1.0000
25.5100 1659.0000 1.0000
25.5200 1631.0000 1.0000
25.5300 1710.0000 1.0000
25.5400 1631.0000 1.0000
25.5500 1576.0000 1.0000
25.5600 1595.0000 1.0000
25.5700 1619.0000 1.0000
25.5800 1624.0000 1.0000
25.5900 1640.0000 1.0000
25.6000 1732.0000 1.0000
25.6100 1675.0000 1.0000
25.6200 1646.0000 1.0000
25.6300 1623.0000 1.0000
25.6400 1688.0000 1.0000
25.6500 1653.0000 1.0000
25.6600 1661.0000 1.0000
25.6700 1694.0000 1.0000
25.6800 1700.0000 1.0000
25.6900 1679.0000 1.0000
25.7000 1693.0000 1.0000
25.7100 1690.0000 1.0000
25.7200 1737.0000 1.0000
25.7300 1739.0000 1.0000
25.7400 1637.0000 1.0000
25.7500 1692.0000 1.0000
25.7600 1656.0000 1.0000
25.7700 1682.0000 1.0000
25.7800 1687.0000 1.0000
25.7900 1645.0000 1.0000
25.8000 1609.0000 1.0000
25.8100 1616.0000 1.0000
25.8200 1656.0000 1.0000
25.8300 1683.0000 1.0000
25.8400 1611.0000 1.0000
25.8500 1689.0000 1.0000
25.8600 1690.0000 1.0000
25.8700 1616.0000 1.0000
25.8800 1605.0000 1.0000
25.8900 1671.0000 1.0000
25.9000 1647.0000 1.0000
25.9100 1703.0000 1.0000
25.9200 1627.0000 1.0000
25.9300 1648.0000 1.0000
25.9400 1677.0000 1.0000
25.9500 1679.0000 1.0000
25.9600 1649.0000 1.0000
25.9700 1636.0000 1.0000
25.9800 1716.0000 1.0000
25.9900 1691.0000 1.0000
26.0000 1663.0000 1.0000
26.0100 1668.0000 1.0000
26.0200 1688.0000 1.0000
26.0300 1631.0000 1.0000
26.0400 1663.0000 1.0000
26.0500 1644.0000 1.0000
26.0600 1678.0000 1.0000
26.0700 1690.0000 1.0000
26.0800 1582.0000 1.0000
26.0900 1650.0000 1.0000
26.1000 1696.0000 1.0000
26.1100 1785.0000 1.0000
26.1200 1699.0000 1.0000
26.1300 1700.0000 1.0000
26.1400 1661.0000 1.0000
26.1500 1641.0000 1.0000
26.1600 1630.0000 1.0000
26.1700 1616.0000 1.0000
26.1800 1652.0000 1.0000
26.1900 1671.0000 1.0000
26.2000 1709.0000 1.0000
26.2100 1701.0000 1.0000
26.2200 1639.0000 1.0000
26.2300 1678.0000 1.0000
26.2400 1711.0000 1.0000
26.2500 1686.0000 1.0000
26.2600 1725.0000 1.0000
26.2700 1647.0000 1.0000
26.2800 1635.0000 1.0000
26.2900 1712.0000 1.0000
26.3000 1761.0000 1.0000
26.3100 1701.0000 1.0000
26.3200 1727.0000 1.0000
26.3300 1709.0000 1.0000
26.3400 1785.0000 1.0000
26.3500 1703.0000 1.0000
26.3600 1678.0000 1.0000
26.3700 1695.0000 1.0000
26.3800 1665.0000 1.0000
26.3900 1767.0000 1.0000
26.4000 1703.0000 1.0000
26.4100 1697.0000 1.0000
26.4200 1733.0000 1.0000
26.4300 1708.0000 1.0000
26.4400 1751.0000 1.0000
26.4500 1755.0000 1.0000
26.4600 1753.0000 1.0000
26.4700 1794.0000 1.0000
26.4800 1710.0000 1.0000
26.4900 1724.0000 1.0000
26.5000 1758.0000 1.0000
26.5100 1712.0000 1.0000
26.5200 1763.0000 1.0000
26.5300 1753.0000 1.0000
26.5400 1816.0000 1.0000
26.5500 1757.0000 1.0000
26.5600 1710.0000 1.0000
26.5700 1788.0000 1.0000
26.5800 1735.0000 1.0000
26.5900 1831.0000 1.0000
26.6000 1767.0000 1.0000
26.6100 1781.0000 1.0000
26.6200 1742.0000 1.0000
26.6300 1793.0000 1.0000
26.6400 1739.0000 1.0000
26.6500 1764.0000 1.0000
26.6600 1780.0000 1.0000
26.6700 1755.0000 1.0000
26.6800 1799.0000 1.0000
26.6900 1827.0000 1.0000
26.7000 1765.0000 1.0000
26.7100 1748.0000 1.0000
26.7200 1707.0000 1.0000
26.7300 1819.0000 1.0000
26.7400 1909.0000 1.0000
26.7500 1809.0000 1.0000
26.7600 1817.0000 1.0000
26.7700 1785.0000 1.0000
26.7800 1863.0000 1.0000
26.7900 1890.0000 1.0000
26.8000 1840.0000 1.0000
26.8100 1798.0000 1.0000
26.8200 1838.0000 1.0000
26.8300 1875.0000 1.0000
26.8400 1943.0000 1.0000
26.8500 1893.0000 1.0000
26.8600 1967.0000 1.0000
26.8700 2052.0000 1.0000
26.8800 1988.0000 1.0000
26.8900 1981.0000 1.0000
26.9000 2001.0000 1.0000
26.9100 2000.0000 1.0000
26.9200 2028.0000 1.0000
26.9300 2039.0000 1.0000
26.9400 2144.0000 1.0000
26.9500 2142.0000 1.0000
26.9600 2151.0000 1.0000
26.9700 2134.0000 1.0000
26.9800 2272.0000 1.0000
26.9900 2266.0000 1.0000
27.0000 2293.0000 1.0000
27.0100 2419.0000 1.0000
27.0200 2403.0000 1.0000
27.0300 2471.0000 1.0000
27.0400 2505.0000 1.0000
27.0500 2605.0000 1.0000
27.0600 2656.0000 1.0000
27.0700 2667.0000 1.0000
27.0800 2786.0000 1.0000
27.0900 2956.0000 1.0000
27.1000 2983.0000 1.0000
27.1100 3199.0000 1.0000
27.1200 3284.0000 1.0000
27.1300 3422.0000 1.0000
27.1400 3537.0000 1.0000
27.1500 3680.0000 1.0000
27.1600 3892.0000 1.0000
27.1700 4072.0000 1.0000
27.1800 4289.0000 1.0000
27.1900 4501.0000 1.0000
27.2000 4702.0000 1.0000
27.2100 5010.0000 1.0000
27.2200 5223.0000 1.0000
27.2300 5439.0000 1.0000
27.2400 5657.0000 1.0000
27.2500 5921.0000 1.0000
27.2600 6140.0000 1.0000
27.2700 6084.0000 1.0000
27.2800 6227.0000 1.0000
27.2900 6339.0000 1.0000
27.3000 6350.0000 1.0000
27.3100 6329.0000 1.0000
27.3200 6028.0000 1.0000
27.3300 5882.0000 1.0000
27.3400 5750.0000 1.0000
27.3500 5437.0000 1.0000
27.3600 5298.0000 1.0000
27.3700 5062.0000 1.0000
27.3800 4818.0000 1.0000
27.3900 4508.0000 1.0000
27.4000 4352.0000 1.0000
27.4100 4114.0000 1.0000
27.4200 3948.0000 1.0000
27.4300 3667.0000 1.0000
27.4400 3605.0000 1.0000
27.4500 3351.0000 1.0000
27.4600 3171.0000 1.0000
27.4700 3117.0000 1.0000
27.4800 2911.0000 1.0000
27.4900 2934.0000 1.0000
27.5000 2804.0000 1.0000
27.5100 2751.0000 1.0000
27.5200 2619.0000 1.0000
27.5300 2511.0000 1.0000
27.5400 2450.0000 1.0000
27.5500 2357.0000 1.0000
27.5600 2394.0000 1.0000
27.5700 2336.0000 1.0000
27.5800 2259.0000 1.0000
27.5900 2280.0000 1.0000
27.6000 2216.0000 1.0000
27.6100 2184.0000 1.0000
27.6200 2151.0000 1.0000
27.6300 2071.0000 1.0000
27.6400 2063.0000 1.0000
27.6500 2053.0000 1.0000
27.6600 2059.0000 1.0000
27.6700 1971.0000 1.0000
27.6800 1955.0000 1.0000
27.6900 1935.0000 1.0000
27.7000 1932.0000 1.0000
27.7100 1908.0000 1.0000
27.7200 1979.0000 1.0000
27.7300 1972.0000 1.0000
27.7400 1905.0000 1.0000
27.7500 1846.0000 1.0000
27.7600 1809.0000 1.0000
27.7700 1841.0000 1.0000
27.7800 1904.0000 1.0000
27.7900 1899.0000 1.0000
27.8000 1867.0000 1.0000
27.8100 1825.0000 1.0000
27.8200 1827.0000 1.0000
27.8300 1880.0000 1.0000
27.8400 1751.0000 1.0000
27.8500 1820.0000 1.0000
27.8600 1795.0000 1.0000
27.8700 1723.0000 1.0000
27.8800 1805.0000 1.0000
27.8900 1845.0000 1.0000
27.9000 1788.0000 1.0000
27.9100 1790.0000 1.0000
27.9200 1735.0000 1.0000
27.9300 1778.0000 1.0000
27.9400 1782.0000 1.0000
27.9500 1720.0000 1.0000
27.9600 1707.0000 1.0000
27.9700 1735.0000 1.0000
27.9800 1717.0000 1.0000
27.9900 1717.0000 1.0000
28.0000 1738.0000 1.0000
28.0100 1750.0000 1.0000
28.0200 1674.0000 1.0000
28.0300 1668.0000 1.0000
28.0400 1729.0000 1.0000
28.0500 1730.0000 1.0000
28.0600 1704.0000 1.0000
28.0700 1693.0000 1.0000
28.0800 1606.0000 1.0000
28.0900 1690.0000 1.0000
28.1000 1746.0000 1.0000
28.1100 1738.0000 1.0000
28.1200 1687.0000 1.0000
28.1300 1725.0000 1.0000
28.1400 1660.0000 1.0000
28.1500 1664.0000 1.0000
28.1600 1599.0000 1.0000
28.1700 1655.0000 1.0000
28.1800 1653.0000 1.0000
28.1900 1602.0000 1.0000
28.2000 1698.0000 1.0000
28.2100 1646.0000 1.0000
28.2200 1666.0000 1.0000
28.2300 1636.0000 1.0000
28.2400 1706.0000 1.0000
28.2500 1694.0000 1.0000
28.2600 1708.0000 1.0000
28.2700 1689.0000 1.0000
28.2800 1656.0000 1.0000
28.2900 1604.0000 1.0000
28.3000 1666.0000 1.0000
28.3100 1646.0000 1.0000
28.3200 1658.0000 1.0000
28.3300 1612.0000 1.0000
28.3400 1627.0000 1.0000
28.3500 1625.0000 1.0000
28.3600 1631.0000 1.0000
28.3700 1654.0000 1.0000
28.3800 1678.0000 1.0000
28.3900 1607.0000 1.0000
28.4000 1615.0000 1.0000
28.4100 1654.0000 1.0000
28.4200 1645.0000 1.0000
28.4300 1675.0000 1.0000
28.4400 1598.0000 1.0000
28.4500 1663.0000 1.0000
28.4600 1625.0000 1.0000
28.4700 1518.0000 1.0000
28.4800 1596.0000 1.0000
28.4900 1631.0000 1.0000
28.5000 1617.0000 1.0000
28.5100 1664.0000 1.0000
28.5200 1603.0000 1.0000
28.5300 1600.0000 1.0000
28.5400 1611.0000 1.0000
28.5500 1582.0000 1.0000
28.5600 1665.0000 1.0000
28.5700 1651.0000 1.0000
28.5800 1613.0000 1.0000
28.5900 1639.0000 1.0000
28.6000 1581.0000 1.0000
28.6100 1597.0000 1.0000
28.6200 1604.0000 1.0000
28.6300 1656.0000 1.0000
28.6400 1608.0000 1.0000
28.6500 1645.0000 1.0000
28.6600 1658.0000 1.0000
28.6700 1665.0000 1.0000
28.6800 1621.0000 1.0000
28.6900 1632.0000 1.0000
28.7000 1612.0000 1.0000
28.7100 1608.0000 1.0000
28.7200 1601.0000 1.0000
28.7300 1655.0000 1.0000
28.7400 1550.0000 1.0000
28.7500 1607.0000 1.0000
28.7600 1624.0000 1.0000
28.7700 1638.0000 1.0000
28.7800 1571.0000 1.0000
28.7900 1653.0000 1.0000
28.8000 1629.0000 1.0000
28.8100 1635.0000 1.0000
28.8200 1589.0000 1.0000
28.8300 1613.0000 1.0000
28.8400 1572.0000 1.0000
28.8500 1610.0000 1.0000
28.8600 1609.0000 1.0000
28.8700 1642.0000 1.0000
28.8800 1592.0000 1.0000
28.8900 1596.0000 1.0000
28.9000 1594.0000 1.0000
28.9100 1518.0000 1.0000
28.9200 1621.0000 1.0000
28.9300 1636.0000 1.0000
28.9400 1591.0000 1.0000
28.9500 1536.0000 1.0000
28.9600 1562.0000 1.0000
28.9700 1558.0000 1.0000
28.9800 1516.0000 1.0000
28.9900 1559.0000 1.0000
29.0000 1522.0000 1.0000
29.0100 1593.0000 1.0000
29.0200 1624.0000 1.0000
29.0300 1542.0000 1.0000
29.0400 1581.0000 1.0000
29.0500 1532.0000 1.0000
29.0600 1509.0000 1.0000
29.0700 1611.0000 1.0000
29.0800 1570.0000 1.0000
29.0900 1575.0000 1.0000
29.1000 1597.0000 1.0000
29.1100 1579.0000 1.0000
29.1200 1571.0000 1.0000
29.1300 1487.0000 1.0000
29.1400 1580.0000 1.0000
29.1500 1621.0000 1.0000
29.1600 1557.0000 1.0000
29.1700 1528.0000 1.0000
29.1800 1581.0000 1.0000
29.1900 1561.0000 1.0000
29.2000 1580.0000 1.0000
29.2100 1635.0000 1.0000
29.2200 1550.0000 1.0000
29.2300 1536.0000 1.0000
29.2400 1661.0000 1.0000
29.2500 1594.0000 1.0000
29.2600 1547.0000 1.0000
29.2700 1540.0000 1.0000
29.2800 1589.0000 1.0000
29.2900 1565.0000 1.0000
29.3000 1583.0000 1.0000
29.3100 1553.0000 1.0000
29.3200 1578.0000 1.0000
29.3300 1520.0000 1.0000
29.3400 1521.0000 1.0000
29.3500 1550.0000 1.0000
29.3600 1502.0000 1.0000
29.3700 1523.0000 1.0000
29.3800 1555.0000 1.0000
29.3900 1540.0000 1.0000
29.4000 1599.0000 1.0000
29.4100 1585.0000 1.0000
29.4200 1521.0000 1.0000
29.4300 1604.0000 1.0000
29.4400 1507.0000 1.0000
29.4500 1527.0000 1.0000
29.4600 1580.0000 1.0000
29.4700 1533.0000 1.0000
29.4800 1602.0000 1.0000
29.4900 1533.0000 1.0000
29.5000 1571.0000 1.0000
29.5100 1582.0000 1.0000
29.5200 1635.0000 1.0000
29.5300 1582.0000 1.0000
29.5400 1516.0000 1.0000
29.5500 1480.0000 1.0000
29.5600 1580.0000 1.0000
29.5700 1557.0000 1.0000
29.5800 1532.0000 1.0000
29.5900 1517.0000 1.0000
29.6000 1566.0000 1.0000
29.6100 1613.0000 1.0000
29.6200 1532.0000 1.0000
29.6300 1505.0000 1.0000
29.6400 1552.0000 1.0000
29.6500 1510.0000 1.0000
29.6600 1597.0000 1.0000
29.6700 1527.0000 1.0000
29.6800 1599.0000 1.0000
29.6900 1524.0000 1.0000
29.7000 1517.0000 1.0000
29.7100 1534.0000 1.0000
29.7200 1492.0000 1.0000
29.7300 1557.0000 1.0000
29.7400 1609.0000 1.0000
29.7500 1526.0000 1.0000
29.7600 1576.0000 1.0000
29.7700 1600.0000 1.0000
29.7800 1598.0000 1.0000
29.7900 1562.0000 1.0000
29.8000 1522.0000 1.0000
29.8100 1587.0000 1.0000
29.8200 1539.0000 1.0000
29.8300 1575.0000 1.0000
29.8400 1566.0000 1.0000
29.8500 1473.0000 1.0000
29.8600 1518.0000 1.0000
29.8700 1577.0000 1.0000
29.8800 1545.0000 1.0000
29.8900 1528.0000 1.0000
29.9000 1545.0000 1.0000
29.9100 1576.0000 1.0000
29.9200 1564.0000 1.0000
29.9300 1570.0000 1.0000
29.9400 1523.0000 1.0000
29.9500 1535.0000 1.0000
29.9600 1497.0000 1.0000
29.9700 1537.0000 1.0000
29.9800 1531.0000 1.0000
29.9900 1385.0000 1.0000
30.0000 1481.0000 1.0000
30.0100 1548.0000 1.0000
30.0200 1545.0000 1.0000
30.0300 1582.0000 1.0000
30.0400 1522.0000 1.0000
30.0500 1492.0000 1.0000
30.0600 1514.0000 1.0000
30.0700 1589.0000 1.0000
30.0800 1575.0000 1.0000
30.0900 1472.0000 1.0000
30.1000 1466.0000 1.0000
30.1100 1465.0000 1.0000
30.1200 1466.0000 1.0000
30.1300 1497.0000 1.0000
30.1400 1463.0000 1.0000
30.1500 1515.0000 1.0000
30.1600 1501.0000 1.0000
30.1700 1514.0000 1.0000
30.1800 1529.0000 1.0000
30.1900 1549.0000 1.0000
30.2000 1537.0000 1.0000
30.2100 1540.0000 1.0000
30.2200 1504.0000 1.0000
30.2300 1545.0000 1.0000
30.2400 1503.0000 1.0000
30.2500 1547.0000 1.0000
30.2600 1573.0000 1.0000
30.2700 1529.0000 1.0000
30.2800 1511.0000 1.0000
30.2900 1531.0000 1.0000
30.3000 1550.0000 1.0000
30.3100 1524.0000 1.0000
30.3200 1516.0000 1.0000
30.3300 1512.0000 1.0000
30.3400 1488.0000 1.0000
30.3500 1527.0000 1.0000
30.3600 1509.0000 1.0000
30.3700 1552.0000 1.0000
30.3800 1533.0000 1.0000
30.3900 1485.0000 1.0000
30.4000 1462.0000 1.0000
30.4100 1485.0000 1.0000
30.4200 1558.0000 1.0000
30.4300 1473.0000 1.0000
30.4400 1533.0000 1.0000
30.4500 1520.0000 1.0000
30.4600 1440.0000 1.0000
30.4700 1467.0000 1.0000
30.4800 1485.0000 1.0000
30.4900 1547.0000 1.0000
30.5000 1523.0000 1.0000
30.5100 1509.0000 1.0000
30.5200 1513.0000 1.0000
30.5300 1594.0000 1.0000
30.5400 1445.0000 1.0000
30.5500 1444.0000 1.0000
30.5600 1552.0000 1.0000
30.5700 1478.0000 1.0000
30.5800 1531.0000 1.0000
30.5900 1465.0000 1.0000
30.6000 1461.0000 1.0000
30.6100 1500.0000 1.0000
30.6200 1497.0000 1.0000
30.6300 1511.0000 1.0000
30.6400 1435.0000 1.0000
30.6500 1477.0000 1.0000
30.6600 1460.0000 1.0000
30.6700 1511.0000 1.0000
30.6800 1578.0000 1.0000
30.6900 1555.0000 1.0000
30.7000 1500.0000 1.0000
30.7100 1589.0000 1.0000
30.7200 1468.0000 1.0000
30.7300 1490.0000 1.0000
30.7400 1455.0000 1.0000
30.7500 1534.0000 1.0000
30.7600 1522.0000 1.0000
30.7700 1432.0000 1.0000
30.7800 1493.0000 1.0000
30.7900 1435.0000 1.0000
30.8000 1511.0000 1.0000
30.8100 1484.0000 1.0000
30.8200 1528.0000 1.0000
30.8300 1568.0000 1.0000
30.8400 1540.0000 1.0000
30.8500 1472.0000 1.0000
30.8600 1485.0000 1.0000
30.8700 1404.0000 1.0000
30.8800 1497.0000 1.0000
30.8900 1495.0000 1.0000
30.9000 1450.0000 1.0000
30.9100 1486.0000 1.0000
30.9200 1542.0000 1.0000
30.9300 1439.0000 1.0000
30.9400 1469.0000 1.0000
30.9500 1481.0000 1.0000
30.9600 1463.0000 1.0000
30.9700 1442.0000 1.0000
30.9800 1486.0000 1.0000
30.9900 1481.0000 1.0000
31.0000 1421.0000 1.0000
31.0100 1472.0000 1.0000
31.0200 1455.0000 1.0000
31.0300 1479.0000 1.0000
31.0400 1436.0000 1.0000
31.0500 1471.0000 1.0000
31.0600 1511.0000 1.0000
31.0700 1477.0000 1.0000
31.0800 1488.0000 1.0000
31.0900 1483.0000 1.0000
31.1000 1477.0000 1.0000
31.1100 1482.0000 1.0000
31.1200 1541.0000 1.0000
31.1300 1514.0000 1.0000
31.1400 1528.0000 1.0000
31.1500 1443.0000 1.0000
31.1600 1497.0000 1.0000
31.1700 1444.0000 1.0000
31.1800 1427.0000 1.0000
31.1900 1483.0000 1.0000
31.2000 1473.0000 1.0000
31.2100 1488.0000 1.0000
31.2200 1424.0000 1.0000
31.2300 1489.0000 1.0000
31.2400 1505.0000 1.0000
31.2500 1462.0000 1.0000
31.2600 1457.0000 1.0000
31.2700 1431.0000 1.0000
31.2800 1480.0000 1.0000
31.2900 1482.0000 1.0000
31.3000 1454.0000 1.0000
31.3100 1464.0000 1.0000
31.3200 1496.0000 1.0000
31.3300 1423.0000 1.0000
31.3400 1405.0000 1.0000
31.3500 1453.0000 1.0000
31.3600 1454.0000 1.0000
31.3700 1437.0000 1.0000
31.3800 1475.0000 1.0000
31.3900 1478.0000 1.0000
31.4000 1469.0000 1.0000
31.4100 1523.0000 1.0000
31.4200 1493.0000 1.0000
31.4300 1474.0000 1.0000
31.4400 1513.0000 1.0000
31.4500 1442.0000 1.0000
31.4600 1506.0000 1.0000
31.4700 1533.0000 1.0000
31.4800 1467.0000 1.0000
31.4900 1452.0000 1.0000
31.5000 1434.0000 1.0000
31.5100 1493.0000 1.0000
31.5200 1443.0000 1.0000
31.5300 1495.0000 1.0000
31.5400 1474.0000 1.0000
31.5500 1510.0000 1.0000
31.5600 1478.0000 1.0000
31.5700 1477.0000 1.0000
31.5800 1476.0000 1.0000
31.5900 1434.0000 1.0000
31.6000 1423.0000 1.0000
31.6100 1430.0000 1.0000
31.6200 1513.0000 1.0000
31.6300 1453.0000 1.0000
31.6400 1406.0000 1.0000
31.6500 1432.0000 1.0000
31.6600 1395.0000 1.0000
31.6700 1436.0000 1.0000
31.6800 1428.0000 1.0000
31.6900 1460.0000 1.0000
31.7000 1411.0000 1.0000
31.7100 1462.0000 1.0000
31.7200 1425.0000 1.0000
31.7300 1408.0000 1.0000
31.7400 1409.0000 1.0000
31.7500 1445.0000 1.0000
31.7600 1396.0000 1.0000
31.7700 1435.0000 1.0000
31.7800 1484.0000 1.0000
31.7900 1448.0000 1.0000
31.8000 1410.0000 1.0000
31.8100 1430.0000 1.0000
31.8200 1433.0000 1.0000
31.8300 1471.0000 1.0000
31.8400 1439.0000 1.0000
31.8500 1446.0000 1.0000
31.8600 1466.0000 1.0000
31.8700 1403.0000 1.0000
31.8800 1431.0000 1.0000
31.8900 1432.0000 1.0000
31.9000 1508.0000 1.0000
31.9100 1466.0000 1.0000
31.9200 1442.0000 1.0000
31.9300 1454.0000 1.0000
31.9400 1513.0000 1.0000
31.9500 1500.0000 1.0000
31.9600 1527.0000 1.0000
31.9700 1471.0000 1.0000
31.9800 1543.0000 1.0000
31.9900 1444.0000 1.0000
32.0000 1478.0000 1.0000
32.0100 1489.0000 1.0000
32.0200 1494.0000 1.0000
32.0300 1506.0000 1.0000
32.0400 1508.0000 1.0000
32.0500 1458.0000 1.0000
32.0600 1470.0000 1.0000
32.0700 1485.0000 1.0000
32.0800 1375.0000 1.0000
32.0900 1408.0000 1.0000
32.1000 1477.0000 1.0000
32.1100 1440.0000 1.0000
32.1200 1465.0000 1.0000
32.1300 1423.0000 1.0000
32.1400 1422.0000 1.0000
32.1500 1468.0000 1.0000
32.1600 1448.0000 1.0000
32.1700 1484.0000 1.0000
32.1800 1500.0000 1.0000
32.1900 1458.0000 1.0000
32.2000 1525.0000 1.0000
32.2100 1453.0000 1.0000
32.2200 1482.0000 1.0000
32.2300 1485.0000 1.0000
32.2400 1440.0000 1.0000
32.2500 1408.0000 1.0000
32.2600 1378.0000 1.0000
32.2700 1416.0000 1.0000
32.2800 1391.0000 1.0000
32.2900 1437.0000 1.0000
32.3000 1401.0000 1.0000
32.3100 1444.0000 1.0000
32.3200 1404.0000 1.0000
32.3300 1468.0000 1.0000
32.3400 1441.0000 1.0000
32.3500 1422.0000 1.0000
32.3600 1402.0000 1.0000
32.3700 1373.0000 1.0000
32.3800 1381.0000 1.0000
32.3900 1385.0000 1.0000
32.4000 1387.0000 1.0000
32.4100 1420.0000 1.0000
32.4200 1421.0000 1.0000
32.4300 1385.0000 1.0000
32.4400 1359.0000 1.0000
32.4500 1400.0000 1.0000
32.4600 1392.0000 1.0000
32.4700 1440.0000 1.0000
32.4800 1419.0000 1.0000
32.4900 1462.0000 1.0000
32.5000 1432.0000 1.0000
32.5100 1406.0000 1.0000
32.5200 1424.0000 1.0000
32.5300 1412.0000 1.0000
32.5400 1417.0000 1.0000
32.5500 1457.0000 1.0000
32.5600 1405.0000 1.0000
32.5700 1422.0000 1.0000
32.5800 1381.0000 1.0000
32.5900 1356.0000 1.0000
32.6000 1400.0000 1.0000
32.6100 1419.0000 1.0000
32.6200 1442.0000 1.0000
32.6300 1428.0000 1.0000
32.6400 1444.0000 1.0000
32.6500 1384.0000 1.0000
32.6600 1395.0000 1.0000
32.6700 1379.0000 1.0000
32.6800 1452.0000 1.0000
32.6900 1398.0000 1.0000
32.7000 1346.0000 1.0000
32.7100 1398.0000 1.0000
32.7200 1431.0000 1.0000
32.7300 1428.0000 1.0000
32.7400 1398.0000 1.0000
32.7500 1328.0000 1.0000
32.7600 1394.0000 1.0000
32.7700 1383.0000 1.0000
32.7800 1409.0000 1.0000
32.7900 1388.0000 1.0000
32.8000 1449.0000 1.0000
32.8100 1460.0000 1.0000
32.8200 1400.0000 1.0000
32.8300 1380.0000 1.0000
32.8400 1327.0000 1.0000
32.8500 1403.0000 1.0000
32.8600 1346.0000 1.0000
32.8700 1440.0000 1.0000
32.8800 1403.0000 1.0000
32.8900 1367.0000 1.0000
32.9000 1383.0000 1.0000
32.9100 1393.0000 1.0000
32.9200 1355.0000 1.0000
32.9300 1393.0000 1.0000
32.9400 1421.0000 1.0000
32.9500 1313.0000 1.0000
32.9600 1380.0000 1.0000
32.9700 1382.0000 1.0000
32.9800 1384.0000 1.0000
32.9900 1421.0000 1.0000
33.0000 1457.0000 1.0000
33.0100 1358.0000 1.0000
33.0200 1389.0000 1.0000
33.0300 1352.0000 1.0000
33.0400 1378.0000 1.0000
33.0500 1349.0000 1.0000
33.0600 1330.0000 1.0000
33.0700 1359.0000 1.0000
33.0800 1388.0000 1.0000
33.0900 1435.0000 1.0000
33.1000 1429.0000 1.0000
33.1100 1344.0000 1.0000
33.1200 1358.0000 1.0000
33.1300 1390.0000 1.0000
33.1400 1407.0000 1.0000
33.1500 1355.0000 1.0000
33.1600 1360.0000 1.0000
33.1700 1370.0000 1.0000
33.1800 1357.0000 1.0000
33.1900 1427.0000 1.0000
33.2000 1369.0000 1.0000
33.2100 1346.0000 1.0000
33.2200 1388.0000 1.0000
33.2300 1345.0000 1.0000
33.2400 1401.0000 1.0000
33.2500 1422.0000 1.0000
33.2600 1395.0000 1.0000
33.2700 1330.0000 1.0000
33.2800 1357.0000 1.0000
33.2900 1385.0000 1.0000
33.3000 1326.0000 1.0000
33.3100 1331.0000 1.0000
33.3200 1362.0000 1.0000
33.3300 1334.0000 1.0000
33.3400 1323.0000 1.0000
33.3500 1393.0000 1.0000
33.3600 1412.0000 1.0000
33.3700 1432.0000 1.0000
33.3800 1369.0000 1.0000
33.3900 1309.0000 1.0000
33.4000 1326.0000 1.0000
33.4100 1360.0000 1.0000
33.4200 1404.0000 1.0000
33.4300 1375.0000 1.0000
33.4400 1374.0000 1.0000
33.4500 1372.0000 1.0000
33.4600 1383.0000 1.0000
33.4700 1438.0000 1.0000
33.4800 1350.0000 1.0000
33.4900 1381.0000 1.0000
33.5000 1372.0000 1.0000
33.5100 1328.0000 1.0000
33.5200 1407.0000 1.0000
33.5300 1440.0000 1.0000
33.5400 1383.0000 1.0000
33.5500 1387.0000 1.0000
33.5600 1456.0000 1.0000
33.5700 1414.0000 1.0000
33.5800 1292.0000 1.0000
33.5900 1362.0000 1.0000
33.6000 1389.0000 1.0000
33.6100 1434.0000 1.0000
33.6200 1416.0000 1.0000
33.6300 1366.0000 1.0000
33.6400 1394.0000 1.0000
33.6500 1411.0000 1.0000
33.6600 1441.0000 1.0000
33.6700 1382.0000 1.0000
33.6800 1383.0000 1.0000
33.6900 1390.0000 1.0000
33.7000 1433.0000 1.0000
33.7100 1414.0000 1.0000
33.7200 1381.0000 1.0000
33.7300 1430.0000 1.0000
33.7400 1477.0000 1.0000
33.7500 1467.0000 1.0000
33.7600 1431.0000 1.0000
33.7700 1364.0000 1.0000
33.7800 1432.0000 1.0000
33.7900 1436.0000 1.0000
33.8000 1358.0000 1.0000
33.8100 1347.0000 1.0000
33.8200 1344.0000 1.0000
33.8300 1401.0000 1.0000
33.8400 1413.0000 1.0000
33.8500 1427.0000 1.0000
33.8600 1425.0000 1.0000
33.8700 1443.0000 1.0000
33.8800 1443.0000 1.0000
33.8900 1480.0000 1.0000
33.9000 1433.0000 1.0000
33.9100 1447.0000 1.0000
33.9200 1462.0000 1.0000
33.9300 1427.0000 1.0000
33.9400 1409.0000 1.0000
33.9500 1451.0000 1.0000
33.9600 1396.0000 1.0000
33.9700 1459.0000 1.0000
33.9800 1472.0000 1.0000
33.9900 1489.0000 1.0000
34.0000 1483.0000 1.0000
34.0100 1453.0000 1.0000
34.0200 1426.0000 1.0000
34.0300 1434.0000 1.0000
34.0400 1411.0000 1.0000
34.0500 1469.0000 1.0000
34.0600 1487.0000 1.0000
34.0700 1526.0000 1.0000
34.0800 1499.0000 1.0000
34.0900 1519.0000 1.0000
34.1000 1489.0000 1.0000
34.1100 1445.0000 1.0000
34.1200 1491.0000 1.0000
34.1300 1501.0000 1.0000
34.1400 1536.0000 1.0000
34.1500 1491.0000 1.0000
34.1600 1548.0000 1.0000
34.1700 1565.0000 1.0000
34.1800 1590.0000 1.0000
34.1900 1577.0000 1.0000
34.2000 1571.0000 1.0000
34.2100 1618.0000 1.0000
34.2200 1613.0000 1.0000
34.2300 1607.0000 1.0000
34.2400 1699.0000 1.0000
34.2500 1708.0000 1.0000
34.2600 1726.0000 1.0000
34.2700 1744.0000 1.0000
34.2800 1827.0000 1.0000
34.2900 1783.0000 1.0000
34.3000 1849.0000 1.0000
34.3100 1888.0000 1.0000
34.3200 1963.0000 1.0000
34.3300 1999.0000 1.0000
34.3400 2017.0000 1.0000
34.3500 2112.0000 1.0000
34.3600 2178.0000 1.0000
34.3700 2267.0000 1.0000
34.3800 2280.0000 1.0000
34.3900 2342.0000 1.0000
34.4000 2453.0000 1.0000
34.4100 2611.0000 1.0000
34.4200 2520.0000 1.0000
34.4300 2749.0000 1.0000
34.4400 2771.0000 1.0000
34.4500 2740.0000 1.0000
34.4600 2846.0000 1.0000
34.4700 2899.0000 1.0000
34.4800 2872.0000 1.0000
34.4900 2952.0000 1.0000
34.5000 2900.0000 1.0000
34.5100 2827.0000 1.0000
34.5200 2825.0000 1.0000
34.5300 2797.0000 1.0000
34.5400 2739.0000 1.0000
34.5500 2599.0000 1.0000
34.5600 2552.0000 1.0000
34.5700 2483.0000 1.0000
34.5800 2377.0000 1.0000
34.5900 2375.0000 1.0000
34.6000 2281.0000 1.0000
34.6100 2197.0000 1.0000
34.6200 2142.0000 1.0000
34.6300 2074.0000 1.0000
34.6400 2038.0000 1.0000
34.6500 2002.0000 1.0000
34.6600 1917.0000 1.0000
34.6700 1881.0000 1.0000
34.6800 1797.0000 1.0000
34.6900 1826.0000 1.0000
34.7000 1785.0000 1.0000
34.7100 1708.0000 1.0000
34.7200 1682.0000 1.0000
34.7300 1709.0000 1.0000
34.7400 1593.0000 1.0000
34.7500 1675.0000 1.0000
34.7600 1609.0000 1.0000
34.7700 1579.0000 1.0000
34.7800 1582.0000 1.0000
34.7900 1624.0000 1.0000
34.8000 1546.0000 1.0000
34.8100 1517.0000 1.0000
34.8200 1488.0000 1.0000
34.8300 1529.0000 1.0000
34.8400 1473.0000 1.0000
34.8500 1428.0000 1.0000
34.8600 1472.0000 1.0000
34.8700 1496.0000 1.0000
34.8800 1412.0000 1.0000
34.8900 1428.0000 1.0000
34.9000 1415.0000 1.0000
34.9100 1429.0000 1.0000
34.9200 1369.0000 1.0000
34.9300 1413.0000 1.0000
34.9400 1392.0000 1.0000
34.9500 1342.0000 1.0000
34.9600 1401.0000 1.0000
34.9700 1390.0000 1.0000
34.9800 1374.0000 1.0000
34.9900 1360.0000 1.0000
35.0000 1384.0000 1.0000
35.0100 1371.0000 1.0000
35.0200 1324.0000 1.0000
35.0300 1328.0000 1.0000
35.0400 1294.0000 1.0000
35.0500 1321.0000 1.0000
35.0600 1295.0000 1.0000
35.0700 1305.0000 1.0000
35.0800 1317.0000 1.0000
35.0900 1336.0000 1.0000
35.1000 1307.0000 1.0000
35.1100 1341.0000 1.0000
35.1200 1226.0000 1.0000
35.1300 1256.0000 1.0000
35.1400 1178.0000 1.0000
35.1500 1263.0000 1.0000
35.1600 1300.0000 1.0000
35.1700 1280.0000 1.0000
35.1800 1236.0000 1.0000
35.1900 1233.0000 1.0000
35.2000 1228.0000 1.0000
35.2100 1215.0000 1.0000
35.2200 1236.0000 1.0000
35.2300 1294.0000 1.0000
35.2400 1220.0000 1.0000
35.2500 1260.0000 1.0000
35.2600 1280.0000 1.0000
35.2700 1280.0000 1.0000
35.2800 1273.0000 1.0000
35.2900 1211.0000 1.0000
35.3000 1244.0000 1.0000
35.3100 1288.0000 1.0000
35.3200 1241.0000 1.0000
35.3300 1220.0000 1.0000
35.3400 1278.0000 1.0000
35.3500 1239.0000 1.0000
35.3600 1264.0000 1.0000
35.3700 1256.0000 1.0000
35.3800 1186.0000 1.0000
35.3900 1223.0000 1.0000
35.4000 1249.0000 1.0000
35.4100 1249.0000 1.0000
35.4200 1220.0000 1.0000
35.4300 1209.0000 1.0000
35.4400 1186.0000 1.0000
35.4500 1239.0000 1.0000
35.4600 1209.0000 1.0000
35.4700 1179.0000 1.0000
35.4800 1173.0000 1.0000
35.4900 1207.0000 1.0000
35.5000 1207.0000 1.0000
35.5100 1230.0000 1.0000
35.5200 1186.0000 1.0000
35.5300 1188.0000 1.0000
35.5400 1252.0000 1.0000
35.5500 1214.0000 1.0000
35.5600 1230.0000 1.0000
35.5700 1222.0000 1.0000
35.5800 1224.0000 1.0000
35.5900 1192.0000 1.0000
35.6000 1176.0000 1.0000
35.6100 1250.0000 1.0000
35.6200 1151.0000 1.0000
35.6300 1176.0000 1.0000
35.6400 1192.0000 1.0000
35.6500 1200.0000 1.0000
35.6600 1188.0000 1.0000
35.6700 1214.0000 1.0000
35.6800 1235.0000 1.0000
35.6900 1240.0000 1.0000
35.7000 1213.0000 1.0000
35.7100 1232.0000 1.0000
35.7200 1191.0000 1.0000
35.7300 1234.0000 1.0000
35.7400 1149.0000 1.0000
35.7500 1173.0000 1.0000
35.7600 1205.0000 1.0000
35.7700 1215.0000 1.0000
35.7800 1154.0000 1.0000
35.7900 1232.0000 1.0000
35.8000 1232.0000 1.0000
35.8100 1239.0000 1.0000
35.8200 1189.0000 1.0000
35.8300 1203.0000 1.0000
35.8400 1220.0000 1.0000
35.8500 1250.0000 1.0000
35.8600 1207.0000 1.0000
35.8700 1252.0000 1.0000
35.8800 1180.0000 1.0000
35.8900 1194.0000 1.0000
35.9000 1235.0000 1.0000
35.9100 1266.0000 1.0000
35.9200 1138.0000 1.0000
35.9300 1168.0000 1.0000
35.9400 1242.0000 1.0000
35.9500 1241.0000 1.0000
35.9600 1253.0000 1.0000
35.9700 1230.0000 1.0000
35.9800 1227.0000 1.0000
35.9900 1302.0000 1.0000
36.0000 1295.0000 1.0000
36.0100 1239.0000 1.0000
36.0200 1248.0000 1.0000
36.0300 1289.0000 1.0000
36.0400 1240.0000 1.0000
36.0500 1216.0000 1.0000
36.0600 1270.0000 1.0000
36.0700 1294.0000 1.0000
36.0800 1269.0000 1.0000
36.0900 1328.0000 1.0000
36.1000 1329.0000 1.0000
36.1100 1311.0000 1.0000
36.1200 1321.0000 1.0000
36.1300 1351.0000 1.0000
36.1400 1330.0000 1.0000
36.1500 1376.0000 1.0000
36.1600 1324.0000 1.0000
36.1700 1340.0000 1.0000
36.1800 1374.0000 1.0000
36.1900 1423.0000 1.0000
36.2000 1417.0000 1.0000
36.2100 1458.0000 1.0000
36.2200 1444.0000 1.0000
36.2300 1417.0000 1.0000
36.2400 1449.0000 1.0000
36.2500 1454.0000 1.0000
36.2600 1479.0000 1.0000
36.2700 1520.0000 1.0000
36.2800 1499.0000 1.0000
36.2900 1578.0000 1.0000
36.3000 1606.0000 1.0000
36.3100 1544.0000 1.0000
36.3200 1542.0000 1.0000
36.3300 1618.0000 1.0000
36.3400 1616.0000 1.0000
36.3500 1627.0000 1.0000
36.3600 1609.0000 1.0000
36.3700 1621.0000 1.0000
36.3800 1639.0000 1.0000
36.3900 1712.0000 1.0000
36.4000 1718.0000 1.0000
36.4100 1662.0000 1.0000
36.4200 1643.0000 1.0000
36.4300 1600.0000 1.0000
36.4400 1594.0000 1.0000
36.4500 1600.0000 1.0000
36.4600 1693.0000 1.0000
36.4700 1622.0000 1.0000
36.4800 1624.0000 1.0000
36.4900 1561.0000 1.0000
36.5000 1530.0000 1.0000
36.5100 1535.0000 1.0000
36.5200 1511.0000 1.0000
36.5300 1548.0000 1.0000
36.5400 1482.0000 1.0000
36.5500 1489.0000 1.0000
36.5600 1422.0000 1.0000
36.5700 1446.0000 1.0000
36.5800 1442.0000 1.0000
36.5900 1390.0000 1.0000
36.6000 1378.0000 1.0000
36.6100 1326.0000 1.0000
36.6200 1360.0000 1.0000
36.6300 1340.0000 1.0000
36.6400 1268.0000 1.0000
36.6500 1301.0000 1.0000
36.6600 1318.0000 1.0000
36.6700 1283.0000 1.0000
36.6800 1293.0000 1.0000
36.6900 1283.0000 1.0000
36.7000 1246.0000 1.0000
36.7100 1236.0000 1.0000
36.7200 1251.0000 1.0000
36.7300 1219.0000 1.0000
36.7400 1207.0000 1.0000
36.7500 1187.0000 1.0000
36.7600 1186.0000 1.0000
36.7700 1208.0000 1.0000
36.7800 1240.0000 1.0000
36.7900 1198.0000 1.0000
36.8000 1099.0000 1.0000
36.8100 1150.0000 1.0000
36.8200 1182.0000 1.0000
36.8300 1133.0000 1.0000
36.8400 1151.0000 1.0000
36.8500 1161.0000 1.0000
36.8600 1133.0000 1.0000
36.8700 1170.0000 1.0000
36.8800 1086.0000 1.0000
36.8900 1170.0000 1.0000
36.9000 1138.0000 1.0000
36.9100 1149.0000 1.0000
36.9200 1123.0000 1.0000
36.9300 1144.0000 1.0000
36.9400 1141.0000 1.0000
36.9500 1131.0000 1.0000
36.9600 1116.0000 1.0000
36.9700 1104.0000 1.0000
36.9800 1164.0000 1.0000
36.9900 1133.0000 1.0000
37.0000 1092.0000 1.0000
37.0100 1089.0000 1.0000
37.0200 1117.0000 1.0000
37.0300 1122.0000 1.0000
37.0400 1162.0000 1.0000
37.0500 1162.0000 1.0000
37.0600 1097.0000 1.0000
37.0700 1093.0000 1.0000
37.0800 1134.0000 1.0000
37.0900 1098.0000 1.0000
37.1000 1090.0000 1.0000
37.1100 1064.0000 1.0000
37.1200 1169.0000 1.0000
37.1300 1117.0000 1.0000
37.1400 1127.0000 1.0000
37.1500 1143.0000 1.0000
37.1600 1120.0000 1.0000
37.1700 1097.0000 1.0000
37.1800 1115.0000 1.0000
37.1900 1112.0000 1.0000
37.2000 1057.0000 1.0000
37.2100 1093.0000 1.0000
37.2200 1114.0000 1.0000
37.2300 1098.0000 1.0000
37.2400 1095.0000 1.0000
37.2500 1146.0000 1.0000
37.2600 1119.0000 1.0000
37.2700 1089.0000 1.0000
37.2800 1115.0000 1.0000
37.2900 1113.0000 1.0000
37.3000 1095.0000 1.0000
37.3100 1124.0000 1.0000
37.3200 1094.0000 1.0000
37.3300 1096.0000 1.0000
37.3400 1125.0000 1.0000
37.3500 1120.0000 1.0000
37.3600 1074.0000 1.0000
37.3700 1087.0000 1.0000
37.3800 1065.0000 1.0000
37.3900 1163.0000 1.0000
37.4000 1093.0000 1.0000
37.4100 1117.0000 1.0000
37.4200 1143.0000 1.0000
37.4300 1131.0000 1.0000
37.4400 1074.0000 1.0000
37.4500 1095.0000 1.0000
37.4600 1131.0000 1.0000
37.4700 1072.0000 1.0000
37.4800 1103.0000 1.0000
37.4900 1056.0000 1.0000
37.5000 1101.0000 1.0000
37.5100 1175.0000 1.0000
37.5200 1101.0000 1.0000
37.5300 1085.0000 1.0000
37.5400 1083.0000 1.0000
37.5500 1052.0000 1.0000
37.5600 1085.0000 1.0000
37.5700 1081.0000 1.0000
37.5800 1112.0000 1.0000
37.5900 1052.0000 1.0000
37.6000 1082.0000 1.0000
37.6100 1112.0000 1.0000
37.6200 1066.0000 1.0000
37.6300 1049.0000 1.0000
37.6400 1101.0000 1.0000
37.6500 1097.0000 1.0000
37.6600 1145.0000 1.0000
37.6700 1101.0000 1.0000
37.6800 1084.0000 1.0000
37.6900 1159.0000 1.0000
37.7000 1125.0000 1.0000
37.7100 1140.0000 1.0000
37.7200 1109.0000 1.0000
37.7300 1158.0000 1.0000
37.7400 1144.0000 1.0000
37.7500 1122.0000 1.0000
37.7600 1129.0000 1.0000
37.7700 1125.0000 1.0000
37.7800 1076.0000 1.0000
37.7900 1132.0000 1.0000
37.8000 1136.0000 1.0000
37.8100 1119.0000 1.0000
37.8200 1107.0000 1.0000
37.8300 1095.0000 1.0000
37.8400 1115.0000 1.0000
37.8500 1102.0000 1.0000
37.8600 1181.0000 1.0000
37.8700 1105.0000 1.0000
37.8800 1121.0000 1.0000
37.8900 1207.0000 1.0000
37.9000 1135.0000 1.0000
37.9100 1096.0000 1.0000
37.9200 1109.0000 1.0000
37.9300 1162.0000 1.0000
37.9400 1127.0000 1.0000
37.9500 1149.0000 1.0000
37.9600 1196.0000 1.0000
37.9700 1136.0000 1.0000
37.9800 1138.0000 1.0000
37.9900 1153.0000 1.0000
38.0000 1118.0000 1.0000
38.0100 1170.0000 1.0000
38.0200 1184.0000 1.0000
38.0300 1169.0000 1.0000
38.0400 1177.0000 1.0000
38.0500 1172.0000 1.0000
38.0600 1194.0000 1.0000
38.0700 1292.0000 1.0000
38.0800 1247.0000 1.0000
38.0900 1298.0000 1.0000
38.1000 1337.0000 1.0000
38.1100 1268.0000 1.0000
38.1200 1348.0000 1.0000
38.1300 1357.0000 1.0000
38.1400 1382.0000 1.0000
38.1500 1468.0000 1.0000
38.1600 1459.0000 1.0000
38.1700 1522.0000 1.0000
38.1800 1492.0000 1.0000
38.1900 1539.0000 1.0000
38.2000 1560.0000 1.0000
38.2100 1702.0000 1.0000
38.2200 1627.0000 1.0000
38.2300 1706.0000 1.0000
38.2400 1705.0000 1.0000
38.2500 1784.0000 1.0000
38.2600 1842.0000 1.0000
38.2700 1951.0000 1.0000
38.2800 2041.0000 1.0000
38.2900 2184.0000 1.0000
38.3000 2192.0000 1.0000
38.3100 2390.0000 1.0000
38.3200 2533.0000 1.0000
38.3300 2624.0000 1.0000
38.3400 2763.0000 1.0000
38.3500 2926.0000 1.0000
38.3600 3101.0000 1.0000
38.3700 3327.0000 1.0000
38.3800 3433.0000 1.0000
38.3900 3646.0000 1.0000
38.4000 4040.0000 1.0000
38.4100 4329.0000 1.0000
38.4200 4602.0000 1.0000
38.4300 4956.0000 1.0000
38.4400 5148.0000 1.0000
38.4500 5628.0000 1.0000
38.4600 5897.0000 1.0000
38.4700 6258.0000 1.0000
38.4800 6539.0000 1.0000
38.4900 6870.0000 1.0000
38.5000 7134.0000 1.0000
38.5100 7239.0000 1.0000
38.5200 7503.0000 1.0000
38.5300 7306.0000 1.0000
38.5400 7361.0000 1.0000
38.5500 7293.0000 1.0000
38.5600 7190.0000 1.0000
38.5700 6821.0000 1.0000
38.5800 6766.0000 1.0000
38.5900 6476.0000 1.0000
38.6000 6162.0000 1.0000
38.6100 5897.0000 1.0000
38.6200 5668.0000 1.0000
38.6300 5330.0000 1.0000
38.6400 5156.0000 1.0000
38.6500 4874.0000 1.0000
38.6600 4561.0000 1.0000
38.6700 4220.0000 1.0000
38.6800 3956.0000 1.0000
38.6900 3689.0000 1.0000
38.7000 3425.0000 1.0000
38.7100 3251.0000 1.0000
38.7200 3040.0000 1.0000
38.7300 2954.0000 1.0000
38.7400 2719.0000 1.0000
38.7500 2541.0000 1.0000
38.7600 2379.0000 1.0000
38.7700 2297.0000 1.0000
38.7800 2182.0000 1.0000
38.7900 2133.0000 1.0000
38.8000 1983.0000 1.0000
38.8100 1895.0000 1.0000
38.8200 1760.0000 1.0000
38.8300 1743.0000 1.0000
38.8400 1709.0000 1.0000
38.8500 1616.0000 1.0000
38.8600 1646.0000 1.0000
38.8700 1541.0000 1.0000
38.8800 1481.0000 1.0000
38.8900 1436.0000 1.0000
38.9000 1375.0000 1.0000
38.9100 1376.0000 1.0000
38.9200 1430.0000 1.0000
38.9300 1310.0000 1.0000
38.9400 1278.0000 1.0000
38.9500 1270.0000 1.0000
38.9600 1248.0000 1.0000
38.9700 1269.0000 1.0000
38.9800 1214.0000 1.0000
38.9900 1216.0000 1.0000
39.0000 1186.0000 1.0000
39.0100 1141.0000 1.0000
39.0200 1145.0000 1.0000
39.0300 1130.0000 1.0000
39.0400 1117.0000 1.0000
39.0500 1146.0000 1.0000
39.0600 1135.0000 1.0000
39.0700 1117.0000 1.0000
39.0800 1136.0000 1.0000
39.0900 1044.0000 1.0000
39.1000 1081.0000 1.0000
39.1100 1110.0000 1.0000
39.1200 1085.0000 1.0000
39.1300 1074.0000 1.0000
39.1400 1075.0000 1.0000
39.1500 1055.0000 1.0000
39.1600 1107.0000 1.0000
39.1700 1052.0000 1.0000
39.1800 1090.0000 1.0000
39.1900 1027.0000 1.0000
39.2000 1007.0000 1.0000
39.2100 1009.0000 1.0000
39.2200 1035.0000 1.0000
39.2300 1053.0000 1.0000
39.2400 997.0000 1.0000
39.2500 1079.0000 1.0000
39.2600 1054.0000 1.0000
39.2700 1013.0000 1.0000
39.2800 1020.0000 1.0000
39.2900 1052.0000 1.0000
39.3000 1064.0000 1.0000
39.3100 982.0000 1.0000
39.3200 1003.0000 1.0000
39.3300 1036.0000 1.0000
39.3400 989.0000 1.0000
39.3500 1038.0000 1.0000
39.3600 1049.0000 1.0000
39.3700 1000.0000 1.0000
39.3800 1038.0000 1.0000
39.3900 980.0000 1.0000
39.4000 1028.0000 1.0000
39.4100 1034.0000 1.0000
39.4200 962.0000 1.0000
39.4300 986.0000 1.0000
39.4400 993.0000 1.0000
39.4500 995.0000 1.0000
39.4600 1029.0000 1.0000
39.4700 1002.0000 1.0000
39.4800 985.0000 1.0000
39.4900 1021.0000 1.0000
39.5000 1045.0000 1.0000
39.5100 995.0000 1.0000
39.5200 996.0000 1.0000
39.5300 998.0000 1.0000
39.5400 973.0000 1.0000
39.5500 1022.0000 1.0000
39.5600 1024.0000 1.0000
39.5700 1002.0000 1.0000
39.5800 1041.0000 1.0000
39.5900 1022.0000 1.0000
39.6000 1028.0000 1.0000
39.6100 1019.0000 1.0000
39.6200 1005.0000 1.0000
39.6300 1007.0000 1.0000
39.6400 1006.0000 1.0000
39.6500 1023.0000 1.0000
39.6600 1062.0000 1.0000
39.6700 997.0000 1.0000
39.6800 1017.0000 1.0000
39.6900 1016.0000 1.0000
39.7000 969.0000 1.0000
39.7100 979.0000 1.0000
39.7200 1001.0000 1.0000
39.7300 1013.0000 1.0000
39.7400 986.0000 1.0000
39.7500 926.0000 1.0000
39.7600 969.0000 1.0000
39.7700 957.0000 1.0000
39.7800 954.0000 1.0000
39.7900 947.0000 1.0000
39.8000 985.0000 1.0000
39.8100 1002.0000 1.0000
39.8200 973.0000 1.0000
39.8300 1022.0000 1.0000
39.8400 994.0000 1.0000
39.8500 964.0000 1.0000
39.8600 912.0000 1.0000
39.8700 960.0000 1.0000
39.8800 958.0000 1.0000
39.8900 1015.0000 1.0000
39.9000 946.0000 1.0000
39.9100 950.0000 1.0000
39.9200 967.0000 1.0000
39.9300 939.0000 1.0000
39.9400 976.0000 1.0000
39.9500 963.0000 1.0000
39.9600 1014.0000 1.0000
39.9700 997.0000 1.0000
39.9800 987.0000 1.0000
39.9900 933.0000 1.0000
40.0000 971.0000 1.0000
40.0100 904.0000 1.0000
40.0200 922.0000 1.0000
40.0300 928.0000 1.0000
40.0400 969.0000 1.0000
40.0500 980.0000 1.0000
40.0600 919.0000 1.0000
40.0700 970.0000 1.0000
40.0800 955.0000 1.0000
40.0900 940.0000 1.0000
40.1000 925.0000 1.0000
40.1100 888.0000 1.0000
40.1200 946.0000 1.0000
40.1300 942.0000 1.0000
40.1400 940.0000 1.0000
40.1500 935.0000 1.0000
40.1600 964.0000 1.0000
40.1700 902.0000 1.0000
40.1800 979.0000 1.0000
40.1900 970.0000 1.0000
40.2000 933.0000 1.0000
40.2100 905.0000 1.0000
40.2200 955.0000 1.0000
40.2300 982.0000 1.0000
40.2400 907.0000 1.0000
40.2500 970.0000 1.0000
40.2600 972.0000 1.0000
40.2700 939.0000 1.0000
40.2800 934.0000 1.0000
40.2900 980.0000 1.0000
40.3000 966.0000 1.0000
40.3100 926.0000 1.0000
40.3200 947.0000 1.0000
40.3300 955.0000 1.0000
40.3400 920.0000 1.0000
40.3500 911.0000 1.0000
40.3600 937.0000 1.0000
40.3700 939.0000 1.0000
40.3800 933.0000 1.0000
40.3900 919.0000 1.0000
40.4000 941.0000 1.0000
40.4100 911.0000 1.0000
40.4200 888.0000 1.0000
40.4300 932.0000 1.0000
40.4400 928.0000 1.0000
40.4500 955.0000 1.0000
40.4600 938.0000 1.0000
40.4700 897.0000 1.0000
40.4800 917.0000 1.0000
40.4900 953.0000 1.0000
40.5000 909.0000 1.0000
40.5100 849.0000 1.0000
40.5200 918.0000 1.0000
40.5300 957.0000 1.0000
40.5400 914.0000 1.0000
40.5500 934.0000 1.0000
40.5600 938.0000 1.0000
40.5700 892.0000 1.0000
40.5800 874.0000 1.0000
40.5900 900.0000 1.0000
40.6000 895.0000 1.0000
40.6100 929.0000 1.0000
40.6200 906.0000 1.0000
40.6300 933.0000 1.0000
40.6400 912.0000 1.0000
40.6500 948.0000 1.0000
40.6600 867.0000 1.0000
40.6700 888.0000 1.0000
40.6800 933.0000 1.0000
40.6900 877.0000 1.0000
40.7000 904.0000 1.0000
40.7100 958.0000 1.0000
40.7200 951.0000 1.0000
40.7300 891.0000 1.0000
40.7400 915.0000 1.0000
40.7500 891.0000 1.0000
40.7600 873.0000 1.0000
40.7700 897.0000 1.0000
40.7800 877.0000 1.0000
40.7900 908.0000 1.0000
40.8000 906.0000 1.0000
40.8100 941.0000 1.0000
40.8200 886.0000 1.0000
40.8300 901.0000 1.0000
40.8400 922.0000 1.0000
40.8500 904.0000 1.0000
40.8600 893.0000 1.0000
40.8700 959.0000 1.0000
40.8800 944.0000 1.0000
40.8900 953.0000 1.0000
40.9000 908.0000 1.0000
40.9100 863.0000 1.0000
40.9200 945.0000 1.0000
40.9300 893.0000 1.0000
40.9400 901.0000 1.0000
40.9500 884.0000 1.0000
40.9600 875.0000 1.0000
40.9700 872.0000 1.0000
40.9800 926.0000 1.0000
40.9900 904.0000 1.0000
41.0000 912.0000 1.0000
41.0100 907.0000 1.0000
41.0200 869.0000 1.0000
41.0300 901.0000 1.0000
41.0400 907.0000 1.0000
41.0500 898.0000 1.0000
41.0600 886.0000 1.0000
41.0700 893.0000 1.0000
41.0800 892.0000 1.0000
41.0900 898.0000 1.0000
41.1000 900.0000 1.0000
41.1100 898.0000 1.0000
41.1200 953.0000 1.0000
41.1300 929.0000 1.0000
41.1400 947.0000 1.0000
41.1500 978.0000 1.0000
41.1600 896.0000 1.0000
41.1700 918.0000 1.0000
41.1800 914.0000 1.0000
41.1900 871.0000 1.0000
41.2000 918.0000 1.0000
41.2100 896.0000 1.0000
41.2200 843.0000 1.0000
41.2300 949.0000 1.0000
41.2400 890.0000 1.0000
41.2500 929.0000 1.0000
41.2600 952.0000 1.0000
41.2700 905.0000 1.0000
41.2800 915.0000 1.0000
41.2900 862.0000 1.0000
41.3000 854.0000 1.0000
41.3100 850.0000 1.0000
41.3200 868.0000 1.0000
41.3300 850.0000 1.0000
41.3400 875.0000 1.0000
41.3500 887.0000 1.0000
41.3600 907.0000 1.0000
41.3700 879.0000 1.0000
41.3800 888.0000 1.0000
41.3900 898.0000 1.0000
41.4000 916.0000 1.0000
41.4100 863.0000 1.0000
41.4200 886.0000 1.0000
41.4300 879.0000 1.0000
41.4400 901.0000 1.0000
41.4500 926.0000 1.0000
41.4600 927.0000 1.0000
41.4700 948.0000 1.0000
41.4800 958.0000 1.0000
41.4900 911.0000 1.0000
41.5000 918.0000 1.0000
41.5100 932.0000 1.0000
41.5200 896.0000 1.0000
41.5300 912.0000 1.0000
41.5400 941.0000 1.0000
41.5500 870.0000 1.0000
41.5600 891.0000 1.0000
41.5700 880.0000 1.0000
41.5800 893.0000 1.0000
41.5900 863.0000 1.0000
41.6000 868.0000 1.0000
41.6100 912.0000 1.0000
41.6200 905.0000 1.0000
41.6300 903.0000 1.0000
41.6400 936.0000 1.0000
41.6500 862.0000 1.0000
41.6600 862.0000 1.0000
41.6700 906.0000 1.0000
41.6800 857.0000 1.0000
41.6900 895.0000 1.0000
41.7000 890.0000 1.0000
41.7100 903.0000 1.0000
41.7200 919.0000 1.0000
41.7300 891.0000 1.0000
41.7400 891.0000 1.0000
41.7500 918.0000 1.0000
41.7600 908.0000 1.0000
41.7700 961.0000 1.0000
41.7800 928.0000 1.0000
41.7900 891.0000 1.0000
41.8000 924.0000 1.0000
41.8100 956.0000 1.0000
41.8200 914.0000 1.0000
41.8300 876.0000 1.0000
41.8400 905.0000 1.0000
41.8500 938.0000 1.0000
41.8600 938.0000 1.0000
41.8700 924.0000 1.0000
41.8800 904.0000 1.0000
41.8900 871.0000 1.0000
41.9000 900.0000 1.0000
41.9100 886.0000 1.0000
41.9200 904.0000 1.0000
41.9300 899.0000 1.0000
41.9400 884.0000 1.0000
41.9500 884.0000 1.0000
41.9600 918.0000 1.0000
41.9700 887.0000 1.0000
41.9800 923.0000 1.0000
41.9900 872.0000 1.0000
42.0000 924.0000 1.0000
42.0100 914.0000 1.0000
42.0200 885.0000 1.0000
42.0300 880.0000 1.0000
42.0400 920.0000 1.0000
42.0500 901.0000 1.0000
42.0600 887.0000 1.0000
42.0700 924.0000 1.0000
42.0800 872.0000 1.0000
42.0900 879.0000 1.0000
42.1000 956.0000 1.0000
42.1100 897.0000 1.0000
42.1200 833.0000 1.0000
42.1300 896.0000 1.0000
42.1400 920.0000 1.0000
42.1500 906.0000 1.0000
42.1600 922.0000 1.0000
42.1700 870.0000 1.0000
42.1800 944.0000 1.0000
42.1900 944.0000 1.0000
42.2000 872.0000 1.0000
42.2100 882.0000 1.0000
42.2200 849.0000 1.0000
42.2300 856.0000 1.0000
42.2400 937.0000 1.0000
42.2500 874.0000 1.0000
42.2600 888.0000 1.0000
42.2700 892.0000 1.0000
42.2800 882.0000 1.0000
42.2900 851.0000 1.0000
42.3000 856.0000 1.0000
42.3100 894.0000 1.0000
42.3200 889.0000 1.0000
42.3300 850.0000 1.0000
42.3400 875.0000 1.0000
42.3500 856.0000 1.0000
42.3600 854.0000 1.0000
42.3700 863.0000 1.0000
42.3800 917.0000 1.0000
42.3900 887.0000 1.0000
42.4000 875.0000 1.0000
42.4100 912.0000 1.0000
42.4200 858.0000 1.0000
42.4300 877.0000 1.0000
42.4400 893.0000 1.0000
42.4500 869.0000 1.0000
42.4600 877.0000 1.0000
42.4700 926.0000 1.0000
42.4800 919.0000 1.0000
42.4900 873.0000 1.0000
42.5000 892.0000 1.0000
42.5100 910.0000 1.0000
42.5200 851.0000 1.0000
42.5300 875.0000 1.0000
42.5400 885.0000 1.0000
42.5500 917.0000 1.0000
42.5600 865.0000 1.0000
42.5700 887.0000 1.0000
42.5800 901.0000 1.0000
42.5900 869.0000 1.0000
42.6000 864.0000 1.0000
42.6100 891.0000 1.0000
42.6200 901.0000 1.0000
42.6300 907.0000 1.0000
42.6400 874.0000 1.0000
42.6500 881.0000 1.0000
42.6600 891.0000 1.0000
42.6700 900.0000 1.0000
42.6800 855.0000 1.0000
42.6900 880.0000 1.0000
42.7000 879.0000 1.0000
42.7100 912.0000 1.0000
42.7200 952.0000 1.0000
42.7300 938.0000 1.0000
42.7400 857.0000 1.0000
42.7500 847.0000 1.0000
42.7600 863.0000 1.0000
42.7700 858.0000 1.0000
42.7800 901.0000 1.0000
42.7900 871.0000 1.0000
42.8000 865.0000 1.0000
42.8100 910.0000 1.0000
42.8200 833.0000 1.0000
42.8300 907.0000 1.0000
42.8400 920.0000 1.0000
42.8500 878.0000 1.0000
42.8600 870.0000 1.0000
42.8700 959.0000 1.0000
42.8800 918.0000 1.0000
42.8900 900.0000 1.0000
42.9000 852.0000 1.0000
42.9100 841.0000 1.0000
42.9200 841.0000 1.0000
42.9300 914.0000 1.0000
42.9400 904.0000 1.0000
42.9500 869.0000 1.0000
42.9600 871.0000 1.0000
42.9700 949.0000 1.0000
42.9800 870.0000 1.0000
42.9900 908.0000 1.0000
43.0000 852.0000 1.0000
43.0100 874.0000 1.0000
43.0200 901.0000 1.0000
43.0300 898.0000 1.0000
43.0400 966.0000 1.0000
43.0500 917.0000 1.0000
43.0600 889.0000 1.0000
43.0700 869.0000 1.0000
43.0800 955.0000 1.0000
43.0900 936.0000 1.0000
43.1000 921.0000 1.0000
43.1100 906.0000 1.0000
43.1200 939.0000 1.0000
43.1300 923.0000 1.0000
43.1400 916.0000 1.0000
43.1500 916.0000 1.0000
43.1600 951.0000 1.0000
43.1700 966.0000 1.0000
43.1800 935.0000 1.0000
43.1900 989.0000 1.0000
43.2000 919.0000 1.0000
43.2100 979.0000 1.0000
43.2200 1006.0000 1.0000
43.2300 981.0000 1.0000
43.2400 937.0000 1.0000
43.2500 998.0000 1.0000
43.2600 993.0000 1.0000
43.2700 950.0000 1.0000
43.2800 948.0000 1.0000
43.2900 980.0000 1.0000
43.3000 990.0000 1.0000
43.3100 933.0000 1.0000
43.3200 932.0000 1.0000
43.3300 894.0000 1.0000
43.3400 876.0000 1.0000
43.3500 970.0000 1.0000
43.3600 936.0000 1.0000
43.3700 972.0000 1.0000
43.3800 886.0000 1.0000
43.3900 906.0000 1.0000
43.4000 860.0000 1.0000
43.4100 955.0000 1.0000
43.4200 898.0000 1.0000
43.4300 910.0000 1.0000
43.4400 909.0000 1.0000
43.4500 909.0000 1.0000
43.4600 925.0000 1.0000
43.4700 936.0000 1.0000
43.4800 951.0000 1.0000
43.4900 942.0000 1.0000
43.5000 866.0000 1.0000
43.5100 927.0000 1.0000
43.5200 895.0000 1.0000
43.5300 926.0000 1.0000
43.5400 902.0000 1.0000
43.5500 876.0000 1.0000
43.5600 871.0000 1.0000
43.5700 848.0000 1.0000
43.5800 825.0000 1.0000
43.5900 816.0000 1.0000
43.6000 881.0000 1.0000
43.6100 900.0000 1.0000
43.6200 891.0000 1.0000
43.6300 857.0000 1.0000
43.6400 847.0000 1.0000
43.6500 897.0000 1.0000
43.6600 839.0000 1.0000
43.6700 878.0000 1.0000
43.6800 851.0000 1.0000
43.6900 875.0000 1.0000
43.7000 838.0000 1.0000
43.7100 855.0000 1.0000
43.7200 830.0000 1.0000
43.7300 870.0000 1.0000
43.7400 886.0000 1.0000
43.7500 845.0000 1.0000
43.7600 894.0000 1.0000
43.7700 828.0000 1.0000
43.7800 871.0000 1.0000
43.7900 822.0000 1.0000
43.8000 838.0000 1.0000
43.8100 865.0000 1.0000
43.8200 848.0000 1.0000
43.8300 867.0000 1.0000
43.8400 824.0000 1.0000
43.8500 871.0000 1.0000
43.8600 856.0000 1.0000
43.8700 850.0000 1.0000
43.8800 892.0000 1.0000
43.8900 836.0000 1.0000
43.9000 877.0000 1.0000
43.9100 830.0000 1.0000
43.9200 863.0000 1.0000
43.9300 861.0000 1.0000
43.9400 861.0000 1.0000
43.9500 906.0000 1.0000
43.9600 838.0000 1.0000
43.9700 848.0000 1.0000
43.9800 841.0000 1.0000
43.9900 892.0000 1.0000
44.0000 879.0000 1.0000
44.0100 865.0000 1.0000
44.0200 857.0000 1.0000
44.0300 865.0000 1.0000
44.0400 831.0000 1.0000
44.0500 903.0000 1.0000
44.0600 847.0000 1.0000
44.0700 881.0000 1.0000
44.0800 835.0000 1.0000
44.0900 843.0000 1.0000
44.1000 879.0000 1.0000
44.1100 917.0000 1.0000
44.1200 876.0000 1.0000
44.1300 867.0000 1.0000
44.1400 868.0000 1.0000
44.1500 861.0000 1.0000
44.1600 864.0000 1.0000
44.1700 866.0000 1.0000
44.1800 895.0000 1.0000
44.1900 846.0000 1.0000
44.2000 877.0000 1.0000
44.2100 843.0000 1.0000
44.2200 853.0000 1.0000
44.2300 876.0000 1.0000
44.2400 887.0000 1.0000
44.2500 884.0000 1.0000
44.2600 913.0000 1.0000
44.2700 872.0000 1.0000
44.2800 859.0000 1.0000
44.2900 848.0000 1.0000
44.3000 878.0000 1.0000
44.3100 874.0000 1.0000
44.3200 879.0000 1.0000
44.3300 894.0000 1.0000
44.3400 837.0000 1.0000
44.3500 825.0000 1.0000
44.3600 904.0000 1.0000
44.3700 862.0000 1.0000
44.3800 842.0000 1.0000
44.3900 837.0000 1.0000
44.4000 883.0000 1.0000
44.4100 853.0000 1.0000
44.4200 837.0000 1.0000
44.4300 839.0000 1.0000
44.4400 880.0000 1.0000
44.4500 861.0000 1.0000
44.4600 842.0000 1.0000
44.4700 846.0000 1.0000
44.4800 821.0000 1.0000
44.4900 815.0000 1.0000
44.5000 808.0000 1.0000
44.5100 847.0000 1.0000
44.5200 849.0000 1.0000
44.5300 825.0000 1.0000
44.5400 853.0000 1.0000
44.5500 891.0000 1.0000
44.5600 824.0000 1.0000
44.5700 900.0000 1.0000
44.5800 853.0000 1.0000
44.5900 860.0000 1.0000
44.6000 824.0000 1.0000
44.6100 844.0000 1.0000
44.6200 863.0000 1.0000
44.6300 819.0000 1.0000
44.6400 852.0000 1.0000
44.6500 882.0000 1.0000
44.6600 857.0000 1.0000
44.6700 890.0000 1.0000
44.6800 838.0000 1.0000
44.6900 859.0000 1.0000
44.7000 860.0000 1.0000
44.7100 859.0000 1.0000
44.7200 824.0000 1.0000
44.7300 850.0000 1.0000
44.7400 827.0000 1.0000
44.7500 770.0000 1.0000
44.7600 783.0000 1.0000
44.7700 843.0000 1.0000
44.7800 831.0000 1.0000
44.7900 826.0000 1.0000
44.8000 854.0000 1.0000
44.8100 789.0000 1.0000
44.8200 869.0000 1.0000
44.8300 851.0000 1.0000
44.8400 888.0000 1.0000
44.8500 845.0000 1.0000
44.8600 816.0000 1.0000
44.8700 801.0000 1.0000
44.8800 827.0000 1.0000
44.8900 848.0000 1.0000
44.9000 806.0000 1.0000
44.9100 807.0000 1.0000
44.9200 801.0000 1.0000
44.9300 852.0000 1.0000
44.9400 847.0000 1.0000
44.9500 886.0000 1.0000
44.9600 847.0000 1.0000
44.9700 840.0000 1.0000
44.9800 816.0000 1.0000
44.9900 859.0000 1.0000
45.0000 845.0000 1.0000
45.0100 839.0000 1.0000
45.0200 770.0000 1.0000
45.0300 828.0000 1.0000
45.0400 820.0000 1.0000
45.0500 839.0000 1.0000
45.0600 802.0000 1.0000
45.0700 849.0000 1.0000
45.0800 871.0000 1.0000
45.0900 849.0000 1.0000
45.1000 835.0000 1.0000
45.1100 850.0000 1.0000
45.1200 850.0000 1.0000
45.1300 804.0000 1.0000
45.1400 784.0000 1.0000
45.1500 826.0000 1.0000
45.1600 823.0000 1.0000
45.1700 802.0000 1.0000
45.1800 826.0000 1.0000
45.1900 806.0000 1.0000
45.2000 846.0000 1.0000
45.2100 819.0000 1.0000
45.2200 854.0000 1.0000
45.2300 834.0000 1.0000
45.2400 826.0000 1.0000
45.2500 825.0000 1.0000
45.2600 868.0000 1.0000
45.2700 835.0000 1.0000
45.2800 839.0000 1.0000
45.2900 842.0000 1.0000
45.3000 890.0000 1.0000
45.3100 893.0000 1.0000
45.3200 838.0000 1.0000
45.3300 839.0000 1.0000
45.3400 805.0000 1.0000
45.3500 833.0000 1.0000
45.3600 846.0000 1.0000
45.3700 848.0000 1.0000
45.3800 818.0000 1.0000
45.3900 833.0000 1.0000
45.4000 817.0000 1.0000
45.4100 828.0000 1.0000
45.4200 842.0000 1.0000
45.4300 875.0000 1.0000
45.4400 846.0000 1.0000
45.4500 823.0000 1.0000
45.4600 808.0000 1.0000
45.4700 821.0000 1.0000
45.4800 864.0000 1.0000
45.4900 806.0000 1.0000
45.5000 855.0000 1.0000
45.5100 840.0000 1.0000
45.5200 808.0000 1.0000
45.5300 842.0000 1.0000
45.5400 790.0000 1.0000
45.5500 854.0000 1.0000
45.5600 828.0000 1.0000
45.5700 813.0000 1.0000
45.5800 816.0000 1.0000
45.5900 816.0000 1.0000
45.6000 816.0000 1.0000
45.6100 827.0000 1.0000
45.6200 851.0000 1.0000
45.6300 813.0000 1.0000
45.6400 826.0000 1.0000
45.6500 805.0000 1.0000
45.6600 818.0000 1.0000
45.6700 832.0000 1.0000
45.6800 827.0000 1.0000
45.6900 829.0000 1.0000
45.7000 803.0000 1.0000
45.7100 796.0000 1.0000
45.7200 825.0000 1.0000
45.7300 822.0000 1.0000
45.7400 849.0000 1.0000
45.7500 877.0000 1.0000
45.7600 856.0000 1.0000
45.7700 852.0000 1.0000
45.7800 811.0000 1.0000
45.7900 830.0000 1.0000
45.8000 792.0000 1.0000
45.8100 799.0000 1.0000
45.8200 848.0000 1.0000
45.8300 818.0000 1.0000
45.8400 848.0000 1.0000
45.8500 827.0000 1.0000
45.8600 836.0000 1.0000
45.8700 778.0000 1.0000
45.8800 797.0000 1.0000
45.8900 819.0000 1.0000
45.9000 793.0000 1.0000
45.9100 823.0000 1.0000
45.9200 852.0000 1.0000
45.9300 805.0000 1.0000
45.9400 792.0000 1.0000
45.9500 801.0000 1.0000
45.9600 813.0000 1.0000
45.9700 846.0000 1.0000
45.9800 814.0000 1.0000
45.9900 813.0000 1.0000
46.0000 790.0000 1.0000
46.0100 803.0000 1.0000
46.0200 837.0000 1.0000
46.0300 816.0000 1.0000
46.0400 835.0000 1.0000
46.0500 850.0000 1.0000
46.0600 809.0000 1.0000
46.0700 808.0000 1.0000
46.0800 767.0000 1.0000
46.0900 841.0000 1.0000
46.1000 818.0000 1.0000
46.1100 845.0000 1.0000
46.1200 800.0000 1.0000
46.1300 797.0000 1.0000
46.1400 809.0000 1.0000
46.1500 820.0000 1.0000
46.1600 805.0000 1.0000
46.1700 808.0000 1.0000
46.1800 817.0000 1.0000
46.1900 785.0000 1.0000
46.2000 795.0000 1.0000
46.2100 817.0000 1.0000
46.2200 839.0000 1.0000
46.2300 795.0000 1.0000
46.2400 832.0000 1.0000
46.2500 825.0000 1.0000
46.2600 817.0000 1.0000
46.2700 835.0000 1.0000
46.2800 853.0000 1.0000
46.2900 820.0000 1.0000
46.3000 803.0000 1.0000
46.3100 814.0000 1.0000
46.3200 801.0000 1.0000
46.3300 785.0000 1.0000
46.3400 817.0000 1.0000
46.3500 774.0000 1.0000
46.3600 845.0000 1.0000
46.3700 831.0000 1.0000
46.3800 756.0000 1.0000
46.3900 759.0000 1.0000
46.4000 822.0000 1.0000
46.4100 808.0000 1.0000
46.4200 807.0000 1.0000
46.4300 800.0000 1.0000
46.4400 807.0000 1.0000
46.4500 811.0000 1.0000
46.4600 822.0000 1.0000
46.4700 840.0000 1.0000
46.4800 839.0000 1.0000
46.4900 813.0000 1.0000
46.5000 764.0000 1.0000
46.5100 828.0000 1.0000
46.5200 791.0000 1.0000
46.5300 815.0000 1.0000
46.5400 788.0000 1.0000
46.5500 833.0000 1.0000
46.5600 869.0000 1.0000
46.5700 855.0000 1.0000
46.5800 836.0000 1.0000
46.5900 777.0000 1.0000
46.6000 806.0000 1.0000
46.6100 800.0000 1.0000
46.6200 828.0000 1.0000
46.6300 827.0000 1.0000
46.6400 804.0000 1.0000
46.6500 792.0000 1.0000
46.6600 842.0000 1.0000
46.6700 794.0000 1.0000
46.6800 823.0000 1.0000
46.6900 797.0000 1.0000
46.7000 780.0000 1.0000
46.7100 756.0000 1.0000
46.7200 810.0000 1.0000
46.7300 803.0000 1.0000
46.7400 809.0000 1.0000
46.7500 816.0000 1.0000
46.7600 797.0000 1.0000
46.7700 774.0000 1.0000
46.7800 812.0000 1.0000
46.7900 812.0000 1.0000
46.8000 789.0000 1.0000
46.8100 812.0000 1.0000
46.8200 787.0000 1.0000
46.8300 807.0000 1.0000
46.8400 830.0000 1.0000
46.8500 832.0000 1.0000
46.8600 818.0000 1.0000
46.8700 794.0000 1.0000
46.8800 817.0000 1.0000
46.8900 815.0000 1.0000
46.9000 834.0000 1.0000
46.9100 836.0000 1.0000
46.9200 815.0000 1.0000
46.9300 807.0000 1.0000
46.9400 848.0000 1.0000
46.9500 846.0000 1.0000
46.9600 853.0000 1.0000
46.9700 870.0000 1.0000
46.9800 794.0000 1.0000
46.9900 822.0000 1.0000
47.0000 900.0000 1.0000
47.0100 830.0000 1.0000
47.0200 813.0000 1.0000
47.0300 811.0000 1.0000
47.0400 816.0000 1.0000
47.0500 803.0000 1.0000
47.0600 839.0000 1.0000
47.0700 833.0000 1.0000
47.0800 780.0000 1.0000
47.0900 801.0000 1.0000
47.1000 849.0000 1.0000
47.1100 787.0000 1.0000
47.1200 795.0000 1.0000
47.1300 829.0000 1.0000
47.1400 769.0000 1.0000
47.1500 807.0000 1.0000
47.1600 818.0000 1.0000
47.1700 828.0000 1.0000
47.1800 811.0000 1.0000
47.1900 788.0000 1.0000
47.2000 802.0000 1.0000
47.2100 769.0000 1.0000
47.2200 767.0000 1.0000
47.2300 775.0000 1.0000
47.2400 764.0000 1.0000
47.2500 765.0000 1.0000
47.2600 781.0000 1.0000
47.2700 746.0000 1.0000
47.2800 833.0000 1.0000
47.2900 775.0000 1.0000
47.3000 831.0000 1.0000
47.3100 773.0000 1.0000
47.3200 802.0000 1.0000
47.3300 772.0000 1.0000
47.3400 816.0000 1.0000
47.3500 780.0000 1.0000
47.3600 779.0000 1.0000
47.3700 768.0000 1.0000
47.3800 801.0000 1.0000
47.3900 741.0000 1.0000
47.4000 742.0000 1.0000
47.4100 756.0000 1.0000
47.4200 742.0000 1.0000
47.4300 804.0000 1.0000
47.4400 807.0000 1.0000
47.4500 755.0000 1.0000
47.4600 809.0000 1.0000
47.4700 764.0000 1.0000
47.4800 775.0000 1.0000
47.4900 811.0000 1.0000
47.5000 788.0000 1.0000
47.5100 766.0000 1.0000
47.5200 776.0000 1.0000
47.5300 792.0000 1.0000
47.5400 823.0000 1.0000
47.5500 789.0000 1.0000
47.5600 812.0000 1.0000
47.5700 800.0000 1.0000
47.5800 766.0000 1.0000
47.5900 802.0000 1.0000
47.6000 749.0000 1.0000
47.6100 806.0000 1.0000
47.6200 787.0000 1.0000
47.6300 782.0000 1.0000
47.6400 794.0000 1.0000
47.6500 798.0000 1.0000
47.6600 781.0000 1.0000
47.6700 781.0000 1.0000
47.6800 790.0000 1.0000
47.6900 791.0000 1.0000
47.7000 806.0000 1.0000
47.7100 765.0000 1.0000
47.7200 747.0000 1.0000
47.7300 762.0000 1.0000
47.7400 750.0000 1.0000
47.7500 737.0000 1.0000
47.7600 773.0000 1.0000
47.7700 797.0000 1.0000
47.7800 809.0000 1.0000
47.7900 744.0000 1.0000
47.8000 774.0000 1.0000
47.8100 743.0000 1.0000
47.8200 774.0000 1.0000
47.8300 756.0000 1.0000
47.8400 813.0000 1.0000
47.8500 771.0000 1.0000
47.8600 740.0000 1.0000
47.8700 773.0000 1.0000
47.8800 774.0000 1.0000
47.8900 766.0000 1.0000
47.9000 792.0000 1.0000
47.9100 786.0000 1.0000
47.9200 748.0000 1.0000
47.9300 762.0000 1.0000
47.9400 777.0000 1.0000
47.9500 803.0000 1.0000
47.9600 747.0000 1.0000
47.9700 743.0000 1.0000
47.9800 746.0000 1.0000
47.9900 743.0000 1.0000
48.0000 762.0000 1.0000
48.0100 795.0000 1.0000
48.0200 797.0000 1.0000
48.0300 769.0000 1.0000
48.0400 705.0000 1.0000
48.0500 758.0000 1.0000
48.0600 784.0000 1.0000
48.0700 740.0000 1.0000
48.0800 790.0000 1.0000
48.0900 775.0000 1.0000
48.1000 757.0000 1.0000
48.1100 784.0000 1.0000
48.1200 785.0000 1.0000
48.1300 782.0000 1.0000
48.1400 786.0000 1.0000
48.1500 732.0000 1.0000
48.1600 828.0000 1.0000
48.1700 799.0000 1.0000
48.1800 753.0000 1.0000
48.1900 747.0000 1.0000
48.2000 763.0000 1.0000
48.2100 787.0000 1.0000
48.2200 782.0000 1.0000
48.2300 779.0000 1.0000
48.2400 786.0000 1.0000
48.2500 803.0000 1.0000
48.2600 777.0000 1.0000
48.2700 787.0000 1.0000
48.2800 766.0000 1.0000
48.2900 762.0000 1.0000
48.3000 775.0000 1.0000
48.3100 752.0000 1.0000
48.3200 726.0000 1.0000
48.3300 792.0000 1.0000
48.3400 785.0000 1.0000
48.3500 763.0000 1.0000
48.3600 745.0000 1.0000
48.3700 774.0000 1.0000
48.3800 741.0000 1.0000
48.3900 731.0000 1.0000
48.4000 771.0000 1.0000
48.4100 776.0000 1.0000
48.4200 766.0000 1.0000
48.4300 775.0000 1.0000
48.4400 807.0000 1.0000
48.4500 735.0000 1.0000
48.4600 708.0000 1.0000
48.4700 741.0000 1.0000
48.4800 763.0000 1.0000
48.4900 790.0000 1.0000
48.5000 781.0000 1.0000
48.5100 815.0000 1.0000
48.5200 798.0000 1.0000
48.5300 816.0000 1.0000
48.5400 759.0000 1.0000
48.5500 765.0000 1.0000
48.5600 783.0000 1.0000
48.5700 753.0000 1.0000
48.5800 785.0000 1.0000
48.5900 751.0000 1.0000
48.6000 808.0000 1.0000
48.6100 776.0000 1.0000
48.6200 802.0000 1.0000
48.6300 801.0000 1.0000
48.6400 750.0000 1.0000
48.6500 783.0000 1.0000
48.6600 784.0000 1.0000
48.6700 811.0000 1.0000
48.6800 793.0000 1.0000
48.6900 769.0000 1.0000
48.7000 768.0000 1.0000
48.7100 779.0000 1.0000
48.7200 773.0000 1.0000
48.7300 733.0000 1.0000
48.7400 725.0000 1.0000
48.7500 796.0000 1.0000
48.7600 755.0000 1.0000
48.7700 777.0000 1.0000
48.7800 718.0000 1.0000
48.7900 809.0000 1.0000
48.8000 782.0000 1.0000
48.8100 725.0000 1.0000
48.8200 764.0000 1.0000
48.8300 762.0000 1.0000
48.8400 788.0000 1.0000
48.8500 793.0000 1.0000
48.8600 740.0000 1.0000
48.8700 755.0000 1.0000
48.8800 810.0000 1.0000
48.8900 768.0000 1.0000
48.9000 814.0000 1.0000
48.9100 773.0000 1.0000
48.9200 769.0000 1.0000
48.9300 800.0000 1.0000
48.9400 761.0000 1.0000
48.9500 801.0000 1.0000
48.9600 766.0000 1.0000
48.9700 762.0000 1.0000
48.9800 815.0000 1.0000
48.9900 775.0000 1.0000
49.0000 735.0000 1.0000
49.0100 768.0000 1.0000
49.0200 768.0000 1.0000
49.0300 808.0000 1.0000
49.0400 771.0000 1.0000
49.0500 784.0000 1.0000
49.0600 779.0000 1.0000
49.0700 762.0000 1.0000
49.0800 737.0000 1.0000
49.0900 718.0000 1.0000
49.1000 782.0000 1.0000
49.1100 750.0000 1.0000
49.1200 777.0000 1.0000
49.1300 750.0000 1.0000
49.1400 726.0000 1.0000
49.1500 760.0000 1.0000
49.1600 735.0000 1.0000
49.1700 766.0000 1.0000
49.1800 745.0000 1.0000
49.1900 776.0000 1.0000
49.2000 763.0000 1.0000
49.2100 752.0000 1.0000
49.2200 731.0000 1.0000
49.2300 771.0000 1.0000
49.2400 753.0000 1.0000
49.2500 730.0000 1.0000
49.2600 731.0000 1.0000
49.2700 752.0000 1.0000
49.2800 734.0000 1.0000
49.2900 743.0000 1.0000
49.3000 715.0000 1.0000
49.3100 728.0000 1.0000
49.3200 787.0000 1.0000
49.3300 727.0000 1.0000
49.3400 773.0000 1.0000
49.3500 769.0000 1.0000
49.3600 793.0000 1.0000
49.3700 765.0000 1.0000
49.3800 735.0000 1.0000
49.3900 750.0000 1.0000
49.4000 740.0000 1.0000
49.4100 718.0000 1.0000
49.4200 720.0000 1.0000
49.4300 734.0000 1.0000
49.4400 749.0000 1.0000
49.4500 784.0000 1.0000
49.4600 744.0000 1.0000
49.4700 765.0000 1.0000
49.4800 745.0000 1.0000
49.4900 756.0000 1.0000
49.5000 770.0000 1.0000
49.5100 719.0000 1.0000
49.5200 719.0000 1.0000
49.5300 792.0000 1.0000
49.5400 755.0000 1.0000
49.5500 789.0000 1.0000
49.5600 750.0000 1.0000
49.5700 779.0000 1.0000
49.5800 780.0000 1.0000
49.5900 754.0000 1.0000
49.6000 738.0000 1.0000
49.6100 780.0000 1.0000
49.6200 808.0000 1.0000
49.6300 759.0000 1.0000
49.6400 765.0000 1.0000
49.6500 767.0000 1.0000
49.6600 765.0000 1.0000
49.6700 781.0000 1.0000
49.6800 762.0000 1.0000
49.6900 803.0000 1.0000
49.7000 832.0000 1.0000
49.7100 771.0000 1.0000
49.7200 753.0000 1.0000
49.7300 783.0000 1.0000
49.7400 754.0000 1.0000
49.7500 754.0000 1.0000
49.7600 752.0000 1.0000
49.7700 746.0000 1.0000
49.7800 794.0000 1.0000
49.7900 746.0000 1.0000
49.8000 774.0000 1.0000
49.8100 749.0000 1.0000
49.8200 791.0000 1.0000
49.8300 739.0000 1.0000
49.8400 746.0000 1.0000
49.8500 708.0000 1.0000
49.8600 706.0000 1.0000
49.8700 768.0000 1.0000
49.8800 816.0000 1.0000
49.8900 794.0000 1.0000
49.9000 796.0000 1.0000
49.9100 732.0000 1.0000
49.9200 757.0000 1.0000
49.9300 735.0000 1.0000
49.9400 772.0000 1.0000
49.9500 746.0000 1.0000
49.9600 774.0000 1.0000
49.9700 787.0000 1.0000
49.9800 784.0000 1.0000
49.9900 738.0000 1.0000
50.0000 750.0000 1.0000
50.0100 771.0000 1.0000
50.0200 763.0000 1.0000
50.0300 730.0000 1.0000
50.0400 774.0000 1.0000
50.0500 786.0000 1.0000
50.0600 753.0000 1.0000
50.0700 815.0000 1.0000
50.0800 801.0000 1.0000
50.0900 802.0000 1.0000
50.1000 755.0000 1.0000
50.1100 790.0000 1.0000
50.1200 826.0000 1.0000
50.1300 766.0000 1.0000
50.1400 747.0000 1.0000
50.1500 795.0000 1.0000
50.1600 742.0000 1.0000
50.1700 748.0000 1.0000
50.1800 754.0000 1.0000
50.1900 779.0000 1.0000
50.2000 747.0000 1.0000
50.2100 768.0000 1.0000
50.2200 811.0000 1.0000
50.2300 767.0000 1.0000
50.2400 769.0000 1.0000
50.2500 778.0000 1.0000
50.2600 756.0000 1.0000
50.2700 746.0000 1.0000
50.2800 743.0000 1.0000
50.2900 752.0000 1.0000
50.3000 797.0000 1.0000
50.3100 781.0000 1.0000
50.3200 796.0000 1.0000
50.3300 772.0000 1.0000
50.3400 733.0000 1.0000
50.3500 771.0000 1.0000
50.3600 808.0000 1.0000
50.3700 784.0000 1.0000
50.3800 752.0000 1.0000
50.3900 801.0000 1.0000
50.4000 760.0000 1.0000
50.4100 787.0000 1.0000
50.4200 771.0000 1.0000
50.4300 759.0000 1.0000
50.4400 802.0000 1.0000
50.4500 773.0000 1.0000
50.4600 802.0000 1.0000
50.4700 766.0000 1.0000
50.4800 781.0000 1.0000
50.4900 779.0000 1.0000
50.5000 742.0000 1.0000
50.5100 737.0000 1.0000
50.5200 745.0000 1.0000
50.5300 801.0000 1.0000
50.5400 823.0000 1.0000
50.5500 806.0000 1.0000
50.5600 843.0000 1.0000
50.5700 769.0000 1.0000
50.5800 790.0000 1.0000
50.5900 760.0000 1.0000
50.6000 754.0000 1.0000
50.6100 789.0000 1.0000
50.6200 780.0000 1.0000
50.6300 788.0000 1.0000
50.6400 773.0000 1.0000
50.6500 837.0000 1.0000
50.6600 803.0000 1.0000
50.6700 797.0000 1.0000
50.6800 767.0000 1.0000
50.6900 761.0000 1.0000
50.7000 777.0000 1.0000
50.7100 778.0000 1.0000
50.7200 772.0000 1.0000
50.7300 744.0000 1.0000
50.7400 746.0000 1.0000
50.7500 750.0000 1.0000
50.7600 756.0000 1.0000
50.7700 726.0000 1.0000
50.7800 791.0000 1.0000
50.7900 820.0000 1.0000
50.8000 782.0000 1.0000
50.8100 751.0000 1.0000
50.8200 778.0000 1.0000
50.8300 796.0000 1.0000
50.8400 787.0000 1.0000
50.8500 797.0000 1.0000
50.8600 736.0000 1.0000
50.8700 760.0000 1.0000
50.8800 779.0000 1.0000
50.8900 818.0000 1.0000
50.9000 781.0000 1.0000
50.9100 730.0000 1.0000
50.9200 754.0000 1.0000
50.9300 775.0000 1.0000
50.9400 788.0000 1.0000
50.9500 763.0000 1.0000
50.9600 790.0000 1.0000
50.9700 823.0000 1.0000
50.9800 779.0000 1.0000
50.9900 785.0000 1.0000
51.0000 777.0000 1.0000
51.0100 738.0000 1.0000
51.0200 782.0000 1.0000
51.0300 790.0000 1.0000
51.0400 760.0000 1.0000
51.0500 785.0000 1.0000
51.0600 775.0000 1.0000
51.0700 761.0000 1.0000
51.0800 773.0000 1.0000
51.0900 749.0000 1.0000
51.1000 757.0000 1.0000
51.1100 805.0000 1.0000
51.1200 775.0000 1.0000
51.1300 817.0000 1.0000
51.1400 781.0000 1.0000
51.1500 802.0000 1.0000
51.1600 770.0000 1.0000
51.1700 776.0000 1.0000
51.1800 782.0000 1.0000
51.1900 814.0000 1.0000
51.2000 808.0000 1.0000
51.2100 802.0000 1.0000
51.2200 747.0000 1.0000
51.2300 780.0000 1.0000
51.2400 756.0000 1.0000
51.2500 784.0000 1.0000
51.2600 775.0000 1.0000
51.2700 762.0000 1.0000
51.2800 760.0000 1.0000
51.2900 751.0000 1.0000
51.3000 791.0000 1.0000
51.3100 780.0000 1.0000
51.3200 786.0000 1.0000
51.3300 783.0000 1.0000
51.3400 774.0000 1.0000
51.3500 777.0000 1.0000
51.3600 782.0000 1.0000
51.3700 801.0000 1.0000
51.3800 792.0000 1.0000
51.3900 787.0000 1.0000
51.4000 784.0000 1.0000
51.4100 780.0000 1.0000
51.4200 805.0000 1.0000
51.4300 797.0000 1.0000
51.4400 794.0000 1.0000
51.4500 779.0000 1.0000
51.4600 779.0000 1.0000
51.4700 804.0000 1.0000
51.4800 763.0000 1.0000
51.4900 792.0000 1.0000
51.5000 787.0000 1.0000
51.5100 825.0000 1.0000
51.5200 780.0000 1.0000
51.5300 783.0000 1.0000
51.5400 784.0000 1.0000
51.5500 807.0000 1.0000
51.5600 822.0000 1.0000
51.5700 775.0000 1.0000
51.5800 759.0000 1.0000
51.5900 733.0000 1.0000
51.6000 797.0000 1.0000
51.6100 799.0000 1.0000
51.6200 769.0000 1.0000
51.6300 807.0000 1.0000
51.6400 786.0000 1.0000
51.6500 804.0000 1.0000
51.6600 848.0000 1.0000
51.6700 852.0000 1.0000
51.6800 827.0000 1.0000
51.6900 792.0000 1.0000
51.7000 823.0000 1.0000
51.7100 805.0000 1.0000
51.7200 828.0000 1.0000
51.7300 857.0000 1.0000
51.7400 826.0000 1.0000
51.7500 845.0000 1.0000
51.7600 824.0000 1.0000
51.7700 880.0000 1.0000
51.7800 859.0000 1.0000
51.7900 856.0000 1.0000
51.8000 852.0000 1.0000
51.8100 890.0000 1.0000
51.8200 879.0000 1.0000
51.8300 901.0000 1.0000
51.8400 878.0000 1.0000
51.8500 899.0000 1.0000
51.8600 909.0000 1.0000
51.8700 894.0000 1.0000
51.8800 921.0000 1.0000
51.8900 907.0000 1.0000
51.9000 980.0000 1.0000
51.9100 1002.0000 1.0000
51.9200 1040.0000 1.0000
51.9300 1024.0000 1.0000
51.9400 1073.0000 1.0000
51.9500 1066.0000 1.0000
51.9600 1076.0000 1.0000
51.9700 1188.0000 1.0000
51.9800 1150.0000 1.0000
51.9900 1146.0000 1.0000
52.0000 1208.0000 1.0000
52.0100 1268.0000 1.0000
52.0200 1299.0000 1.0000
52.0300 1309.0000 1.0000
52.0400 1406.0000 1.0000
52.0500 1515.0000 1.0000
52.0600 1534.0000 1.0000
52.0700 1587.0000 1.0000
52.0800 1678.0000 1.0000
52.0900 1723.0000 1.0000
52.1000 1889.0000 1.0000
52.1100 1973.0000 1.0000
52.1200 2110.0000 1.0000
52.1300 2207.0000 1.0000
52.1400 2458.0000 1.0000
52.1500 2622.0000 1.0000
52.1600 2883.0000 1.0000
52.1700 3157.0000 1.0000
52.1800 3487.0000 1.0000
52.1900 3666.0000 1.0000
52.2000 3853.0000 1.0000
52.2100 4174.0000 1.0000
52.2200 4417.0000 1.0000
52.2300 4610.0000 1.0000
52.2400 4872.0000 1.0000
52.2500 4876.0000 1.0000
52.2600 4832.0000 1.0000
52.2700 4743.0000 1.0000
52.2800 4574.0000 1.0000
52.2900 4660.0000 1.0000
52.3000 4632.0000 1.0000
52.3100 4272.0000 1.0000
52.3200 4134.0000 1.0000
52.3300 3950.0000 1.0000
52.3400 3909.0000 1.0000
52.3500 3830.0000 1.0000
52.3600 3724.0000 1.0000
52.3700 3752.0000 1.0000
52.3800 3637.0000 1.0000
52.3900 3576.0000 1.0000
52.4000 3488.0000 1.0000
52.4100 3285.0000 1.0000
52.4200 3128.0000 1.0000
52.4300 2965.0000 1.0000
52.4400 2791.0000 1.0000
52.4500 2586.0000 1.0000
52.4600 2371.0000 1.0000
52.4700 2274.0000 1.0000
52.4800 2064.0000 1.0000
52.4900 1940.0000 1.0000
52.5000 1892.0000 1.0000
52.5100 1730.0000 1.0000
52.5200 1676.0000 1.0000
52.5300 1579.0000 1.0000
52.5400 1478.0000 1.0000
52.5500 1409.0000 1.0000
52.5600 1378.0000 1.0000
52.5700 1364.0000 1.0000
52.5800 1269.0000 1.0000
52.5900 1284.0000 1.0000
52.6000 1182.0000 1.0000
52.6100 1122.0000 1.0000
52.6200 1188.0000 1.0000
52.6300 1059.0000 1.0000
52.6400 1142.0000 1.0000
52.6500 1027.0000 1.0000
52.6600 1075.0000 1.0000
52.6700 1009.0000 1.0000
52.6800 1029.0000 1.0000
52.6900 989.0000 1.0000
52.7000 974.0000 1.0000
52.7100 972.0000 1.0000
52.7200 970.0000 1.0000
52.7300 944.0000 1.0000
52.7400 905.0000 1.0000
52.7500 922.0000 1.0000
52.7600 958.0000 1.0000
52.7700 946.0000 1.0000
52.7800 886.0000 1.0000
52.7900 909.0000 1.0000
52.8000 857.0000 1.0000
52.8100 874.0000 1.0000
52.8200 826.0000 1.0000
52.8300 860.0000 1.0000
52.8400 874.0000 1.0000
52.8500 906.0000 1.0000
52.8600 875.0000 1.0000
52.8700 802.0000 1.0000
52.8800 808.0000 1.0000
52.8900 859.0000 1.0000
52.9000 847.0000 1.0000
52.9100 858.0000 1.0000
52.9200 879.0000 1.0000
52.9300 874.0000 1.0000
52.9400 819.0000 1.0000
52.9500 842.0000 1.0000
52.9600 811.0000 1.0000
52.9700 841.0000 1.0000
52.9800 794.0000 1.0000
52.9900 786.0000 1.0000
53.0000 799.0000 1.0000
53.0100 794.0000 1.0000
53.0200 805.0000 1.0000
53.0300 816.0000 1.0000
53.0400 828.0000 1.0000
53.0500 770.0000 1.0000
53.0600 838.0000 1.0000
53.0700 824.0000 1.0000
53.0800 756.0000 1.0000
53.0900 780.0000 1.0000
53.1000 772.0000 1.0000
53.1100 791.0000 1.0000
53.1200 804.0000 1.0000
53.1300 756.0000 1.0000
53.1400 773.0000 1.0000
53.1500 790.0000 1.0000
53.1600 781.0000 1.0000
53.1700 798.0000 1.0000
53.1800 763.0000 1.0000
53.1900 766.0000 1.0000
53.2000 786.0000 1.0000
53.2100 828.0000 1.0000
53.2200 751.0000 1.0000
53.2300 741.0000 1.0000
53.2400 783.0000 1.0000
53.2500 797.0000 1.0000
53.2600 768.0000 1.0000
53.2700 751.0000 1.0000
53.2800 745.0000 1.0000
53.2900 743.0000 1.0000
53.3000 767.0000 1.0000
53.3100 786.0000 1.0000
53.3200 741.0000 1.0000
53.3300 790.0000 1.0000
53.3400 808.0000 1.0000
53.3500 740.0000 1.0000
53.3600 724.0000 1.0000
53.3700 695.0000 1.0000
53.3800 776.0000 1.0000
53.3900 747.0000 1.0000
53.4000 764.0000 1.0000
53.4100 736.0000 1.0000
53.4200 720.0000 1.0000
53.4300 733.0000 1.0000
53.4400 763.0000 1.0000
53.4500 769.0000 1.0000
53.4600 714.0000 1.0000
53.4700 742.0000 1.0000
53.4800 733.0000 1.0000
53.4900 733.0000 1.0000
53.5000 769.0000 1.0000
53.5100 758.0000 1.0000
53.5200 772.0000 1.0000
53.5300 741.0000 1.0000
53.5400 814.0000 1.0000
53.5500 786.0000 1.0000
53.5600 762.0000 1.0000
53.5700 752.0000 1.0000
53.5800 742.0000 1.0000
53.5900 749.0000 1.0000
53.6000 744.0000 1.0000
53.6100 731.0000 1.0000
53.6200 743.0000 1.0000
53.6300 754.0000 1.0000
53.6400 762.0000 1.0000
53.6500 760.0000 1.0000
53.6600 692.0000 1.0000
53.6700 721.0000 1.0000
53.6800 763.0000 1.0000
53.6900 748.0000 1.0000
53.7000 720.0000 1.0000
53.7100 759.0000 1.0000
53.7200 740.0000 1.0000
53.7300 741.0000 1.0000
53.7400 695.0000 1.0000
53.7500 739.0000 1.0000
53.7600 780.0000 1.0000
53.7700 767.0000 1.0000
53.7800 742.0000 1.0000
53.7900 818.0000 1.0000
53.8000 748.0000 1.0000
53.8100 763.0000 1.0000
53.8200 742.0000 1.0000
53.8300 725.0000 1.0000
53.8400 750.0000 1.0000
53.8500 733.0000 1.0000
53.8600 757.0000 1.0000
53.8700 721.0000 1.0000
53.8800 709.0000 1.0000
53.8900 734.0000 1.0000
53.9000 780.0000 1.0000
53.9100 756.0000 1.0000
53.9200 692.0000 1.0000
53.9300 728.0000 1.0000
53.9400 756.0000 1.0000
53.9500 750.0000 1.0000
53.9600 740.0000 1.0000
53.9700 745.0000 1.0000
53.9800 737.0000 1.0000
53.9900 723.0000 1.0000
54.0000 748.0000 1.0000
54.0100 721.0000 1.0000
54.0200 740.0000 1.0000
54.0300 750.0000 1.0000
54.0400 785.0000 1.0000
54.0500 757.0000 1.0000
54.0600 768.0000 1.0000
54.0700 776.0000 1.0000
54.0800 767.0000 1.0000
54.0900 750.0000 1.0000
54.1000 755.0000 1.0000
54.1100 753.0000 1.0000
54.1200 755.0000 1.0000
54.1300 735.0000 1.0000
54.1400 662.0000 1.0000
54.1500 713.0000 1.0000
54.1600 765.0000 1.0000
54.1700 777.0000 1.0000
54.1800 756.0000 1.0000
54.1900 718.0000 1.0000
54.2000 759.0000 1.0000
54.2100 752.0000 1.0000
54.2200 758.0000 1.0000
54.2300 763.0000 1.0000
54.2400 747.0000 1.0000
54.2500 667.0000 1.0000
54.2600 753.0000 1.0000
54.2700 742.0000 1.0000
54.2800 742.0000 1.0000
54.2900 742.0000 1.0000
54.3000 727.0000 1.0000
54.3100 725.0000 1.0000
54.3200 763.0000 1.0000
54.3300 769.0000 1.0000
54.3400 733.0000 1.0000
54.3500 738.0000 1.0000
54.3600 725.0000 1.0000
54.3700 749.0000 1.0000
54.3800 722.0000 1.0000
54.3900 794.0000 1.0000
54.4000 749.0000 1.0000
54.4100 761.0000 1.0000
54.4200 760.0000 1.0000
54.4300 748.0000 1.0000
54.4400 709.0000 1.0000
54.4500 729.0000 1.0000
54.4600 705.0000 1.0000
54.4700 775.0000 1.0000
54.4800 760.0000 1.0000
54.4900 786.0000 1.0000
54.5000 740.0000 1.0000
54.5100 763.0000 1.0000
54.5200 786.0000 1.0000
54.5300 730.0000 1.0000
54.5400 734.0000 1.0000
54.5500 765.0000 1.0000
54.5600 733.0000 1.0000
54.5700 734.0000 1.0000
54.5800 744.0000 1.0000
54.5900 731.0000 1.0000
54.6000 705.0000 1.0000
54.6100 739.0000 1.0000
54.6200 744.0000 1.0000
54.6300 726.0000 1.0000
54.6400 763.0000 1.0000
54.6500 720.0000 1.0000
54.6600 740.0000 1.0000
54.6700 749.0000 1.0000
54.6800 743.0000 1.0000
54.6900 748.0000 1.0000
54.7000 755.0000 1.0000
54.7100 749.0000 1.0000
54.7200 793.0000 1.0000
54.7300 754.0000 1.0000
54.7400 703.0000 1.0000
54.7500 721.0000 1.0000
54.7600 786.0000 1.0000
54.7700 741.0000 1.0000
54.7800 777.0000 1.0000
54.7900 800.0000 1.0000
54.8000 762.0000 1.0000
54.8100 741.0000 1.0000
54.8200 724.0000 1.0000
54.8300 765.0000 1.0000
54.8400 775.0000 1.0000
54.8500 736.0000 1.0000
54.8600 759.0000 1.0000
54.8700 765.0000 1.0000
54.8800 792.0000 1.0000
54.8900 786.0000 1.0000
54.9000 766.0000 1.0000
54.9100 810.0000 1.0000
54.9200 773.0000 1.0000
54.9300 759.0000 1.0000
54.9400 782.0000 1.0000
54.9500 799.0000 1.0000
54.9600 780.0000 1.0000
54.9700 795.0000 1.0000
54.9800 820.0000 1.0000
54.9900 836.0000 1.0000
55.0000 805.0000 1.0000
55.0100 814.0000 1.0000
55.0200 826.0000 1.0000
55.0300 837.0000 1.0000
55.0400 830.0000 1.0000
55.0500 838.0000 1.0000
55.0600 818.0000 1.0000
55.0700 882.0000 1.0000
55.0800 880.0000 1.0000
55.0900 867.0000 1.0000
55.1000 865.0000 1.0000
55.1100 879.0000 1.0000
55.1200 869.0000 1.0000
55.1300 868.0000 1.0000
55.1400 926.0000 1.0000
55.1500 962.0000 1.0000
55.1600 961.0000 1.0000
55.1700 989.0000 1.0000
55.1800 997.0000 1.0000
55.1900 993.0000 1.0000
55.2000 1057.0000 1.0000
55.2100 1039.0000 1.0000
55.2200 1124.0000 1.0000
55.2300 1070.0000 1.0000
55.2400 1109.0000 1.0000
55.2500 1097.0000 1.0000
55.2600 1098.0000 1.0000
55.2700 1170.0000 1.0000
55.2800 1105.0000 1.0000
55.2900 1121.0000 1.0000
55.3000 1112.0000 1.0000
55.3100 1167.0000 1.0000
55.3200 1109.0000 1.0000
55.3300 1111.0000 1.0000
55.3400 1104.0000 1.0000
55.3500 1052.0000 1.0000
55.3600 1079.0000 1.0000
55.3700 1058.0000 1.0000
55.3800 1023.0000 1.0000
55.3900 1073.0000 1.0000
55.4000 1020.0000 1.0000
55.4100 1032.0000 1.0000
55.4200 1052.0000 1.0000
55.4300 972.0000 1.0000
55.4400 1014.0000 1.0000
55.4500 974.0000 1.0000
55.4600 956.0000 1.0000
55.4700 947.0000 1.0000
55.4800 914.0000 1.0000
55.4900 901.0000 1.0000
55.5000 898.0000 1.0000
55.5100 903.0000 1.0000
55.5200 910.0000 1.0000
55.5300 818.0000 1.0000
55.5400 866.0000 1.0000
55.5500 859.0000 1.0000
55.5600 831.0000 1.0000
55.5700 797.0000 1.0000
55.5800 806.0000 1.0000
55.5900 832.0000 1.0000
55.6000 792.0000 1.0000
55.6100 786.0000 1.0000
55.6200 804.0000 1.0000
55.6300 821.0000 1.0000
55.6400 821.0000 1.0000
55.6500 792.0000 1.0000
55.6600 795.0000 1.0000
55.6700 767.0000 1.0000
55.6800 790.0000 1.0000
55.6900 780.0000 1.0000
55.7000 802.0000 1.0000
55.7100 750.0000 1.0000
55.7200 795.0000 1.0000
55.7300 747.0000 1.0000
55.7400 737.0000 1.0000
55.7500 751.0000 1.0000
55.7600 758.0000 1.0000
55.7700 764.0000 1.0000
55.7800 777.0000 1.0000
55.7900 735.0000 1.0000
55.8000 722.0000 1.0000
55.8100 718.0000 1.0000
55.8200 745.0000 1.0000
55.8300 757.0000 1.0000
55.8400 739.0000 1.0000
55.8500 696.0000 1.0000
55.8600 761.0000 1.0000
55.8700 726.0000 1.0000
55.8800 747.0000 1.0000
55.8900 778.0000 1.0000
55.9000 731.0000 1.0000
55.9100 764.0000 1.0000
55.9200 761.0000 1.0000
55.9300 743.0000 1.0000
55.9400 738.0000 1.0000
55.9500 751.0000 1.0000
55.9600 743.0000 1.0000
55.9700 720.0000 1.0000
55.9800 734.0000 1.0000
55.9900 738.0000 1.0000
56.0000 730.0000 1.0000
56.0100 732.0000 1.0000
56.0200 720.0000 1.0000
56.0300 706.0000 1.0000
56.0400 715.0000 1.0000
56.0500 703.0000 1.0000
56.0600 720.0000 1.0000
56.0700 715.0000 1.0000
56.0800 700.0000 1.0000
56.0900 700.0000 1.0000
56.1000 678.0000 1.0000
56.1100 717.0000 1.0000
56.1200 693.0000 1.0000
56.1300 743.0000 1.0000
56.1400 713.0000 1.0000
56.1500 714.0000 1.0000
56.1600 711.0000 1.0000
56.1700 681.0000 1.0000
56.1800 705.0000 1.0000
56.1900 719.0000 1.0000
56.2000 728.0000 1.0000
56.2100 692.0000 1.0000
56.2200 718.0000 1.0000
56.2300 718.0000 1.0000
56.2400 718.0000 1.0000
56.2500 730.0000 1.0000
56.2600 692.0000 1.0000
56.2700 710.0000 1.0000
56.2800 742.0000 1.0000
56.2900 748.0000 1.0000
56.3000 739.0000 1.0000
56.3100 717.0000 1.0000
56.3200 722.0000 1.0000
56.3300 706.0000 1.0000
56.3400 711.0000 1.0000
56.3500 720.0000 1.0000
56.3600 722.0000 1.0000
56.3700 749.0000 1.0000
56.3800 713.0000 1.0000
56.3900 727.0000 1.0000
56.4000 740.0000 1.0000
56.4100 707.0000 1.0000
56.4200 702.0000 1.0000
56.4300 711.0000 1.0000
56.4400 702.0000 1.0000
56.4500 698.0000 1.0000
56.4600 706.0000 1.0000
56.4700 705.0000 1.0000
56.4800 747.0000 1.0000
56.4900 700.0000 1.0000
56.5000 701.0000 1.0000
56.5100 709.0000 1.0000
56.5200 700.0000 1.0000
56.5300 682.0000 1.0000
56.5400 674.0000 1.0000
56.5500 759.0000 1.0000
56.5600 711.0000 1.0000
56.5700 669.0000 1.0000
56.5800 673.0000 1.0000
56.5900 719.0000 1.0000
56.6000 739.0000 1.0000
56.6100 704.0000 1.0000
56.6200 719.0000 1.0000
56.6300 691.0000 1.0000
56.6400 739.0000 1.0000
56.6500 725.0000 1.0000
56.6600 711.0000 1.0000
56.6700 738.0000 1.0000
56.6800 745.0000 1.0000
56.6900 761.0000 1.0000
56.7000 761.0000 1.0000
56.7100 665.0000 1.0000
56.7200 742.0000 1.0000
56.7300 732.0000 1.0000
56.7400 748.0000 1.0000
56.7500 738.0000 1.0000
56.7600 690.0000 1.0000
56.7700 724.0000 1.0000
56.7800 700.0000 1.0000
56.7900 683.0000 1.0000
56.8000 724.0000 1.0000
56.8100 713.0000 1.0000
56.8200 718.0000 1.0000
56.8300 717.0000 1.0000
56.8400 682.0000 1.0000
56.8500 731.0000 1.0000
56.8600 738.0000 1.0000
56.8700 714.0000 1.0000
56.8800 703.0000 1.0000
56.8900 736.0000 1.0000
56.9000 659.0000 1.0000
56.9100 664.0000 1.0000
56.9200 691.0000 1.0000
56.9300 744.0000 1.0000
56.9400 715.0000 1.0000
56.9500 694.0000 1.0000
56.9600 737.0000 1.0000
56.9700 717.0000 1.0000
56.9800 696.0000 1.0000
56.9900 667.0000 1.0000
57.0000 741.0000 1.0000
57.0100 755.0000 1.0000
57.0200 680.0000 1.0000
57.0300 719.0000 1.0000
57.0400 730.0000 1.0000
57.0500 755.0000 1.0000
57.0600 714.0000 1.0000
57.0700 662.0000 1.0000
57.0800 700.0000 1.0000
57.0900 704.0000 1.0000
57.1000 710.0000 1.0000
57.1100 733.0000 1.0000
57.1200 679.0000 1.0000
57.1300 729.0000 1.0000
57.1400 714.0000 1.0000
57.1500 696.0000 1.0000
57.1600 706.0000 1.0000
57.1700 708.0000 1.0000
57.1800 692.0000 1.0000
57.1900 712.0000 1.0000
57.2000 702.0000 1.0000
57.2100 695.0000 1.0000
57.2200 662.0000 1.0000
57.2300 707.0000 1.0000
57.2400 695.0000 1.0000
57.2500 683.0000 1.0000
57.2600 719.0000 1.0000
57.2700 695.0000 1.0000
57.2800 673.0000 1.0000
57.2900 731.0000 1.0000
57.3000 723.0000 1.0000
57.3100 694.0000 1.0000
57.3200 724.0000 1.0000
57.3300 717.0000 1.0000
57.3400 719.0000 1.0000
57.3500 706.0000 1.0000
57.3600 727.0000 1.0000
57.3700 684.0000 1.0000
57.3800 707.0000 1.0000
57.3900 709.0000 1.0000
57.4000 677.0000 1.0000
57.4100 660.0000 1.0000
57.4200 680.0000 1.0000
57.4300 645.0000 1.0000
57.4400 725.0000 1.0000
57.4500 679.0000 1.0000
57.4600 741.0000 1.0000
57.4700 737.0000 1.0000
57.4800 713.0000 1.0000
57.4900 702.0000 1.0000
57.5000 722.0000 1.0000
57.5100 714.0000 1.0000
57.5200 645.0000 1.0000
57.5300 672.0000 1.0000
57.5400 694.0000 1.0000
57.5500 697.0000 1.0000
57.5600 725.0000 1.0000
57.5700 672.0000 1.0000
57.5800 663.0000 1.0000
57.5900 698.0000 1.0000
57.6000 703.0000 1.0000
57.6100 713.0000 1.0000
57.6200 661.0000 1.0000
57.6300 707.0000 1.0000
57.6400 694.0000 1.0000
57.6500 681.0000 1.0000
57.6600 677.0000 1.0000
57.6700 676.0000 1.0000
57.6800 751.0000 1.0000
57.6900 690.0000 1.0000
57.7000 704.0000 1.0000
57.7100 667.0000 1.0000
57.7200 726.0000 1.0000
57.7300 742.0000 1.0000
57.7400 708.0000 1.0000
57.7500 702.0000 1.0000
57.7600 705.0000 1.0000
57.7700 722.0000 1.0000
57.7800 693.0000 1.0000
57.7900 711.0000 1.0000
57.8000 731.0000 1.0000
57.8100 718.0000 1.0000
57.8200 700.0000 1.0000
57.8300 689.0000 1.0000
57.8400 714.0000 1.0000
57.8500 719.0000 1.0000
57.8600 681.0000 1.0000
57.8700 704.0000 1.0000
57.8800 746.0000 1.0000
57.8900 724.0000 1.0000
57.9000 708.0000 1.0000
57.9100 738.0000 1.0000
57.9200 749.0000 1.0000
57.9300 677.0000 1.0000
57.9400 730.0000 1.0000
57.9500 723.0000 1.0000
57.9600 718.0000 1.0000
57.9700 752.0000 1.0000
57.9800 750.0000 1.0000
57.9900 735.0000 1.0000
58.0000 734.0000 1.0000
58.0100 706.0000 1.0000
58.0200 653.0000 1.0000
58.0300 719.0000 1.0000
58.0400 666.0000 1.0000
58.0500 693.0000 1.0000
58.0600 725.0000 1.0000
58.0700 691.0000 1.0000
58.0800 698.0000 1.0000
58.0900 710.0000 1.0000
58.1000 680.0000 1.0000
58.1100 751.0000 1.0000
58.1200 695.0000 1.0000
58.1300 750.0000 1.0000
58.1400 729.0000 1.0000
58.1500 694.0000 1.0000
58.1600 684.0000 1.0000
58.1700 755.0000 1.0000
58.1800 703.0000 1.0000
58.1900 711.0000 1.0000
58.2000 748.0000 1.0000
58.2100 737.0000 1.0000
58.2200 708.0000 1.0000
58.2300 646.0000 1.0000
58.2400 668.0000 1.0000
58.2500 712.0000 1.0000
58.2600 750.0000 1.0000
58.2700 723.0000 1.0000
58.2800 748.0000 1.0000
58.2900 699.0000 1.0000
58.3000 720.0000 1.0000
58.3100 729.0000 1.0000
58.3200 725.0000 1.0000
58.3300 698.0000 1.0000
58.3400 713.0000 1.0000
58.3500 718.0000 1.0000
58.3600 721.0000 1.0000
58.3700 702.0000 1.0000
58.3800 698.0000 1.0000
58.3900 694.0000 1.0000
58.4000 695.0000 1.0000
58.4100 706.0000 1.0000
58.4200 700.0000 1.0000
58.4300 718.0000 1.0000
58.4400 703.0000 1.0000
58.4500 708.0000 1.0000
58.4600 732.0000 1.0000
58.4700 675.0000 1.0000
58.4800 692.0000 1.0000
58.4900 720.0000 1.0000
58.5000 739.0000 1.0000
58.5100 741.0000 1.0000
58.5200 744.0000 1.0000
58.5300 697.0000 1.0000
58.5400 697.0000 1.0000
58.5500 692.0000 1.0000
58.5600 708.0000 1.0000
58.5700 735.0000 1.0000
58.5800 708.0000 1.0000
58.5900 769.0000 1.0000
58.6000 733.0000 1.0000
58.6100 734.0000 1.0000
58.6200 720.0000 1.0000
58.6300 735.0000 1.0000
58.6400 766.0000 1.0000
58.6500 698.0000 1.0000
58.6600 723.0000 1.0000
58.6700 724.0000 1.0000
58.6800 696.0000 1.0000
58.6900 710.0000 1.0000
58.7000 712.0000 1.0000
58.7100 669.0000 1.0000
58.7200 718.0000 1.0000
58.7300 740.0000 1.0000
58.7400 707.0000 1.0000
58.7500 687.0000 1.0000
58.7600 674.0000 1.0000
58.7700 696.0000 1.0000
58.7800 718.0000 1.0000
58.7900 699.0000 1.0000
58.8000 751.0000 1.0000
58.8100 736.0000 1.0000
58.8200 727.0000 1.0000
58.8300 701.0000 1.0000
58.8400 692.0000 1.0000
58.8500 656.0000 1.0000
58.8600 721.0000 1.0000
58.8700 685.0000 1.0000
58.8800 702.0000 1.0000
58.8900 712.0000 1.0000
58.9000 752.0000 1.0000
58.9100 694.0000 1.0000
58.9200 689.0000 1.0000
58.9300 681.0000 1.0000
58.9400 718.0000 1.0000
58.9500 733.0000 1.0000
58.9600 709.0000 1.0000
58.9700 670.0000 1.0000
58.9800 655.0000 1.0000
58.9900 727.0000 1.0000
59.0000 720.0000 1.0000
59.0100 737.0000 1.0000
59.0200 702.0000 1.0000
59.0300 677.0000 1.0000
59.0400 648.0000 1.0000
59.0500 687.0000 1.0000
59.0600 698.0000 1.0000
59.0700 735.0000 1.0000
59.0800 669.0000 1.0000
59.0900 706.0000 1.0000
59.1000 737.0000 1.0000
59.1100 681.0000 1.0000
59.1200 665.0000 1.0000
59.1300 682.0000 1.0000
59.1400 706.0000 1.0000
59.1500 726.0000 1.0000
59.1600 706.0000 1.0000
59.1700 713.0000 1.0000
59.1800 714.0000 1.0000
59.1900 719.0000 1.0000
59.2000 727.0000 1.0000
59.2100 716.0000 1.0000
59.2200 696.0000 1.0000
59.2300 755.0000 1.0000
59.2400 706.0000 1.0000
59.2500 725.0000 1.0000
59.2600 707.0000 1.0000
59.2700 746.0000 1.0000
59.2800 718.0000 1.0000
59.2900 707.0000 1.0000
59.3000 741.0000 1.0000
59.3100 728.0000 1.0000
59.3200 753.0000 1.0000
59.3300 725.0000 1.0000
59.3400 695.0000 1.0000
59.3500 710.0000 1.0000
59.3600 728.0000 1.0000
59.3700 698.0000 1.0000
59.3800 684.0000 1.0000
59.3900 725.0000 1.0000
59.4000 762.0000 1.0000
59.4100 716.0000 1.0000
59.4200 673.0000 1.0000
59.4300 730.0000 1.0000
59.4400 710.0000 1.0000
59.4500 728.0000 1.0000
59.4600 744.0000 1.0000
59.4700 724.0000 1.0000
59.4800 722.0000 1.0000
59.4900 666.0000 1.0000
59.5000 683.0000 1.0000
59.5100 720.0000 1.0000
59.5200 683.0000 1.0000
59.5300 651.0000 1.0000
59.5400 698.0000 1.0000
59.5500 692.0000 1.0000
59.5600 696.0000 1.0000
59.5700 689.0000 1.0000
59.5800 692.0000 1.0000
59.5900 706.0000 1.0000
59.6000 660.0000 1.0000
59.6100 704.0000 1.0000
59.6200 696.0000 1.0000
59.6300 669.0000 1.0000
59.6400 645.0000 1.0000
59.6500 709.0000 1.0000
59.6600 731.0000 1.0000
59.6700 721.0000 1.0000
59.6800 710.0000 1.0000
59.6900 721.0000 1.0000
59.7000 688.0000 1.0000
59.7100 666.0000 1.0000
59.7200 664.0000 1.0000
59.7300 659.0000 1.0000
59.7400 721.0000 1.0000
59.7500 686.0000 1.0000
59.7600 701.0000 1.0000
59.7700 709.0000 1.0000
59.7800 697.0000 1.0000
59.7900 730.0000 1.0000
59.8000 737.0000 1.0000
59.8100 723.0000 1.0000
59.8200 750.0000 1.0000
59.8300 701.0000 1.0000
59.8400 727.0000 1.0000
59.8500 733.0000 1.0000
59.8600 695.0000 1.0000
59.8700 682.0000 1.0000
59.8800 691.0000 1.0000
59.8900 695.0000 1.0000
59.9000 685.0000 1.0000
59.9100 690.0000 1.0000
59.9200 676.0000 1.0000
59.9300 682.0000 1.0000
59.9400 745.0000 1.0000
59.9500 698.0000 1.0000
59.9600 738.0000 1.0000
59.9700 702.0000 1.0000
59.9800 708.0000 1.0000
59.9900 698.0000 1.0000
60.0000 732.0000 1.0000
60.0100 712.0000 1.0000
60.0200 680.0000 1.0000
60.0300 729.0000 1.0000
60.0400 724.0000 1.0000
60.0500 734.0000 1.0000
60.0600 680.0000 1.0000
60.0700 685.0000 1.0000
60.0800 664.0000 1.0000
60.0900 704.0000 1.0000
60.1000 701.0000 1.0000
60.1100 683.0000 1.0000
60.1200 696.0000 1.0000
60.1300 670.0000 1.0000
60.1400 717.0000 1.0000
60.1500 693.0000 1.0000
60.1600 721.0000 1.0000
60.1700 681.0000 1.0000
60.1800 685.0000 1.0000
60.1900 675.0000 1.0000
60.2000 695.0000 1.0000
60.2100 715.0000 1.0000
60.2200 750.0000 1.0000
60.2300 704.0000 1.0000
60.2400 731.0000 1.0000
60.2500 753.0000 1.0000
60.2600 720.0000 1.0000
60.2700 682.0000 1.0000
60.2800 710.0000 1.0000
60.2900 710.0000 1.0000
60.3000 701.0000 1.0000
60.3100 691.0000 1.0000
60.3200 703.0000 1.0000
60.3300 665.0000 1.0000
60.3400 664.0000 1.0000
60.3500 691.0000 1.0000
60.3600 730.0000 1.0000
60.3700 703.0000 1.0000
60.3800 727.0000 1.0000
60.3900 741.0000 1.0000
60.4000 697.0000 1.0000
60.4100 723.0000 1.0000
60.4200 759.0000 1.0000
60.4300 679.0000 1.0000
60.4400 688.0000 1.0000
60.4500 711.0000 1.0000
60.4600 685.0000 1.0000
60.4700 709.0000 1.0000
60.4800 716.0000 1.0000
60.4900 686.0000 1.0000
60.5000 681.0000 1.0000
60.5100 699.0000 1.0000
60.5200 720.0000 1.0000
60.5300 693.0000 1.0000
60.5400 686.0000 1.0000
60.5500 738.0000 1.0000
60.5600 692.0000 1.0000
60.5700 720.0000 1.0000
60.5800 687.0000 1.0000
60.5900 705.0000 1.0000
60.6000 701.0000 1.0000
60.6100 710.0000 1.0000
60.6200 725.0000 1.0000
60.6300 698.0000 1.0000
60.6400 735.0000 1.0000
60.6500 724.0000 1.0000
60.6600 723.0000 1.0000
60.6700 742.0000 1.0000
60.6800 707.0000 1.0000
60.6900 672.0000 1.0000
60.7000 696.0000 1.0000
60.7100 674.0000 1.0000
60.7200 721.0000 1.0000
60.7300 712.0000 1.0000
60.7400 724.0000 1.0000
60.7500 716.0000 1.0000
60.7600 691.0000 1.0000
60.7700 673.0000 1.0000
60.7800 717.0000 1.0000
60.7900 704.0000 1.0000
60.8000 706.0000 1.0000
60.8100 700.0000 1.0000
60.8200 689.0000 1.0000
60.8300 723.0000 1.0000
60.8400 686.0000 1.0000
60.8500 707.0000 1.0000
60.8600 724.0000 1.0000
60.8700 696.0000 1.0000
60.8800 714.0000 1.0000
60.8900 680.0000 1.0000
60.9000 692.0000 1.0000
60.9100 752.0000 1.0000
60.9200 691.0000 1.0000
60.9300 719.0000 1.0000
60.9400 717.0000 1.0000
60.9500 704.0000 1.0000
60.9600 737.0000 1.0000
60.9700 731.0000 1.0000
60.9800 729.0000 1.0000
60.9900 692.0000 1.0000
61.0000 633.0000 1.0000
61.0100 697.0000 1.0000
61.0200 697.0000 1.0000
61.0300 701.0000 1.0000
61.0400 668.0000 1.0000
61.0500 723.0000 1.0000
61.0600 741.0000 1.0000
61.0700 738.0000 1.0000
61.0800 708.0000 1.0000
61.0900 732.0000 1.0000
61.1000 694.0000 1.0000
61.1100 722.0000 1.0000
61.1200 699.0000 1.0000
61.1300 697.0000 1.0000
61.1400 728.0000 1.0000
61.1500 711.0000 1.0000
61.1600 712.0000 1.0000
61.1700 690.0000 1.0000
61.1800 706.0000 1.0000
61.1900 738.0000 1.0000
61.2000 692.0000 1.0000
61.2100 702.0000 1.0000
61.2200 667.0000 1.0000
61.2300 689.0000 1.0000
61.2400 684.0000 1.0000
61.2500 744.0000 1.0000
61.2600 715.0000 1.0000
61.2700 720.0000 1.0000
61.2800 706.0000 1.0000
61.2900 684.0000 1.0000
61.3000 726.0000 1.0000
61.3100 726.0000 1.0000
61.3200 736.0000 1.0000
61.3300 705.0000 1.0000
61.3400 704.0000 1.0000
61.3500 745.0000 1.0000
61.3600 732.0000 1.0000
61.3700 764.0000 1.0000
61.3800 703.0000 1.0000
61.3900 713.0000 1.0000
61.4000 694.0000 1.0000
61.4100 735.0000 1.0000
61.4200 700.0000 1.0000
61.4300 734.0000 1.0000
61.4400 734.0000 1.0000
61.4500 723.0000 1.0000
61.4600 753.0000 1.0000
61.4700 754.0000 1.0000
61.4800 735.0000 1.0000
61.4900 707.0000 1.0000
61.5000 753.0000 1.0000
61.5100 765.0000 1.0000
61.5200 738.0000 1.0000
61.5300 770.0000 1.0000
61.5400 710.0000 1.0000
61.5500 734.0000 1.0000
61.5600 744.0000 1.0000
61.5700 728.0000 1.0000
61.5800 734.0000 1.0000
61.5900 779.0000 1.0000
61.6000 719.0000 1.0000
61.6100 735.0000 1.0000
61.6200 741.0000 1.0000
61.6300 697.0000 1.0000
61.6400 740.0000 1.0000
61.6500 706.0000 1.0000
61.6600 725.0000 1.0000
61.6700 726.0000 1.0000
61.6800 735.0000 1.0000
61.6900 746.0000 1.0000
61.7000 792.0000 1.0000
61.7100 762.0000 1.0000
61.7200 744.0000 1.0000
61.7300 742.0000 1.0000
61.7400 703.0000 1.0000
61.7500 729.0000 1.0000
61.7600 774.0000 1.0000
61.7700 783.0000 1.0000
61.7800 759.0000 1.0000
61.7900 785.0000 1.0000
61.8000 777.0000 1.0000
61.8100 786.0000 1.0000
61.8200 773.0000 1.0000
61.8300 795.0000 1.0000
61.8400 815.0000 1.0000
61.8500 808.0000 1.0000
61.8600 818.0000 1.0000
61.8700 815.0000 1.0000
61.8800 827.0000 1.0000
61.8900 824.0000 1.0000
61.9000 818.0000 1.0000
61.9100 843.0000 1.0000
61.9200 778.0000 1.0000
61.9300 855.0000 1.0000
61.9400 865.0000 1.0000
61.9500 859.0000 1.0000
61.9600 919.0000 1.0000
61.9700 924.0000 1.0000
61.9800 907.0000 1.0000
61.9900 866.0000 1.0000
62.0000 930.0000 1.0000
62.0100 962.0000 1.0000
62.0200 933.0000 1.0000
62.0300 986.0000 1.0000
62.0400 995.0000 1.0000
62.0500 1042.0000 1.0000
62.0600 1037.0000 1.0000
62.0700 1052.0000 1.0000
62.0800 1097.0000 1.0000
62.0900 1178.0000 1.0000
62.1000 1164.0000 1.0000
62.1100 1150.0000 1.0000
62.1200 1150.0000 1.0000
62.1300 1256.0000 1.0000
62.1400 1284.0000 1.0000
62.1500 1333.0000 1.0000
62.1600 1339.0000 1.0000
62.1700 1368.0000 1.0000
62.1800 1504.0000 1.0000
62.1900 1454.0000 1.0000
62.2000 1497.0000 1.0000
62.2100 1564.0000 1.0000
62.2200 1643.0000 1.0000
62.2300 1609.0000 1.0000
62.2400 1662.0000 1.0000
62.2500 1654.0000 1.0000
62.2600 1735.0000 1.0000
62.2700 1651.0000 1.0000
62.2800 1710.0000 1.0000
62.2900 1691.0000 1.0000
62.3000 1700.0000 1.0000
62.3100 1701.0000 1.0000
62.3200 1653.0000 1.0000
62.3300 1652.0000 1.0000
62.3400 1574.0000 1.0000
62.3500 1611.0000 1.0000
62.3600 1655.0000 1.0000
62.3700 1654.0000 1.0000
62.3800 1638.0000 1.0000
62.3900 1506.0000 1.0000
62.4000 1561.0000 1.0000
62.4100 1579.0000 1.0000
62.4200 1492.0000 1.0000
62.4300 1463.0000 1.0000
62.4400 1485.0000 1.0000
62.4500 1433.0000 1.0000
62.4600 1377.0000 1.0000
62.4700 1420.0000 1.0000
62.4800 1381.0000 1.0000
62.4900 1332.0000 1.0000
62.5000 1319.0000 1.0000
62.5100 1300.0000 1.0000
62.5200 1282.0000 1.0000
62.5300 1254.0000 1.0000
62.5400 1255.0000 1.0000
62.5500 1237.0000 1.0000
62.5600 1150.0000 1.0000
62.5700 1098.0000 1.0000
62.5800 1195.0000 1.0000
62.5900 1135.0000 1.0000
62.6000 1090.0000 1.0000
62.6100 1053.0000 1.0000
62.6200 1022.0000 1.0000
62.6300 1015.0000 1.0000
62.6400 1014.0000 1.0000
62.6500 1011.0000 1.0000
62.6600 939.0000 1.0000
62.6700 972.0000 1.0000
62.6800 954.0000 1.0000
62.6900 931.0000 1.0000
62.7000 936.0000 1.0000
62.7100 968.0000 1.0000
62.7200 829.0000 1.0000
62.7300 886.0000 1.0000
62.7400 881.0000 1.0000
62.7500 897.0000 1.0000
62.7600 845.0000 1.0000
62.7700 835.0000 1.0000
62.7800 848.0000 1.0000
62.7900 844.0000 1.0000
62.8000 879.0000 1.0000
62.8100 852.0000 1.0000
62.8200 859.0000 1.0000
62.8300 799.0000 1.0000
62.8400 809.0000 1.0000
62.8500 833.0000 1.0000
62.8600 808.0000 1.0000
62.8700 778.0000 1.0000
62.8800 781.0000 1.0000
62.8900 770.0000 1.0000
62.9000 761.0000 1.0000
62.9100 830.0000 1.0000
62.9200 791.0000 1.0000
62.9300 802.0000 1.0000
62.9400 809.0000 1.0000
62.9500 761.0000 1.0000
62.9600 732.0000 1.0000
62.9700 838.0000 1.0000
62.9800 794.0000 1.0000
62.9900 774.0000 1.0000
63.0000 792.0000 1.0000
63.0100 783.0000 1.0000
63.0200 775.0000 1.0000
63.0300 728.0000 1.0000
63.0400 795.0000 1.0000
63.0500 767.0000 1.0000
63.0600 776.0000 1.0000
63.0700 742.0000 1.0000
63.0800 765.0000 1.0000
63.0900 774.0000 1.0000
63.1000 792.0000 1.0000
63.1100 797.0000 1.0000
63.1200 759.0000 1.0000
63.1300 780.0000 1.0000
63.1400 751.0000 1.0000
63.1500 753.0000 1.0000
63.1600 768.0000 1.0000
63.1700 709.0000 1.0000
63.1800 714.0000 1.0000
63.1900 796.0000 1.0000
63.2000 762.0000 1.0000
63.2100 790.0000 1.0000
63.2200 749.0000 1.0000
63.2300 773.0000 1.0000
63.2400 780.0000 1.0000
63.2500 784.0000 1.0000
63.2600 729.0000 1.0000
63.2700 739.0000 1.0000
63.2800 803.0000 1.0000
63.2900 770.0000 1.0000
63.3000 721.0000 1.0000
63.3100 764.0000 1.0000
63.3200 780.0000 1.0000
63.3300 745.0000 1.0000
63.3400 755.0000 1.0000
63.3500 752.0000 1.0000
63.3600 748.0000 1.0000
63.3700 753.0000 1.0000
63.3800 724.0000 1.0000
63.3900 737.0000 1.0000
63.4000 739.0000 1.0000
63.4100 735.0000 1.0000
63.4200 732.0000 1.0000
63.4300 717.0000 1.0000
63.4400 763.0000 1.0000
63.4500 752.0000 1.0000
63.4600 732.0000 1.0000
63.4700 705.0000 1.0000
63.4800 695.0000 1.0000
63.4900 693.0000 1.0000
63.5000 702.0000 1.0000
63.5100 712.0000 1.0000
63.5200 747.0000 1.0000
63.5300 711.0000 1.0000
63.5400 726.0000 1.0000
63.5500 725.0000 1.0000
63.5600 742.0000 1.0000
63.5700 773.0000 1.0000
63.5800 738.0000 1.0000
63.5900 736.0000 1.0000
63.6000 690.0000 1.0000
63.6100 698.0000 1.0000
63.6200 730.0000 1.0000
63.6300 716.0000 1.0000
63.6400 766.0000 1.0000
63.6500 745.0000 1.0000
63.6600 704.0000 1.0000
63.6700 698.0000 1.0000
63.6800 766.0000 1.0000
63.6900 766.0000 1.0000
63.7000 696.0000 1.0000
63.7100 696.0000 1.0000
63.7200 711.0000 1.0000
63.7300 727.0000 1.0000
63.7400 705.0000 1.0000
63.7500 734.0000 1.0000
63.7600 755.0000 1.0000
63.7700 739.0000 1.0000
63.7800 727.0000 1.0000
63.7900 682.0000 1.0000
63.8000 707.0000 1.0000
63.8100 720.0000 1.0000
63.8200 727.0000 1.0000
63.8300 757.0000 1.0000
63.8400 756.0000 1.0000
63.8500 715.0000 1.0000
63.8600 726.0000 1.0000
63.8700 714.0000 1.0000
63.8800 750.0000 1.0000
63.8900 744.0000 1.0000
63.9000 738.0000 1.0000
63.9100 758.0000 1.0000
63.9200 710.0000 1.0000
63.9300 692.0000 1.0000
63.9400 735.0000 1.0000
63.9500 713.0000 1.0000
63.9600 696.0000 1.0000
63.9700 715.0000 1.0000
63.9800 722.0000 1.0000
63.9900 748.0000 1.0000
64.0000 710.0000 1.0000
64.0100 714.0000 1.0000
64.0200 737.0000 1.0000
64.0300 707.0000 1.0000
64.0400 747.0000 1.0000
64.0500 777.0000 1.0000
64.0600 736.0000 1.0000
64.0700 692.0000 1.0000
64.0800 718.0000 1.0000
64.0900 735.0000 1.0000
64.1000 716.0000 1.0000
64.1100 749.0000 1.0000
64.1200 784.0000 1.0000
64.1300 713.0000 1.0000
64.1400 718.0000 1.0000
64.1500 736.0000 1.0000
64.1600 772.0000 1.0000
64.1700 707.0000 1.0000
64.1800 758.0000 1.0000
64.1900 738.0000 1.0000
64.2000 766.0000 1.0000
64.2100 773.0000 1.0000
64.2200 735.0000 1.0000
64.2300 787.0000 1.0000
64.2400 772.0000 1.0000
64.2500 747.0000 1.0000
64.2600 739.0000 1.0000
64.2700 734.0000 1.0000
64.2800 745.0000 1.0000
64.2900 823.0000 1.0000
64.3000 773.0000 1.0000
64.3100 767.0000 1.0000
64.3200 761.0000 1.0000
64.3300 762.0000 1.0000
64.3400 793.0000 1.0000
64.3500 780.0000 1.0000
64.3600 805.0000 1.0000
64.3700 849.0000 1.0000
64.3800 799.0000 1.0000
64.3900 816.0000 1.0000
64.4000 799.0000 1.0000
64.4100 766.0000 1.0000
64.4200 789.0000 1.0000
64.4300 816.0000 1.0000
64.4400 795.0000 1.0000
64.4500 799.0000 1.0000
64.4600 839.0000 1.0000
64.4700 822.0000 1.0000
64.4800 830.0000 1.0000
64.4900 836.0000 1.0000
64.5000 815.0000 1.0000
64.5100 827.0000 1.0000
64.5200 809.0000 1.0000
64.5300 851.0000 1.0000
64.5400 871.0000 1.0000
64.5500 873.0000 1.0000
64.5600 879.0000 1.0000
64.5700 885.0000 1.0000
64.5800 891.0000 1.0000
64.5900 881.0000 1.0000
64.6000 869.0000 1.0000
64.6100 892.0000 1.0000
64.6200 894.0000 1.0000
64.6300 875.0000 1.0000
64.6400 906.0000 1.0000
64.6500 948.0000 1.0000
64.6600 889.0000 1.0000
64.6700 902.0000 1.0000
64.6800 921.0000 1.0000
64.6900 905.0000 1.0000
64.7000 881.0000 1.0000
64.7100 922.0000 1.0000
64.7200 939.0000 1.0000
64.7300 895.0000 1.0000
64.7400 913.0000 1.0000
64.7500 927.0000 1.0000
64.7600 944.0000 1.0000
64.7700 975.0000 1.0000
64.7800 948.0000 1.0000
64.7900 893.0000 1.0000
64.8000 931.0000 1.0000
64.8100 887.0000 1.0000
64.8200 891.0000 1.0000
64.8300 908.0000 1.0000
64.8400 909.0000 1.0000
64.8500 880.0000 1.0000
64.8600 851.0000 1.0000
64.8700 897.0000 1.0000
64.8800 916.0000 1.0000
64.8900 876.0000 1.0000
64.9000 918.0000 1.0000
64.9100 891.0000 1.0000
64.9200 925.0000 1.0000
64.9300 864.0000 1.0000
64.9400 838.0000 1.0000
64.9500 849.0000 1.0000
64.9600 862.0000 1.0000
64.9700 827.0000 1.0000
64.9800 859.0000 1.0000
64.9900 858.0000 1.0000
65.0000 838.0000 1.0000
65.0100 833.0000 1.0000
65.0200 854.0000 1.0000
65.0300 832.0000 1.0000
65.0400 909.0000 1.0000
65.0500 856.0000 1.0000
65.0600 781.0000 1.0000
65.0700 841.0000 1.0000
65.0800 831.0000 1.0000
65.0900 787.0000 1.0000
65.1000 792.0000 1.0000
65.1100 796.0000 1.0000
65.1200 817.0000 1.0000
65.1300 800.0000 1.0000
65.1400 832.0000 1.0000
65.1500 845.0000 1.0000
65.1600 804.0000 1.0000
65.1700 756.0000 1.0000
65.1800 788.0000 1.0000
65.1900 793.0000 1.0000
65.2000 819.0000 1.0000
65.2100 809.0000 1.0000
65.2200 787.0000 1.0000
65.2300 752.0000 1.0000
65.2400 774.0000 1.0000
65.2500 751.0000 1.0000
65.2600 745.0000 1.0000
65.2700 775.0000 1.0000
65.2800 785.0000 1.0000
65.2900 755.0000 1.0000
65.3000 771.0000 1.0000
65.3100 758.0000 1.0000
65.3200 813.0000 1.0000
65.3300 722.0000 1.0000
65.3400 759.0000 1.0000
65.3500 738.0000 1.0000
65.3600 768.0000 1.0000
65.3700 772.0000 1.0000
65.3800 790.0000 1.0000
65.3900 759.0000 1.0000
65.4000 710.0000 1.0000
65.4100 735.0000 1.0000
65.4200 748.0000 1.0000
65.4300 764.0000 1.0000
65.4400 774.0000 1.0000
65.4500 726.0000 1.0000
65.4600 726.0000 1.0000
65.4700 754.0000 1.0000
65.4800 791.0000 1.0000
65.4900 756.0000 1.0000
65.5000 752.0000 1.0000
65.5100 777.0000 1.0000
65.5200 772.0000 1.0000
65.5300 737.0000 1.0000
65.5400 746.0000 1.0000
65.5500 766.0000 1.0000
65.5600 772.0000 1.0000
65.5700 768.0000 1.0000
65.5800 773.0000 1.0000
65.5900 790.0000 1.0000
65.6000 798.0000 1.0000
65.6100 763.0000 1.0000
65.6200 764.0000 1.0000
65.6300 782.0000 1.0000
65.6400 814.0000 1.0000
65.6500 764.0000 1.0000
65.6600 787.0000 1.0000
65.6700 816.0000 1.0000
65.6800 784.0000 1.0000
65.6900 808.0000 1.0000
65.7000 816.0000 1.0000
65.7100 775.0000 1.0000
65.7200 784.0000 1.0000
65.7300 774.0000 1.0000
65.7400 846.0000 1.0000
65.7500 855.0000 1.0000
65.7600 872.0000 1.0000
65.7700 874.0000 1.0000
65.7800 800.0000 1.0000
65.7900 836.0000 1.0000
65.8000 812.0000 1.0000
65.8100 834.0000 1.0000
65.8200 880.0000 1.0000
65.8300 843.0000 1.0000
65.8400 870.0000 1.0000
65.8500 851.0000 1.0000
65.8600 821.0000 1.0000
65.8700 887.0000 1.0000
65.8800 916.0000 1.0000
65.8900 916.0000 1.0000
65.9000 920.0000 1.0000
65.9100 965.0000 1.0000
65.9200 986.0000 1.0000
65.9300 929.0000 1.0000
65.9400 1003.0000 1.0000
65.9500 1012.0000 1.0000
65.9600 956.0000 1.0000
65.9700 1019.0000 1.0000
65.9800 1080.0000 1.0000
65.9900 1105.0000 1.0000
66.0000 1123.0000 1.0000
66.0100 1204.0000 1.0000
66.0200 1231.0000 1.0000
66.0300 1246.0000 1.0000
66.0400 1216.0000 1.0000
66.0500 1270.0000 1.0000
66.0600 1287.0000 1.0000
66.0700 1372.0000 1.0000
66.0800 1407.0000 1.0000
66.0900 1549.0000 1.0000
66.1000 1574.0000 1.0000
66.1100 1708.0000 1.0000
66.1200 1753.0000 1.0000
66.1300 1883.0000 1.0000
66.1400 1932.0000 1.0000
66.1500 1980.0000 1.0000
66.1600 2117.0000 1.0000
66.1700 2211.0000 1.0000
66.1800 2391.0000 1.0000
66.1900 2487.0000 1.0000
66.2000 2527.0000 1.0000
66.2100 2617.0000 1.0000
66.2200 2596.0000 1.0000
66.2300 2642.0000 1.0000
66.2400 2656.0000 1.0000
66.2500 2655.0000 1.0000
66.2600 2628.0000 1.0000
66.2700 2581.0000 1.0000
66.2800 2605.0000 1.0000
66.2900 2635.0000 1.0000
66.3000 2543.0000 1.0000
66.3100 2411.0000 1.0000
66.3200 2394.0000 1.0000
66.3300 2312.0000 1.0000
66.3400 2400.0000 1.0000
66.3500 2356.0000 1.0000
66.3600 2292.0000 1.0000
66.3700 2265.0000 1.0000
66.3800 2212.0000 1.0000
66.3900 2265.0000 1.0000
66.4000 2245.0000 1.0000
66.4100 2159.0000 1.0000
66.4200 2155.0000 1.0000
66.4300 2119.0000 1.0000
66.4400 2020.0000 1.0000
66.4500 1988.0000 1.0000
66.4600 1922.0000 1.0000
66.4700 1900.0000 1.0000
66.4800 1778.0000 1.0000
66.4900 1734.0000 1.0000
66.5000 1689.0000 1.0000
66.5100 1657.0000 1.0000
66.5200 1585.0000 1.0000
66.5300 1516.0000 1.0000
66.5400 1400.0000 1.0000
66.5500 1374.0000 1.0000
66.5600 1290.0000 1.0000
66.5700 1272.0000 1.0000
66.5800 1265.0000 1.0000
66.5900 1258.0000 1.0000
66.6000 1188.0000 1.0000
66.6100 1117.0000 1.0000
66.6200 1146.0000 1.0000
66.6300 1066.0000 1.0000
66.6400 980.0000 1.0000
66.6500 990.0000 1.0000
66.6600 1001.0000 1.0000
66.6700 991.0000 1.0000
66.6800 999.0000 1.0000
66.6900 966.0000 1.0000
66.7000 935.0000 1.0000
66.7100 992.0000 1.0000
66.7200 935.0000 1.0000
66.7300 916.0000 1.0000
66.7400 873.0000 1.0000
66.7500 849.0000 1.0000
66.7600 870.0000 1.0000
66.7700 841.0000 1.0000
66.7800 883.0000 1.0000
66.7900 835.0000 1.0000
66.8000 873.0000 1.0000
66.8100 847.0000 1.0000
66.8200 806.0000 1.0000
66.8300 823.0000 1.0000
66.8400 759.0000 1.0000
66.8500 782.0000 1.0000
66.8600 779.0000 1.0000
66.8700 803.0000 1.0000
66.8800 828.0000 1.0000
66.8900 785.0000 1.0000
66.9000 720.0000 1.0000
66.9100 755.0000 1.0000
66.9200 752.0000 1.0000
66.9300 744.0000 1.0000
66.9400 743.0000 1.0000
66.9500 746.0000 1.0000
66.9600 715.0000 1.0000
66.9700 763.0000 1.0000
66.9800 719.0000 1.0000
66.9900 748.0000 1.0000
67.0000 764.0000 1.0000
67.0100 741.0000 1.0000
67.0200 716.0000 1.0000
67.0300 702.0000 1.0000
67.0400 731.0000 1.0000
67.0500 712.0000 1.0000
67.0600 706.0000 1.0000
67.0700 703.0000 1.0000
67.0800 715.0000 1.0000
67.0900 696.0000 1.0000
67.1000 741.0000 1.0000
67.1100 708.0000 1.0000
67.1200 711.0000 1.0000
67.1300 717.0000 1.0000
67.1400 737.0000 1.0000
67.1500 677.0000 1.0000
67.1600 713.0000 1.0000
67.1700 707.0000 1.0000
67.1800 691.0000 1.0000
67.1900 715.0000 1.0000
67.2000 728.0000 1.0000
67.2100 699.0000 1.0000
67.2200 731.0000 1.0000
67.2300 706.0000 1.0000
67.2400 666.0000 1.0000
67.2500 687.0000 1.0000
67.2600 668.0000 1.0000
67.2700 710.0000 1.0000
67.2800 674.0000 1.0000
67.2900 672.0000 1.0000
67.3000 695.0000 1.0000
67.3100 658.0000 1.0000
67.3200 697.0000 1.0000
67.3300 689.0000 1.0000
67.3400 693.0000 1.0000
67.3500 674.0000 1.0000
67.3600 657.0000 1.0000
67.3700 700.0000 1.0000
67.3800 709.0000 1.0000
67.3900 716.0000 1.0000
67.4000 699.0000 1.0000
67.4100 690.0000 1.0000
67.4200 673.0000 1.0000
67.4300 705.0000 1.0000
67.4400 664.0000 1.0000
67.4500 658.0000 1.0000
67.4600 653.0000 1.0000
67.4700 666.0000 1.0000
67.4800 673.0000 1.0000
67.4900 728.0000 1.0000
67.5000 689.0000 1.0000
67.5100 685.0000 1.0000
67.5200 710.0000 1.0000
67.5300 688.0000 1.0000
67.5400 668.0000 1.0000
67.5500 668.0000 1.0000
67.5600 664.0000 1.0000
67.5700 700.0000 1.0000
67.5800 683.0000 1.0000
67.5900 686.0000 1.0000
67.6000 670.0000 1.0000
67.6100 689.0000 1.0000
67.6200 648.0000 1.0000
67.6300 713.0000 1.0000
67.6400 714.0000 1.0000
67.6500 655.0000 1.0000
67.6600 666.0000 1.0000
67.6700 700.0000 1.0000
67.6800 647.0000 1.0000
67.6900 662.0000 1.0000
67.7000 645.0000 1.0000
67.7100 665.0000 1.0000
67.7200 643.0000 1.0000
67.7300 668.0000 1.0000
67.7400 667.0000 1.0000
67.7500 693.0000 1.0000
67.7600 659.0000 1.0000
67.7700 665.0000 1.0000
67.7800 687.0000 1.0000
67.7900 701.0000 1.0000
67.8000 694.0000 1.0000
67.8100 663.0000 1.0000
67.8200 679.0000 1.0000
67.8300 652.0000 1.0000
67.8400 646.0000 1.0000
67.8500 702.0000 1.0000
67.8600 676.0000 1.0000
67.8700 676.0000 1.0000
67.8800 643.0000 1.0000
67.8900 675.0000 1.0000
67.9000 663.0000 1.0000
67.9100 674.0000 1.0000
67.9200 664.0000 1.0000
67.9300 645.0000 1.0000
67.9400 720.0000 1.0000
67.9500 680.0000 1.0000
67.9600 651.0000 1.0000
67.9700 691.0000 1.0000
67.9800 654.0000 1.0000
67.9900 661.0000 1.0000
68.0000 660.0000 1.0000
68.0100 665.0000 1.0000
68.0200 645.0000 1.0000
68.0300 663.0000 1.0000
68.0400 697.0000 1.0000
68.0500 683.0000 1.0000
68.0600 650.0000 1.0000
68.0700 674.0000 1.0000
68.0800 645.0000 1.0000
68.0900 661.0000 1.0000
68.1000 675.0000 1.0000
68.1100 652.0000 1.0000
68.1200 613.0000 1.0000
68.1300 671.0000 1.0000
68.1400 665.0000 1.0000
68.1500 690.0000 1.0000
68.1600 687.0000 1.0000
68.1700 656.0000 1.0000
68.1800 637.0000 1.0000
68.1900 682.0000 1.0000
68.2000 638.0000 1.0000
68.2100 696.0000 1.0000
68.2200 658.0000 1.0000
68.2300 671.0000 1.0000
68.2400 672.0000 1.0000
68.2500 656.0000 1.0000
68.2600 664.0000 1.0000
68.2700 643.0000 1.0000
68.2800 633.0000 1.0000
68.2900 616.0000 1.0000
68.3000 669.0000 1.0000
68.3100 632.0000 1.0000
68.3200 659.0000 1.0000
68.3300 618.0000 1.0000
68.3400 650.0000 1.0000
68.3500 682.0000 1.0000
68.3600 656.0000 1.0000
68.3700 630.0000 1.0000
68.3800 617.0000 1.0000
68.3900 658.0000 1.0000
68.4000 645.0000 1.0000
68.4100 631.0000 1.0000
68.4200 660.0000 1.0000
68.4300 651.0000 1.0000
68.4400 662.0000 1.0000
68.4500 650.0000 1.0000
68.4600 671.0000 1.0000
68.4700 666.0000 1.0000
68.4800 665.0000 1.0000
68.4900 659.0000 1.0000
68.5000 650.0000 1.0000
68.5100 673.0000 1.0000
68.5200 664.0000 1.0000
68.5300 609.0000 1.0000
68.5400 617.0000 1.0000
68.5500 680.0000 1.0000
68.5600 651.0000 1.0000
68.5700 675.0000 1.0000
68.5800 630.0000 1.0000
68.5900 642.0000 1.0000
68.6000 688.0000 1.0000
68.6100 654.0000 1.0000
68.6200 657.0000 1.0000
68.6300 649.0000 1.0000
68.6400 612.0000 1.0000
68.6500 690.0000 1.0000
68.6600 681.0000 1.0000
68.6700 647.0000 1.0000
68.6800 685.0000 1.0000
68.6900 663.0000 1.0000
68.7000 638.0000 1.0000
68.7100 641.0000 1.0000
68.7200 613.0000 1.0000
68.7300 624.0000 1.0000
68.7400 688.0000 1.0000
68.7500 653.0000 1.0000
68.7600 634.0000 1.0000
68.7700 693.0000 1.0000
68.7800 668.0000 1.0000
68.7900 656.0000 1.0000
68.8000 634.0000 1.0000
68.8100 653.0000 1.0000
68.8200 633.0000 1.0000
68.8300 623.0000 1.0000
68.8400 650.0000 1.0000
68.8500 693.0000 1.0000
68.8600 657.0000 1.0000
68.8700 659.0000 1.0000
68.8800 658.0000 1.0000
68.8900 640.0000 1.0000
68.9000 640.0000 1.0000
68.9100 650.0000 1.0000
68.9200 652.0000 1.0000
68.9300 631.0000 1.0000
68.9400 667.0000 1.0000
68.9500 646.0000 1.0000
68.9600 650.0000 1.0000
68.9700 637.0000 1.0000
68.9800 603.0000 1.0000
68.9900 650.0000 1.0000
69.0000 616.0000 1.0000
69.0100 621.0000 1.0000
69.0200 634.0000 1.0000
69.0300 619.0000 1.0000
69.0400 666.0000 1.0000
69.0500 656.0000 1.0000
69.0600 617.0000 1.0000
69.0700 636.0000 1.0000
69.0800 660.0000 1.0000
69.0900 628.0000 1.0000
69.1000 661.0000 1.0000
69.1100 634.0000 1.0000
69.1200 608.0000 1.0000
69.1300 625.0000 1.0000
69.1400 646.0000 1.0000
69.1500 621.0000 1.0000
69.1600 640.0000 1.0000
69.1700 626.0000 1.0000
69.1800 646.0000 1.0000
69.1900 638.0000 1.0000
69.2000 651.0000 1.0000
69.2100 617.0000 1.0000
69.2200 667.0000 1.0000
69.2300 655.0000 1.0000
69.2400 668.0000 1.0000
69.2500 641.0000 1.0000
69.2600 651.0000 1.0000
69.2700 654.0000 1.0000
69.2800 674.0000 1.0000
69.2900 638.0000 1.0000
69.3000 673.0000 1.0000
69.3100 628.0000 1.0000
69.3200 650.0000 1.0000
69.3300 634.0000 1.0000
69.3400 627.0000 1.0000
69.3500 641.0000 1.0000
69.3600 648.0000 1.0000
69.3700 644.0000 1.0000
69.3800 629.0000 1.0000
69.3900 677.0000 1.0000
69.4000 611.0000 1.0000
69.4100 651.0000 1.0000
69.4200 621.0000 1.0000
69.4300 681.0000 1.0000
69.4400 677.0000 1.0000
69.4500 639.0000 1.0000
69.4600 646.0000 1.0000
69.4700 686.0000 1.0000
69.4800 653.0000 1.0000
69.4900 636.0000 1.0000
69.5000 697.0000 1.0000
69.5100 692.0000 1.0000
69.5200 635.0000 1.0000
69.5300 649.0000 1.0000
69.5400 629.0000 1.0000
69.5500 664.0000 1.0000
69.5600 648.0000 1.0000
69.5700 693.0000 1.0000
69.5800 660.0000 1.0000
69.5900 638.0000 1.0000
69.6000 634.0000 1.0000
69.6100 653.0000 1.0000
69.6200 651.0000 1.0000
69.6300 597.0000 1.0000
69.6400 674.0000 1.0000
69.6500 660.0000 1.0000
69.6600 640.0000 1.0000
69.6700 636.0000 1.0000
69.6800 634.0000 1.0000
69.6900 646.0000 1.0000
69.7000 656.0000 1.0000
69.7100 610.0000 1.0000
69.7200 608.0000 1.0000
69.7300 636.0000 1.0000
69.7400 628.0000 1.0000
69.7500 641.0000 1.0000
69.7600 617.0000 1.0000
69.7700 628.0000 1.0000
69.7800 656.0000 1.0000
69.7900 647.0000 1.0000
69.8000 598.0000 1.0000
69.8100 616.0000 1.0000
69.8200 657.0000 1.0000
69.8300 634.0000 1.0000
69.8400 654.0000 1.0000
69.8500 629.0000 1.0000
69.8600 623.0000 1.0000
69.8700 601.0000 1.0000
69.8800 601.0000 1.0000
69.8900 661.0000 1.0000
69.9000 662.0000 1.0000
69.9100 637.0000 1.0000
69.9200 573.0000 1.0000
69.9300 590.0000 1.0000
69.9400 618.0000 1.0000
69.9500 668.0000 1.0000
69.9600 664.0000 1.0000
69.9700 660.0000 1.0000
69.9800 662.0000 1.0000
69.9900 630.0000 1.0000
70.0000 615.0000 1.0000
*RAS_INT_END
*RAS_TEMPERATURE_START
*RAS_TEMPERATURE_END
*RAS_DATA_END
