*RAS_DATA_START
*RAS_HEADER_START
*DISP_FMT_X "%.2f"
*DISP_FMT_Y "%.0f"
*DISP_FULLSCALE "15334.0000000000"
*DISP_LINE_COLOR "255.0000000000"
*DISP_LINE_STYLE "0.0000000000"
*DISP_LINE_WIDTH "0.2500000000"
*DISP_NOTE "測定データ-7"
*DISP_OFFSET_Y "0.0000000000"
*DISP_PEAKSEARCH_UNIT_Y "cps"
*DISP_RANGE_BOTTOM "0.0000000000"
*DISP_RANGE_LEFT "20.0000000000"
*DISP_RANGE_LOGCUTOFF "0.0100000000"
*DISP_RANGE_RIGHT "70.0000000000"
*DISP_RANGE_TOP "15334.0000000000"
*DISP_SCALE_MODE_Y "0.0000000000"
*DISP_TAB_NAME "2θ/θ"
*DISP_TITLE_Y "強度"
*DISP_UNIT_Y "cps"
*DISP_WINDOW_NAME "MSG_MACROENGINE"
*FILE_COMMENT " "
*FILE_MD5 ""
*FILE_MEMO " "
*FILE_OPERATOR "Administrator"
*FILE_SAMPLE " "
*FILE_TYPE "RAS_RAW"
*FILE_USERGROUP "システムマネージャ"
*FILE_VERSION "1.0000000000"
*HW_ATTACHMENT_ID "ATT0025"
*HW_ATTACHMENT_NAME "標準|Standard"
*HW_COUNTER_ID-0 "CUT0025"
*HW_COUNTER_ID-1 "CUT0020"
*HW_COUNTER_ID-2 "CUT0020"
*HW_COUNTER_ID-3 "CSL0021"
*HW_COUNTER_ID-4 "CMC0021"
*HW_COUNTER_NAME-0 "D/teX Ultra|D/teX Ultra"
*HW_COUNTER_NAME-1 "None|None"
*HW_COUNTER_NAME-2 "None|None"
*HW_COUNTER_NAME-3 "BBM|BBM"
*HW_COUNTER_NAME-4 "検出器モノクロメータ|Detector monochromator"
*HW_COUNTER_SELECT_NAME "D/teX Ultra|D/teX Ultra"
*HW_GONIOMETER_ID "GON0023"
*HW_GONIOMETER_NAME "SmartLab|SmartLab"
*HW_GONIOMETER_RADIUS-0 "90.0"
*HW_GONIOMETER_RADIUS-1 "114.0"
*HW_GONIOMETER_RADIUS-2 "190.0"
*HW_GONIOMETER_RADIUS-3 "300.0"
*HW_GONIOMETER_RADIUS-4 "187.0"
*HW_GONIOMETER_RADIUS-5 "300.0"
*HW_GONIOMETER_RADIUS-6 "113.0"
*HW_GONIOMETER_RADIUS-7 "331.0"
*HW_I_OPT_ID-0 "CBO0021"
*HW_I_OPT_ID-1 "ICR0023"
*HW_I_OPT_ID-2 "ISL0021"
*HW_I_OPT_ID-3 "ISO0021"
*HW_I_OPT_ID-4 "IAD0021"
*HW_I_OPT_ID-5 "IPR0001"
*HW_I_OPT_NAME-0 "CBOユニット|CBO unit"
*HW_I_OPT_NAME-1 "標準入射光学ユニット|Standard incident optical unit"
*HW_I_OPT_NAME-2 "標準入射スリットボックス|Standard incident slit box"
*HW_I_OPT_NAME-3 "入射平行スリット|Incident parallel slit"
*HW_I_OPT_NAME-4 "長手制限スリット|Length limiting slit"
*HW_I_OPT_NAME-5 "None|None"
*HW_R_ATTENUATER_AUTOMODE "0"
*HW_R_OPT_ID-0 "RSS0021"
*HW_R_OPT_ID-1 "RCR0023"
*HW_R_OPT_ID-2 "RSO0021"
*HW_R_OPT_ID-3 "RRS0021"
*HW_R_OPT_ID-4 "ATN0021"
*HW_R_OPT_ID-5 "RFL0021"
*HW_R_OPT_ID-6 "RAD0021"
*HW_R_OPT_NAME-0 "標準受光スリットボックス1|Standard receiving slit box # 1"
*HW_R_OPT_NAME-1 "標準受光光学ユニット1|Standard receiving unit # 1"
*HW_R_OPT_NAME-2 "標準受光光学ユニット2|Standard receiving optical unit # 2"
*HW_R_OPT_NAME-3 "標準受光スリットボックス2|Standard receiving slit box # 2"
*HW_R_OPT_NAME-4 "標準アッテネータ|Standard Attenuator"
*HW_R_OPT_NAME-5 "Cu Kβ|Cu K-beta"
*HW_R_OPT_NAME-6 "調整用受光スリット|Alignment receiving slit"
*HW_SAMPLE_HOLDER_ID "SMP0023"
*HW_SAMPLE_HOLDER_NAME "標準Zステージ|Standard Z stage"
*HW_XG_CURRENT_MAX "50"
*HW_XG_CURRENT_MIN "2"
*HW_XG_CURRENT_RESOLUTION "1"
*HW_XG_CURRENT_UNIT "mA"
*HW_XG_FOCUS "1mm x 10mm"
*HW_XG_FOCUS_TYPE "Normal"
*HW_XG_ID ""
*HW_XG_NAME "3kW 封入管(ID:1200)|3kW Sealed tube(ID:1200)"
*HW_XG_TARGET_ATOMIC_NUMBER "29.0000000000"
*HW_XG_TARGET_NAME "Cu"
*HW_XG_TYPE "Hermetic"
*HW_XG_VOLTAGE_MAX "60"
*HW_XG_VOLTAGE_MIN "20"
*HW_XG_VOLTAGE_RESOLUTION "1"
*HW_XG_VOLTAGE_UNIT "kV"
*HW_XG_WATT_MAX "1.500"
*HW_XG_WATT_UNIT "kW"
*HW_XG_WAVE_LENGTH_ALPHA1 "1.540593"
*HW_XG_WAVE_LENGTH_ALPHA2 "1.544414"
*HW_XG_WAVE_LENGTH_BETA "1.392250"
*MEAS_COND_AXIS_NAME-0 "2θ/θ"
*MEAS_COND_AXIS_NAME-1 "2θ"
*MEAS_COND_AXIS_NAME-2 "ω"
*MEAS_COND_AXIS_NAME-3 "Z"
*MEAS_COND_AXIS_NAME-4 "2θ/ω"
*MEAS_COND_AXIS_NAME-5 "θs"
*MEAS_COND_AXIS_NAME-6 "θd"
*MEAS_COND_AXIS_NAME-7 "Ts"
*MEAS_COND_AXIS_NAME-8 "CBO選択スリット"
*MEAS_COND_AXIS_NAME-9 "M"
*MEAS_COND_AXIS_NAME-10 "入射平行スリット"
*MEAS_COND_AXIS_NAME-11 "入射スリット"
*MEAS_COND_AXIS_NAME-12 ""
*MEAS_COND_AXIS_NAME-13 "Zs"
*MEAS_COND_AXIS_NAME-14 "入射光学素子"
*MEAS_COND_AXIS_NAME-15 "長手制限スリット"
*MEAS_COND_AXIS_NAME-16 "センタースリット"
*MEAS_COND_AXIS_NAME-17 "フィルター"
*MEAS_COND_AXIS_NAME-18 "受光スリット1"
*MEAS_COND_AXIS_NAME-19 "受光スリット2"
*MEAS_COND_AXIS_NAME-20 "受光光学素子"
*MEAS_COND_AXIS_NAME-21 "受光平行スリット"
*MEAS_COND_AXIS_NAME-22 "調整用受光スリット"
*MEAS_COND_AXIS_NAME-23 ""
*MEAS_COND_AXIS_NAME-24 ""
*MEAS_COND_AXIS_NAME-25 "Zd"
*MEAS_COND_AXIS_NAME-26 "アッテネータ"
*MEAS_COND_AXIS_NAME-27 "検出器モノクロメータ"
*MEAS_COND_AXIS_NAME-28 "モノクロメータスリット"
*MEAS_COND_AXIS_NAME-29 "プライマリビーム"
*MEAS_COND_AXIS_NAME-30 "PHA"
*MEAS_COND_AXIS_NAME_INTERNAL-0 "TwoThetaTheta"
*MEAS_COND_AXIS_NAME_INTERNAL-1 "TwoTheta"
*MEAS_COND_AXIS_NAME_INTERNAL-2 "Omega"
*MEAS_COND_AXIS_NAME_INTERNAL-3 "Z"
*MEAS_COND_AXIS_NAME_INTERNAL-4 "TwoThetaOmega"
*MEAS_COND_AXIS_NAME_INTERNAL-5 "ThetaS"
*MEAS_COND_AXIS_NAME_INTERNAL-6 "ThetaD"
*MEAS_COND_AXIS_NAME_INTERNAL-7 "Ts"
*MEAS_COND_AXIS_NAME_INTERNAL-8 "CBO"
*MEAS_COND_AXIS_NAME_INTERNAL-9 "CBO-M"
*MEAS_COND_AXIS_NAME_INTERNAL-10 "IncidentSollerSlit"
*MEAS_COND_AXIS_NAME_INTERNAL-11 "IncidentSlitBox"
*MEAS_COND_AXIS_NAME_INTERNAL-12 "IncidentSlitBox-_Axis"
*MEAS_COND_AXIS_NAME_INTERNAL-13 "Zs"
*MEAS_COND_AXIS_NAME_INTERNAL-14 "IncidentMonochromator"
*MEAS_COND_AXIS_NAME_INTERNAL-15 "IncidentAxdSlit"
*MEAS_COND_AXIS_NAME_INTERNAL-16 "CenterSlit"
*MEAS_COND_AXIS_NAME_INTERNAL-17 "Filter"
*MEAS_COND_AXIS_NAME_INTERNAL-18 "ReceivingSlitBox1"
*MEAS_COND_AXIS_NAME_INTERNAL-19 "ReceivingSlitBox2"
*MEAS_COND_AXIS_NAME_INTERNAL-20 "ReceivingOptics"
*MEAS_COND_AXIS_NAME_INTERNAL-21 "ReceivingSollerSlit"
*MEAS_COND_AXIS_NAME_INTERNAL-22 "ReceivingAxdSlit"
*MEAS_COND_AXIS_NAME_INTERNAL-23 "ReceivingSlitBox1-_Axis"
*MEAS_COND_AXIS_NAME_INTERNAL-24 "ReceivingSlitBox2-_Axis"
*MEAS_COND_AXIS_NAME_INTERNAL-25 "ReceivingSlitBox2-Zd"
*MEAS_COND_AXIS_NAME_INTERNAL-26 "Attenuator"
*MEAS_COND_AXIS_NAME_INTERNAL-27 "CounterMonochromator"
*MEAS_COND_AXIS_NAME_INTERNAL-28 "CounterSlit"
*MEAS_COND_AXIS_NAME_INTERNAL-29 "IncidentPrimary"
*MEAS_COND_AXIS_NAME_INTERNAL-30 "PHA"
*MEAS_COND_AXIS_NAME_MAGICNO-0 "83951616.0000000000"
*MEAS_COND_AXIS_NAME_MAGICNO-1 "268632064.0000000000"
*MEAS_COND_AXIS_NAME_MAGICNO-2 "268500992.0000000000"
*MEAS_COND_AXIS_NAME_MAGICNO-3 "285278208.0000000000"
*MEAS_COND_AXIS_NAME_MAGICNO-4 "83951616.0000000000"
*MEAS_COND_AXIS_NAME_MAGICNO-5 "131072.0000000000"
*MEAS_COND_AXIS_NAME_MAGICNO-6 "131072.0000000000"
*MEAS_COND_AXIS_NAME_MAGICNO-7 "318898176.0000000000"
*MEAS_COND_AXIS_NAME_MAGICNO-8 "20971521.0000000000"
*MEAS_COND_AXIS_NAME_MAGICNO-9 "285343744.0000000000"
*MEAS_COND_AXIS_NAME_MAGICNO-10 "20971521.0000000000"
*MEAS_COND_AXIS_NAME_MAGICNO-11 "22020097.0000000000"
*MEAS_COND_AXIS_NAME_MAGICNO-12 "25165824.0000000000"
*MEAS_COND_AXIS_NAME_MAGICNO-13 "318898176.0000000000"
*MEAS_COND_AXIS_NAME_MAGICNO-14 "1.0000000000"
*MEAS_COND_AXIS_NAME_MAGICNO-15 "20971521.0000000000"
*MEAS_COND_AXIS_NAME_MAGICNO-16 "20971521.0000000000"
*MEAS_COND_AXIS_NAME_MAGICNO-17 "20971521.0000000000"
*MEAS_COND_AXIS_NAME_MAGICNO-18 "23068673.0000000000"
*MEAS_COND_AXIS_NAME_MAGICNO-19 "23068673.0000000000"
*MEAS_COND_AXIS_NAME_MAGICNO-20 "20971521.0000000000"
*MEAS_COND_AXIS_NAME_MAGICNO-21 "20971521.0000000000"
*MEAS_COND_AXIS_NAME_MAGICNO-22 "20971521.0000000000"
*MEAS_COND_AXIS_NAME_MAGICNO-23 "25165824.0000000000"
*MEAS_COND_AXIS_NAME_MAGICNO-24 "25165824.0000000000"
*MEAS_COND_AXIS_NAME_MAGICNO-25 "285343744.0000000000"
*MEAS_COND_AXIS_NAME_MAGICNO-26 "17301505.0000000000"
*MEAS_COND_AXIS_NAME_MAGICNO-27 "20971521.0000000000"
*MEAS_COND_AXIS_NAME_MAGICNO-28 "20971521.0000000000"
*MEAS_COND_AXIS_NAME_MAGICNO-29 "20971521.0000000000"
*MEAS_COND_AXIS_NAME_MAGICNO-30 "0.0000000000"
*MEAS_COND_AXIS_OFFSET-0 "-"
*MEAS_COND_AXIS_OFFSET-1 "-0.1081000000"
*MEAS_COND_AXIS_OFFSET-2 "0.3758000000"
*MEAS_COND_AXIS_OFFSET-3 "-"
*MEAS_COND_AXIS_OFFSET-4 "-"
*MEAS_COND_AXIS_OFFSET-5 "0.3758000000"
*MEAS_COND_AXIS_OFFSET-6 "-0.4839000000"
*MEAS_COND_AXIS_OFFSET-7 "-"
*MEAS_COND_AXIS_OFFSET-8 "-"
*MEAS_COND_AXIS_OFFSET-9 "-"
*MEAS_COND_AXIS_OFFSET-10 "-"
*MEAS_COND_AXIS_OFFSET-11 "-"
*MEAS_COND_AXIS_OFFSET-12 "-"
*MEAS_COND_AXIS_OFFSET-13 "-"
*MEAS_COND_AXIS_OFFSET-14 "-"
*MEAS_COND_AXIS_OFFSET-15 "-"
*MEAS_COND_AXIS_OFFSET-16 "-"
*MEAS_COND_AXIS_OFFSET-17 "-"
*MEAS_COND_AXIS_OFFSET-18 "-"
*MEAS_COND_AXIS_OFFSET-19 "-"
*MEAS_COND_AXIS_OFFSET-20 "-"
*MEAS_COND_AXIS_OFFSET-21 "-"
*MEAS_COND_AXIS_OFFSET-22 "-"
*MEAS_COND_AXIS_OFFSET-23 "-"
*MEAS_COND_AXIS_OFFSET-24 "-"
*MEAS_COND_AXIS_OFFSET-25 "-"
*MEAS_COND_AXIS_OFFSET-26 "-"
*MEAS_COND_AXIS_OFFSET-27 "-"
*MEAS_COND_AXIS_OFFSET-28 "-"
*MEAS_COND_AXIS_OFFSET-29 "-"
*MEAS_COND_AXIS_OFFSET-30 "-"
*MEAS_COND_AXIS_POSITION-0 "0.0000000000"
*MEAS_COND_AXIS_POSITION-1 "0.0000000000"
*MEAS_COND_AXIS_POSITION-2 "0.0000000000"
*MEAS_COND_AXIS_POSITION-3 "-0.5500000000"
*MEAS_COND_AXIS_POSITION-4 "0.0000000000"
*MEAS_COND_AXIS_POSITION-5 "0.0000000000"
*MEAS_COND_AXIS_POSITION-6 "0.0000000000"
*MEAS_COND_AXIS_POSITION-7 "-0.4278800000"
*MEAS_COND_AXIS_POSITION-8 "BB"
*MEAS_COND_AXIS_POSITION-9 "0.0000000000"
*MEAS_COND_AXIS_POSITION-10 "Soller_slit_5.0deg"
*MEAS_COND_AXIS_POSITION-11 "2/3deg"
*MEAS_COND_AXIS_POSITION-12 "2.2088000000"
*MEAS_COND_AXIS_POSITION-13 "-0.4140600000"
*MEAS_COND_AXIS_POSITION-14 "0.0000000000"
*MEAS_COND_AXIS_POSITION-15 "10.0mm"
*MEAS_COND_AXIS_POSITION-16 "None"
*MEAS_COND_AXIS_POSITION-17 "Cu_K-beta"
*MEAS_COND_AXIS_POSITION-18 "13.000mm"
*MEAS_COND_AXIS_POSITION-19 "13.000mm"
*MEAS_COND_AXIS_POSITION-20 "No_unit"
*MEAS_COND_AXIS_POSITION-21 "Soller_slit_5.0deg"
*MEAS_COND_AXIS_POSITION-22 "None"
*MEAS_COND_AXIS_POSITION-23 "13.0000000000"
*MEAS_COND_AXIS_POSITION-24 "13.0000000000"
*MEAS_COND_AXIS_POSITION-25 "0.0109400000"
*MEAS_COND_AXIS_POSITION-26 "Open"
*MEAS_COND_AXIS_POSITION-27 "None"
*MEAS_COND_AXIS_POSITION-28 "None"
*MEAS_COND_AXIS_POSITION-29 "None"
*MEAS_COND_AXIS_POSITION-30 "38.0000000000"
*MEAS_COND_AXIS_UNIT-0 "deg"
*MEAS_COND_AXIS_UNIT-1 "deg"
*MEAS_COND_AXIS_UNIT-2 "deg"
*MEAS_COND_AXIS_UNIT-3 "mm"
*MEAS_COND_AXIS_UNIT-4 "deg"
*MEAS_COND_AXIS_UNIT-5 "deg"
*MEAS_COND_AXIS_UNIT-6 "deg"
*MEAS_COND_AXIS_UNIT-7 "mm"
*MEAS_COND_AXIS_UNIT-8 ""
*MEAS_COND_AXIS_UNIT-9 "pulse"
*MEAS_COND_AXIS_UNIT-10 ""
*MEAS_COND_AXIS_UNIT-11 ""
*MEAS_COND_AXIS_UNIT-12 "mm"
*MEAS_COND_AXIS_UNIT-13 "mm"
*MEAS_COND_AXIS_UNIT-14 ""
*MEAS_COND_AXIS_UNIT-15 ""
*MEAS_COND_AXIS_UNIT-16 ""
*MEAS_COND_AXIS_UNIT-17 ""
*MEAS_COND_AXIS_UNIT-18 ""
*MEAS_COND_AXIS_UNIT-19 ""
*MEAS_COND_AXIS_UNIT-20 ""
*MEAS_COND_AXIS_UNIT-21 ""
*MEAS_COND_AXIS_UNIT-22 ""
*MEAS_COND_AXIS_UNIT-23 "mm"
*MEAS_COND_AXIS_UNIT-24 "mm"
*MEAS_COND_AXIS_UNIT-25 "mm"
*MEAS_COND_AXIS_UNIT-26 ""
*MEAS_COND_AXIS_UNIT-27 ""
*MEAS_COND_AXIS_UNIT-28 ""
*MEAS_COND_AXIS_UNIT-29 ""
*MEAS_COND_AXIS_UNIT-30 "div"
*MEAS_COND_COUNTER_CNTLOSS_CORR "0.0000000000"
*MEAS_COND_COUNTER_PHABASE "38.0000000000"
*MEAS_COND_COUNTER_PHAWINDOW "16.0000000000"
*MEAS_COND_COUNTER_PHA_UNIT "div"
*MEAS_COND_COUNTER_TAUDIFF "30.0000000000"
*MEAS_COND_COUNTER_TAUINT "0.0000000000"
*MEAS_COND_IRRADIATION_MODE "OFF"
*MEAS_COND_IRRADIATION_WIDTH ""
*MEAS_COND_OPT_ATTR "集中法"
*MEAS_COND_OPT_NAME "@集中法"
*MEAS_COND_UNSYMMETRIC_MODE "OFF"
*MEAS_COND_XG_CURRENT "30.0000000000"
*MEAS_COND_XG_VOLTAGE "40.0000000000"
*MEAS_COND_XG_WAVE_TYPE "Ka"
*MEAS_DATA_COUNT "5001.0000000000"
*MEAS_SCAN_AXIS_X "2θ/θ"
*MEAS_SCAN_AXIS_X_INTERNAL "TwoThetaTheta"
*MEAS_SCAN_END_TIME "07/08/21 18:54:36"
*MEAS_SCAN_MODE "CONTINUOUS"
*MEAS_SCAN_MONITOR "0"
*MEAS_SCAN_RESOLUTION_X "0.0002"
*MEAS_SCAN_SPEED "1.0"
*MEAS_SCAN_SPEED_UNIT "deg/min"
*MEAS_SCAN_START "20.0000000000"
*MEAS_SCAN_START_TIME "07/08/21 18:01:42"
*MEAS_SCAN_STEP "0.0100000000"
*MEAS_SCAN_STOP "70.0000000000"
*MEAS_SCAN_UNIT_X "deg"
*MEAS_SCAN_UNIT_Y "counts"
*RAS_HEADER_END
*RAS_INT_START
20.0000 1729.0000 1.0000
20.0100 1647.0000 1.0000
20.0200 1656.0000 1.0000
20.0300 1664.0000 1.0000
20.0400 1577.0000 1.0000
20.0500 1737.0000 1.0000
20.0600 1759.0000 1.0000
20.0700 1717.0000 1.0000
20.0800 1762.0000 1.0000
20.0900 1707.0000 1.0000
20.1000 1667.0000 1.0000
20.1100 1683.0000 1.0000
20.1200 1690.0000 1.0000
20.1300 1701.0000 1.0000
20.1400 1687.0000 1.0000
20.1500 1732.0000 1.0000
20.1600 1674.0000 1.0000
20.1700 1660.0000 1.0000
20.1800 1680.0000 1.0000
20.1900 1682.0000 1.0000
20.2000 1710.0000 1.0000
20.2100 1739.0000 1.0000
20.2200 1648.0000 1.0000
20.2300 1704.0000 1.0000
20.2400 1711.0000 1.0000
20.2500 1640.0000 1.0000
20.2600 1641.0000 1.0000
20.2700 1686.0000 1.0000
20.2800 1769.0000 1.0000
20.2900 1729.0000 1.0000
20.3000 1671.0000 1.0000
20.3100 1635.0000 1.0000
20.3200 1671.0000 1.0000
20.3300 1694.0000 1.0000
20.3400 1694.0000 1.0000
20.3500 1734.0000 1.0000
20.3600 1693.0000 1.0000
20.3700 1646.0000 1.0000
20.3800 1672.0000 1.0000
20.3900 1713.0000 1.0000
20.4000 1658.0000 1.0000
20.4100 1688.0000 1.0000
20.4200 1649.0000 1.0000
20.4300 1697.0000 1.0000
20.4400 1685.0000 1.0000
20.4500 1679.0000 1.0000
20.4600 1680.0000 1.0000
20.4700 1701.0000 1.0000
20.4800 1623.0000 1.0000
20.4900 1668.0000 1.0000
20.5000 1788.0000 1.0000
20.5100 1706.0000 1.0000
20.5200 1703.0000 1.0000
20.5300 1697.0000 1.0000
20.5400 1692.0000 1.0000
20.5500 1669.0000 1.0000
20.5600 1656.0000 1.0000
20.5700 1587.0000 1.0000
20.5800 1678.0000 1.0000
20.5900 1663.0000 1.0000
20.6000 1611.0000 1.0000
20.6100 1691.0000 1.0000
20.6200 1664.0000 1.0000
20.6300 1634.0000 1.0000
20.6400 1738.0000 1.0000
20.6500 1725.0000 1.0000
20.6600 1725.0000 1.0000
20.6700 1701.0000 1.0000
20.6800 1745.0000 1.0000
20.6900 1745.0000 1.0000
20.7000 1681.0000 1.0000
20.7100 1656.0000 1.0000
20.7200 1656.0000 1.0000
20.7300 1660.0000 1.0000
20.7400 1670.0000 1.0000
20.7500 1633.0000 1.0000
20.7600 1621.0000 1.0000
20.7700 1628.0000 1.0000
20.7800 1671.0000 1.0000
20.7900 1687.0000 1.0000
20.8000 1725.0000 1.0000
20.8100 1622.0000 1.0000
20.8200 1688.0000 1.0000
20.8300 1657.0000 1.0000
20.8400 1632.0000 1.0000
20.8500 1759.0000 1.0000
20.8600 1687.0000 1.0000
20.8700 1701.0000 1.0000
20.8800 1674.0000 1.0000
20.8900 1639.0000 1.0000
20.9000 1676.0000 1.0000
20.9100 1704.0000 1.0000
20.9200 1751.0000 1.0000
20.9300 1692.0000 1.0000
20.9400 1620.0000 1.0000
20.9500 1712.0000 1.0000
20.9600 1636.0000 1.0000
20.9700 1691.0000 1.0000
20.9800 1733.0000 1.0000
20.9900 1703.0000 1.0000
21.0000 1678.0000 1.0000
21.0100 1733.0000 1.0000
21.0200 1712.0000 1.0000
21.0300 1731.0000 1.0000
21.0400 1721.0000 1.0000
21.0500 1646.0000 1.0000
21.0600 1677.0000 1.0000
21.0700 1630.0000 1.0000
21.0800 1666.0000 1.0000
21.0900 1652.0000 1.0000
21.1000 1733.0000 1.0000
21.1100 1749.0000 1.0000
21.1200 1643.0000 1.0000
21.1300 1710.0000 1.0000
21.1400 1680.0000 1.0000
21.1500 1689.0000 1.0000
21.1600 1713.0000 1.0000
21.1700 1669.0000 1.0000
21.1800 1688.0000 1.0000
21.1900 1719.0000 1.0000
21.2000 1680.0000 1.0000
21.2100 1658.0000 1.0000
21.2200 1661.0000 1.0000
21.2300 1795.0000 1.0000
21.2400 1707.0000 1.0000
21.2500 1646.0000 1.0000
21.2600 1690.0000 1.0000
21.2700 1747.0000 1.0000
21.2800 1710.0000 1.0000
21.2900 1737.0000 1.0000
21.3000 1703.0000 1.0000
21.3100 1705.0000 1.0000
21.3200 1686.0000 1.0000
21.3300 1599.0000 1.0000
21.3400 1656.0000 1.0000
21.3500 1704.0000 1.0000
21.3600 1652.0000 1.0000
21.3700 1718.0000 1.0000
21.3800 1680.0000 1.0000
21.3900 1679.0000 1.0000
21.4000 1673.0000 1.0000
21.4100 1635.0000 1.0000
21.4200 1650.0000 1.0000
21.4300 1687.0000 1.0000
21.4400 1699.0000 1.0000
21.4500 1750.0000 1.0000
21.4600 1717.0000 1.0000
21.4700 1767.0000 1.0000
21.4800 1738.0000 1.0000
21.4900 1707.0000 1.0000
21.5000 1665.0000 1.0000
21.5100 1775.0000 1.0000
21.5200 1694.0000 1.0000
21.5300 1686.0000 1.0000
21.5400 1743.0000 1.0000
21.5500 1699.0000 1.0000
21.5600 1719.0000 1.0000
21.5700 1663.0000 1.0000
21.5800 1743.0000 1.0000
21.5900 1646.0000 1.0000
21.6000 1660.0000 1.0000
21.6100 1751.0000 1.0000
21.6200 1712.0000 1.0000
21.6300 1750.0000 1.0000
21.6400 1710.0000 1.0000
21.6500 1749.0000 1.0000
21.6600 1730.0000 1.0000
21.6700 1731.0000 1.0000
21.6800 1688.0000 1.0000
21.6900 1702.0000 1.0000
21.7000 1713.0000 1.0000
21.7100 1731.0000 1.0000
21.7200 1742.0000 1.0000
21.7300 1769.0000 1.0000
21.7400 1709.0000 1.0000
21.7500 1693.0000 1.0000
21.7600 1682.0000 1.0000
21.7700 1632.0000 1.0000
21.7800 1729.0000 1.0000
21.7900 1704.0000 1.0000
21.8000 1702.0000 1.0000
21.8100 1691.0000 1.0000
21.8200 1753.0000 1.0000
21.8300 1685.0000 1.0000
21.8400 1763.0000 1.0000
21.8500 1731.0000 1.0000
21.8600 1669.0000 1.0000
21.8700 1688.0000 1.0000
21.8800 1690.0000 1.0000
21.8900 1717.0000 1.0000
21.9000 1765.0000 1.0000
21.9100 1719.0000 1.0000
21.9200 1712.0000 1.0000
21.9300 1718.0000 1.0000
21.9400 1679.0000 1.0000
21.9500 1709.0000 1.0000
21.9600 1720.0000 1.0000
21.9700 1729.0000 1.0000
21.9800 1706.0000 1.0000
21.9900 1760.0000 1.0000
22.0000 1701.0000 1.0000
22.0100 1713.0000 1.0000
22.0200 1742.0000 1.0000
22.0300 1784.0000 1.0000
22.0400 1739.0000 1.0000
22.0500 1757.0000 1.0000
22.0600 1765.0000 1.0000
22.0700 1706.0000 1.0000
22.0800 1672.0000 1.0000
22.0900 1688.0000 1.0000
22.1000 1706.0000 1.0000
22.1100 1778.0000 1.0000
22.1200 1720.0000 1.0000
22.1300 1692.0000 1.0000
22.1400 1743.0000 1.0000
22.1500 1699.0000 1.0000
22.1600 1722.0000 1.0000
22.1700 1720.0000 1.0000
22.1800 1692.0000 1.0000
22.1900 1758.0000 1.0000
22.2000 1722.0000 1.0000
22.2100 1721.0000 1.0000
22.2200 1732.0000 1.0000
22.2300 1712.0000 1.0000
22.2400 1720.0000 1.0000
22.2500 1702.0000 1.0000
22.2600 1717.0000 1.0000
22.2700 1697.0000 1.0000
22.2800 1664.0000 1.0000
22.2900 1792.0000 1.0000
22.3000 1700.0000 1.0000
22.3100 1676.0000 1.0000
22.3200 1667.0000 1.0000
22.3300 1772.0000 1.0000
22.3400 1743.0000 1.0000
22.3500 1816.0000 1.0000
22.3600 1754.0000 1.0000
22.3700 1679.0000 1.0000
22.3800 1653.0000 1.0000
22.3900 1732.0000 1.0000
22.4000 1765.0000 1.0000
22.4100 1771.0000 1.0000
22.4200 1747.0000 1.0000
22.4300 1712.0000 1.0000
22.4400 1762.0000 1.0000
22.4500 1752.0000 1.0000
22.4600 1804.0000 1.0000
22.4700 1760.0000 1.0000
22.4800 1759.0000 1.0000
22.4900 1742.0000 1.0000
22.5000 1736.0000 1.0000
22.5100 1713.0000 1.0000
22.5200 1779.0000 1.0000
22.5300 1702.0000 1.0000
22.5400 1648.0000 1.0000
22.5500 1684.0000 1.0000
22.5600 1831.0000 1.0000
22.5700 1710.0000 1.0000
22.5800 1765.0000 1.0000
22.5900 1726.0000 1.0000
22.6000 1762.0000 1.0000
22.6100 1775.0000 1.0000
22.6200 1698.0000 1.0000
22.6300 1796.0000 1.0000
22.6400 1717.0000 1.0000
22.6500 1751.0000 1.0000
22.6600 1824.0000 1.0000
22.6700 1731.0000 1.0000
22.6800 1720.0000 1.0000
22.6900 1790.0000 1.0000
22.7000 1699.0000 1.0000
22.7100 1791.0000 1.0000
22.7200 1745.0000 1.0000
22.7300 1804.0000 1.0000
22.7400 1723.0000 1.0000
22.7500 1707.0000 1.0000
22.7600 1732.0000 1.0000
22.7700 1698.0000 1.0000
22.7800 1751.0000 1.0000
22.7900 1754.0000 1.0000
22.8000 1798.0000 1.0000
22.8100 1727.0000 1.0000
22.8200 1755.0000 1.0000
22.8300 1745.0000 1.0000
22.8400 1761.0000 1.0000
22.8500 1791.0000 1.0000
22.8600 1749.0000 1.0000
22.8700 1736.0000 1.0000
22.8800 1716.0000 1.0000
22.8900 1726.0000 1.0000
22.9000 1762.0000 1.0000
22.9100 1694.0000 1.0000
22.9200 1787.0000 1.0000
22.9300 1739.0000 1.0000
22.9400 1775.0000 1.0000
22.9500 1738.0000 1.0000
22.9600 1774.0000 1.0000
22.9700 1807.0000 1.0000
22.9800 1708.0000 1.0000
22.9900 1740.0000 1.0000
23.0000 1767.0000 1.0000
23.0100 1729.0000 1.0000
23.0200 1708.0000 1.0000
23.0300 1718.0000 1.0000
23.0400 1744.0000 1.0000
23.0500 1771.0000 1.0000
23.0600 1794.0000 1.0000
23.0700 1802.0000 1.0000
23.0800 1769.0000 1.0000
23.0900 1772.0000 1.0000
23.1000 1836.0000 1.0000
23.1100 1765.0000 1.0000
23.1200 1756.0000 1.0000
23.1300 1758.0000 1.0000
23.1400 1709.0000 1.0000
23.1500 1653.0000 1.0000
23.1600 1748.0000 1.0000
23.1700 1771.0000 1.0000
23.1800 1736.0000 1.0000
23.1900 1769.0000 1.0000
23.2000 1747.0000 1.0000
23.2100 1734.0000 1.0000
23.2200 1788.0000 1.0000
23.2300 1745.0000 1.0000
23.2400 1728.0000 1.0000
23.2500 1719.0000 1.0000
23.2600 1718.0000 1.0000
23.2700 1711.0000 1.0000
23.2800 1723.0000 1.0000
23.2900 1783.0000 1.0000
23.3000 1782.0000 1.0000
23.3100 1745.0000 1.0000
23.3200 1729.0000 1.0000
23.3300 1809.0000 1.0000
23.3400 1729.0000 1.0000
23.3500 1715.0000 1.0000
23.3600 1771.0000 1.0000
23.3700 1720.0000 1.0000
23.3800 1754.0000 1.0000
23.3900 1809.0000 1.0000
23.4000 1810.0000 1.0000
23.4100 1769.0000 1.0000
23.4200 1760.0000 1.0000
23.4300 1785.0000 1.0000
23.4400 1759.0000 1.0000
23.4500 1809.0000 1.0000
23.4600 1856.0000 1.0000
23.4700 1816.0000 1.0000
23.4800 1877.0000 1.0000
23.4900 1725.0000 1.0000
23.5000 1814.0000 1.0000
23.5100 1769.0000 1.0000
23.5200 1695.0000 1.0000
23.5300 1730.0000 1.0000
23.5400 1754.0000 1.0000
23.5500 1738.0000 1.0000
23.5600 1733.0000 1.0000
23.5700 1807.0000 1.0000
23.5800 1779.0000 1.0000
23.5900 1732.0000 1.0000
23.6000 1778.0000 1.0000
23.6100 1720.0000 1.0000
23.6200 1706.0000 1.0000
23.6300 1847.0000 1.0000
23.6400 1712.0000 1.0000
23.6500 1790.0000 1.0000
23.6600 1763.0000 1.0000
23.6700 1792.0000 1.0000
23.6800 1816.0000 1.0000
23.6900 1806.0000 1.0000
23.7000 1793.0000 1.0000
23.7100 1846.0000 1.0000
23.7200 1726.0000 1.0000
23.7300 1758.0000 1.0000
23.7400 1705.0000 1.0000
23.7500 1760.0000 1.0000
23.7600 1706.0000 1.0000
23.7700 1749.0000 1.0000
23.7800 1773.0000 1.0000
23.7900 1767.0000 1.0000
23.8000 1742.0000 1.0000
23.8100 1792.0000 1.0000
23.8200 1739.0000 1.0000
23.8300 1724.0000 1.0000
23.8400 1742.0000 1.0000
23.8500 1732.0000 1.0000
23.8600 1769.0000 1.0000
23.8700 1727.0000 1.0000
23.8800 1763.0000 1.0000
23.8900 1818.0000 1.0000
23.9000 1782.0000 1.0000
23.9100 1763.0000 1.0000
23.9200 1797.0000 1.0000
23.9300 1724.0000 1.0000
23.9400 1822.0000 1.0000
23.9500 1844.0000 1.0000
23.9600 1793.0000 1.0000
23.9700 1730.0000 1.0000
23.9800 1759.0000 1.0000
23.9900 1748.0000 1.0000
24.0000 1781.0000 1.0000
24.0100 1805.0000 1.0000
24.0200 1773.0000 1.0000
24.0300 1757.0000 1.0000
24.0400 1746.0000 1.0000
24.0500 1805.0000 1.0000
24.0600 1731.0000 1.0000
24.0700 1784.0000 1.0000
24.0800 1766.0000 1.0000
24.0900 1782.0000 1.0000
24.1000 1812.0000 1.0000
24.1100 1848.0000 1.0000
24.1200 1759.0000 1.0000
24.1300 1766.0000 1.0000
24.1400 1830.0000 1.0000
24.1500 1804.0000 1.0000
24.1600 1834.0000 1.0000
24.1700 1813.0000 1.0000
24.1800 1730.0000 1.0000
24.1900 1756.0000 1.0000
24.2000 1816.0000 1.0000
24.2100 1744.0000 1.0000
24.2200 1761.0000 1.0000
24.2300 1782.0000 1.0000
24.2400 1760.0000 1.0000
24.2500 1766.0000 1.0000
24.2600 1710.0000 1.0000
24.2700 1784.0000 1.0000
24.2800 1788.0000 1.0000
24.2900 1803.0000 1.0000
24.3000 1842.0000 1.0000
24.3100 1760.0000 1.0000
24.3200 1861.0000 1.0000
24.3300 1809.0000 1.0000
24.3400 1758.0000 1.0000
24.3500 1773.0000 1.0000
24.3600 1824.0000 1.0000
24.3700 1809.0000 1.0000
24.3800 1801.0000 1.0000
24.3900 1752.0000 1.0000
24.4000 1761.0000 1.0000
24.4100 1823.0000 1.0000
24.4200 1815.0000 1.0000
24.4300 1781.0000 1.0000
24.4400 1806.0000 1.0000
24.4500 1820.0000 1.0000
24.4600 1786.0000 1.0000
24.4700 1813.0000 1.0000
24.4800 1758.0000 1.0000
24.4900 1821.0000 1.0000
24.5000 1857.0000 1.0000
24.5100 1765.0000 1.0000
24.5200 1752.0000 1.0000
24.5300 1782.0000 1.0000
24.5400 1765.0000 1.0000
24.5500 1783.0000 1.0000
24.5600 1844.0000 1.0000
24.5700 1831.0000 1.0000
24.5800 1821.0000 1.0000
24.5900 1780.0000 1.0000
24.6000 1775.0000 1.0000
24.6100 1784.0000 1.0000
24.6200 1769.0000 1.0000
24.6300 1837.0000 1.0000
24.6400 1813.0000 1.0000
24.6500 1811.0000 1.0000
24.6600 1772.0000 1.0000
24.6700 1835.0000 1.0000
24.6800 1803.0000 1.0000
24.6900 1802.0000 1.0000
24.7000 1795.0000 1.0000
24.7100 1790.0000 1.0000
24.7200 1872.0000 1.0000
24.7300 1826.0000 1.0000
24.7400 1880.0000 1.0000
24.7500 1826.0000 1.0000
24.7600 1867.0000 1.0000
24.7700 1816.0000 1.0000
24.7800 1768.0000 1.0000
24.7900 1860.0000 1.0000
24.8000 1838.0000 1.0000
24.8100 1922.0000 1.0000
24.8200 1806.0000 1.0000
24.8300 1808.0000 1.0000
24.8400 1843.0000 1.0000
24.8500 1794.0000 1.0000
24.8600 1818.0000 1.0000
24.8700 1910.0000 1.0000
24.8800 1893.0000 1.0000
24.8900 1760.0000 1.0000
24.9000 1836.0000 1.0000
24.9100 1858.0000 1.0000
24.9200 1837.0000 1.0000
24.9300 1833.0000 1.0000
24.9400 1858.0000 1.0000
24.9500 1868.0000 1.0000
24.9600 1833.0000 1.0000
24.9700 1825.0000 1.0000
24.9800 1845.0000 1.0000
24.9900 1861.0000 1.0000
25.0000 1795.0000 1.0000
25.0100 1875.0000 1.0000
25.0200 1883.0000 1.0000
25.0300 1854.0000 1.0000
25.0400 1931.0000 1.0000
25.0500 1856.0000 1.0000
25.0600 1876.0000 1.0000
25.0700 1906.0000 1.0000
25.0800 1911.0000 1.0000
25.0900 1895.0000 1.0000
25.1000 1885.0000 1.0000
25.1100 1857.0000 1.0000
25.1200 1874.0000 1.0000
25.1300 1905.0000 1.0000
25.1400 1850.0000 1.0000
25.1500 1858.0000 1.0000
25.1600 1838.0000 1.0000
25.1700 1847.0000 1.0000
25.1800 1864.0000 1.0000
25.1900 1875.0000 1.0000
25.2000 1910.0000 1.0000
25.2100 1827.0000 1.0000
25.2200 1911.0000 1.0000
25.2300 1769.0000 1.0000
25.2400 1824.0000 1.0000
25.2500 1918.0000 1.0000
25.2600 1818.0000 1.0000
25.2700 1870.0000 1.0000
25.2800 1846.0000 1.0000
25.2900 1863.0000 1.0000
25.3000 1870.0000 1.0000
25.3100 1921.0000 1.0000
25.3200 1861.0000 1.0000
25.3300 1900.0000 1.0000
25.3400 1889.0000 1.0000
25.3500 1817.0000 1.0000
25.3600 1888.0000 1.0000
25.3700 1913.0000 1.0000
25.3800 1808.0000 1.0000
25.3900 1865.0000 1.0000
25.4000 1834.0000 1.0000
25.4100 1862.0000 1.0000
25.4200 1837.0000 1.0000
25.4300 1881.0000 1.0000
25.4400 1833.0000 1.0000
25.4500 1844.0000 1.0000
25.4600 1804.0000 1.0000
25.4700 1867.0000 1.0000
25.4800 1818.0000 1.0000
25.4900 1868.0000 1.0000
25.5000 1857.0000 1.0000
25.5100 1816.0000 1.0000
25.5200 1795.0000 1.0000
25.5300 1843.0000 1.0000
25.5400 1857.0000 1.0000
25.5500 1842.0000 1.0000
25.5600 1833.0000 1.0000
25.5700 1807.0000 1.0000
25.5800 1768.0000 1.0000
25.5900 1867.0000 1.0000
25.6000 1910.0000 1.0000
25.6100 1846.0000 1.0000
25.6200 1833.0000 1.0000
25.6300 1857.0000 1.0000
25.6400 1830.0000 1.0000
25.6500 1816.0000 1.0000
25.6600 1873.0000 1.0000
25.6700 1847.0000 1.0000
25.6800 1804.0000 1.0000
25.6900 1821.0000 1.0000
25.7000 1737.0000 1.0000
25.7100 1829.0000 1.0000
25.7200 1824.0000 1.0000
25.7300 1829.0000 1.0000
25.7400 1850.0000 1.0000
25.7500 1879.0000 1.0000
25.7600 1835.0000 1.0000
25.7700 1819.0000 1.0000
25.7800 1775.0000 1.0000
25.7900 1788.0000 1.0000
25.8000 1826.0000 1.0000
25.8100 1884.0000 1.0000
25.8200 1880.0000 1.0000
25.8300 1813.0000 1.0000
25.8400 1865.0000 1.0000
25.8500 1739.0000 1.0000
25.8600 1835.0000 1.0000
25.8700 1836.0000 1.0000
25.8800 1806.0000 1.0000
25.8900 1817.0000 1.0000
25.9000 1836.0000 1.0000
25.9100 1783.0000 1.0000
25.9200 1858.0000 1.0000
25.9300 1917.0000 1.0000
25.9400 1830.0000 1.0000
25.9500 1803.0000 1.0000
25.9600 1807.0000 1.0000
25.9700 1808.0000 1.0000
25.9800 1928.0000 1.0000
25.9900 1882.0000 1.0000
26.0000 1806.0000 1.0000
26.0100 1808.0000 1.0000
26.0200 1914.0000 1.0000
26.0300 1927.0000 1.0000
26.0400 1826.0000 1.0000
26.0500 1820.0000 1.0000
26.0600 1817.0000 1.0000
26.0700 1825.0000 1.0000
26.0800 1877.0000 1.0000
26.0900 1812.0000 1.0000
26.1000 1859.0000 1.0000
26.1100 1856.0000 1.0000
26.1200 1811.0000 1.0000
26.1300 1794.0000 1.0000
26.1400 1859.0000 1.0000
26.1500 1814.0000 1.0000
26.1600 1823.0000 1.0000
26.1700 1841.0000 1.0000
26.1800 1828.0000 1.0000
26.1900 1803.0000 1.0000
26.2000 1872.0000 1.0000
26.2100 1899.0000 1.0000
26.2200 1873.0000 1.0000
26.2300 1867.0000 1.0000
26.2400 1866.0000 1.0000
26.2500 1829.0000 1.0000
26.2600 1819.0000 1.0000
26.2700 1855.0000 1.0000
26.2800 1890.0000 1.0000
26.2900 1921.0000 1.0000
26.3000 1917.0000 1.0000
26.3100 1796.0000 1.0000
26.3200 1955.0000 1.0000
26.3300 1904.0000 1.0000
26.3400 1877.0000 1.0000
26.3500 1854.0000 1.0000
26.3600 1897.0000 1.0000
26.3700 1854.0000 1.0000
26.3800 1960.0000 1.0000
26.3900 1878.0000 1.0000
26.4000 1949.0000 1.0000
26.4100 1882.0000 1.0000
26.4200 1871.0000 1.0000
26.4300 1905.0000 1.0000
26.4400 1883.0000 1.0000
26.4500 1862.0000 1.0000
26.4600 1938.0000 1.0000
26.4700 1964.0000 1.0000
26.4800 1909.0000 1.0000
26.4900 1961.0000 1.0000
26.5000 1953.0000 1.0000
26.5100 1895.0000 1.0000
26.5200 1882.0000 1.0000
26.5300 1932.0000 1.0000
26.5400 1925.0000 1.0000
26.5500 1978.0000 1.0000
26.5600 1970.0000 1.0000
26.5700 1917.0000 1.0000
26.5800 1889.0000 1.0000
26.5900 1914.0000 1.0000
26.6000 1886.0000 1.0000
26.6100 1936.0000 1.0000
26.6200 1938.0000 1.0000
26.6300 1963.0000 1.0000
26.6400 1971.0000 1.0000
26.6500 1853.0000 1.0000
26.6600 1918.0000 1.0000
26.6700 1931.0000 1.0000
26.6800 1953.0000 1.0000
26.6900 2011.0000 1.0000
26.7000 1986.0000 1.0000
26.7100 2002.0000 1.0000
26.7200 1977.0000 1.0000
26.7300 1980.0000 1.0000
26.7400 1919.0000 1.0000
26.7500 1939.0000 1.0000
26.7600 1993.0000 1.0000
26.7700 1992.0000 1.0000
26.7800 1990.0000 1.0000
26.7900 2019.0000 1.0000
26.8000 2036.0000 1.0000
26.8100 1990.0000 1.0000
26.8200 2080.0000 1.0000
26.8300 2089.0000 1.0000
26.8400 2062.0000 1.0000
26.8500 2072.0000 1.0000
26.8600 2042.0000 1.0000
26.8700 2033.0000 1.0000
26.8800 2046.0000 1.0000
26.8900 2084.0000 1.0000
26.9000 2104.0000 1.0000
26.9100 2176.0000 1.0000
26.9200 2207.0000 1.0000
26.9300 2239.0000 1.0000
26.9400 2174.0000 1.0000
26.9500 2207.0000 1.0000
26.9600 2279.0000 1.0000
26.9700 2304.0000 1.0000
26.9800 2290.0000 1.0000
26.9900 2323.0000 1.0000
27.0000 2379.0000 1.0000
27.0100 2388.0000 1.0000
27.0200 2423.0000 1.0000
27.0300 2473.0000 1.0000
27.0400 2593.0000 1.0000
27.0500 2639.0000 1.0000
27.0600 2580.0000 1.0000
27.0700 2692.0000 1.0000
27.0800 2772.0000 1.0000
27.0900 2833.0000 1.0000
27.1000 2965.0000 1.0000
27.1100 2977.0000 1.0000
27.1200 3168.0000 1.0000
27.1300 3231.0000 1.0000
27.1400 3291.0000 1.0000
27.1500 3391.0000 1.0000
27.1600 3511.0000 1.0000
27.1700 3745.0000 1.0000
27.1800 3861.0000 1.0000
27.1900 4049.0000 1.0000
27.2000 4193.0000 1.0000
27.2100 4440.0000 1.0000
27.2200 4616.0000 1.0000
27.2300 4953.0000 1.0000
27.2400 5094.0000 1.0000
27.2500 5338.0000 1.0000
27.2600 5684.0000 1.0000
27.2700 6059.0000 1.0000
27.2800 6207.0000 1.0000
27.2900 6495.0000 1.0000
27.3000 6652.0000 1.0000
27.3100 6773.0000 1.0000
27.3200 6852.0000 1.0000
27.3300 7031.0000 1.0000
27.3400 6905.0000 1.0000
27.3500 6827.0000 1.0000
27.3600 6670.0000 1.0000
27.3700 6352.0000 1.0000
27.3800 6215.0000 1.0000
27.3900 6017.0000 1.0000
27.4000 5861.0000 1.0000
27.4100 5469.0000 1.0000
27.4200 5198.0000 1.0000
27.4300 4907.0000 1.0000
27.4400 4703.0000 1.0000
27.4500 4509.0000 1.0000
27.4600 4270.0000 1.0000
27.4700 4024.0000 1.0000
27.4800 3923.0000 1.0000
27.4900 3605.0000 1.0000
27.5000 3394.0000 1.0000
27.5100 3270.0000 1.0000
27.5200 3256.0000 1.0000
27.5300 3141.0000 1.0000
27.5400 3074.0000 1.0000
27.5500 2903.0000 1.0000
27.5600 2822.0000 1.0000
27.5700 2703.0000 1.0000
27.5800 2688.0000 1.0000
27.5900 2634.0000 1.0000
27.6000 2620.0000 1.0000
27.6100 2527.0000 1.0000
27.6200 2437.0000 1.0000
27.6300 2419.0000 1.0000
27.6400 2325.0000 1.0000
27.6500 2272.0000 1.0000
27.6600 2290.0000 1.0000
27.6700 2256.0000 1.0000
27.6800 2195.0000 1.0000
27.6900 2269.0000 1.0000
27.7000 2213.0000 1.0000
27.7100 2202.0000 1.0000
27.7200 2195.0000 1.0000
27.7300 2118.0000 1.0000
27.7400 2070.0000 1.0000
27.7500 2077.0000 1.0000
27.7600 2101.0000 1.0000
27.7700 2004.0000 1.0000
27.7800 2043.0000 1.0000
27.7900 2032.0000 1.0000
27.8000 2040.0000 1.0000
27.8100 2002.0000 1.0000
27.8200 2004.0000 1.0000
27.8300 2011.0000 1.0000
27.8400 1958.0000 1.0000
27.8500 1969.0000 1.0000
27.8600 1962.0000 1.0000
27.8700 1994.0000 1.0000
27.8800 1949.0000 1.0000
27.8900 1996.0000 1.0000
27.9000 1910.0000 1.0000
27.9100 1916.0000 1.0000
27.9200 1975.0000 1.0000
27.9300 1863.0000 1.0000
27.9400 1884.0000 1.0000
27.9500 1876.0000 1.0000
27.9600 1898.0000 1.0000
27.9700 1856.0000 1.0000
27.9800 1811.0000 1.0000
27.9900 1810.0000 1.0000
28.0000 1814.0000 1.0000
28.0100 1851.0000 1.0000
28.0200 1863.0000 1.0000
28.0300 1873.0000 1.0000
28.0400 1822.0000 1.0000
28.0500 1827.0000 1.0000
28.0600 1904.0000 1.0000
28.0700 1846.0000 1.0000
28.0800 1763.0000 1.0000
28.0900 1782.0000 1.0000
28.1000 1922.0000 1.0000
28.1100 1813.0000 1.0000
28.1200 1885.0000 1.0000
28.1300 1863.0000 1.0000
28.1400 1790.0000 1.0000
28.1500 1797.0000 1.0000
28.1600 1798.0000 1.0000
28.1700 1782.0000 1.0000
28.1800 1788.0000 1.0000
28.1900 1836.0000 1.0000
28.2000 1761.0000 1.0000
28.2100 1781.0000 1.0000
28.2200 1790.0000 1.0000
28.2300 1791.0000 1.0000
28.2400 1787.0000 1.0000
28.2500 1745.0000 1.0000
28.2600 1757.0000 1.0000
28.2700 1815.0000 1.0000
28.2800 1785.0000 1.0000
28.2900 1781.0000 1.0000
28.3000 1863.0000 1.0000
28.3100 1811.0000 1.0000
28.3200 1859.0000 1.0000
28.3300 1701.0000 1.0000
28.3400 1776.0000 1.0000
28.3500 1770.0000 1.0000
28.3600 1740.0000 1.0000
28.3700 1772.0000 1.0000
28.3800 1726.0000 1.0000
28.3900 1761.0000 1.0000
28.4000 1783.0000 1.0000
28.4100 1727.0000 1.0000
28.4200 1738.0000 1.0000
28.4300 1768.0000 1.0000
28.4400 1690.0000 1.0000
28.4500 1668.0000 1.0000
28.4600 1743.0000 1.0000
28.4700 1713.0000 1.0000
28.4800 1631.0000 1.0000
28.4900 1684.0000 1.0000
28.5000 1686.0000 1.0000
28.5100 1767.0000 1.0000
28.5200 1736.0000 1.0000
28.5300 1725.0000 1.0000
28.5400 1717.0000 1.0000
28.5500 1691.0000 1.0000
28.5600 1715.0000 1.0000
28.5700 1761.0000 1.0000
28.5800 1751.0000 1.0000
28.5900 1726.0000 1.0000
28.6000 1714.0000 1.0000
28.6100 1673.0000 1.0000
28.6200 1746.0000 1.0000
28.6300 1719.0000 1.0000
28.6400 1765.0000 1.0000
28.6500 1703.0000 1.0000
28.6600 1732.0000 1.0000
28.6700 1741.0000 1.0000
28.6800 1652.0000 1.0000
28.6900 1645.0000 1.0000
28.7000 1700.0000 1.0000
28.7100 1752.0000 1.0000
28.7200 1678.0000 1.0000
28.7300 1743.0000 1.0000
28.7400 1680.0000 1.0000
28.7500 1698.0000 1.0000
28.7600 1693.0000 1.0000
28.7700 1634.0000 1.0000
28.7800 1707.0000 1.0000
28.7900 1683.0000 1.0000
28.8000 1711.0000 1.0000
28.8100 1707.0000 1.0000
28.8200 1667.0000 1.0000
28.8300 1720.0000 1.0000
28.8400 1716.0000 1.0000
28.8500 1746.0000 1.0000
28.8600 1702.0000 1.0000
28.8700 1694.0000 1.0000
28.8800 1695.0000 1.0000
28.8900 1718.0000 1.0000
28.9000 1687.0000 1.0000
28.9100 1649.0000 1.0000
28.9200 1668.0000 1.0000
28.9300 1667.0000 1.0000
28.9400 1680.0000 1.0000
28.9500 1657.0000 1.0000
28.9600 1684.0000 1.0000
28.9700 1712.0000 1.0000
28.9800 1654.0000 1.0000
28.9900 1672.0000 1.0000
29.0000 1675.0000 1.0000
29.0100 1717.0000 1.0000
29.0200 1638.0000 1.0000
29.0300 1619.0000 1.0000
29.0400 1708.0000 1.0000
29.0500 1752.0000 1.0000
29.0600 1638.0000 1.0000
29.0700 1660.0000 1.0000
29.0800 1745.0000 1.0000
29.0900 1711.0000 1.0000
29.1000 1696.0000 1.0000
29.1100 1698.0000 1.0000
29.1200 1733.0000 1.0000
29.1300 1758.0000 1.0000
29.1400 1690.0000 1.0000
29.1500 1684.0000 1.0000
29.1600 1726.0000 1.0000
29.1700 1687.0000 1.0000
29.1800 1690.0000 1.0000
29.1900 1653.0000 1.0000
29.2000 1668.0000 1.0000
29.2100 1731.0000 1.0000
29.2200 1665.0000 1.0000
29.2300 1619.0000 1.0000
29.2400 1609.0000 1.0000
29.2500 1729.0000 1.0000
29.2600 1657.0000 1.0000
29.2700 1658.0000 1.0000
29.2800 1672.0000 1.0000
29.2900 1636.0000 1.0000
29.3000 1690.0000 1.0000
29.3100 1642.0000 1.0000
29.3200 1678.0000 1.0000
29.3300 1647.0000 1.0000
29.3400 1633.0000 1.0000
29.3500 1660.0000 1.0000
29.3600 1686.0000 1.0000
29.3700 1726.0000 1.0000
29.3800 1613.0000 1.0000
29.3900 1609.0000 1.0000
29.4000 1635.0000 1.0000
29.4100 1690.0000 1.0000
29.4200 1636.0000 1.0000
29.4300 1557.0000 1.0000
29.4400 1674.0000 1.0000
29.4500 1758.0000 1.0000
29.4600 1641.0000 1.0000
29.4700 1674.0000 1.0000
29.4800 1654.0000 1.0000
29.4900 1611.0000 1.0000
29.5000 1653.0000 1.0000
29.5100 1690.0000 1.0000
29.5200 1629.0000 1.0000
29.5300 1619.0000 1.0000
29.5400 1682.0000 1.0000
29.5500 1602.0000 1.0000
29.5600 1657.0000 1.0000
29.5700 1559.0000 1.0000
29.5800 1632.0000 1.0000
29.5900 1669.0000 1.0000
29.6000 1622.0000 1.0000
29.6100 1635.0000 1.0000
29.6200 1599.0000 1.0000
29.6300 1668.0000 1.0000
29.6400 1614.0000 1.0000
29.6500 1690.0000 1.0000
29.6600 1556.0000 1.0000
29.6700 1710.0000 1.0000
29.6800 1608.0000 1.0000
29.6900 1649.0000 1.0000
29.7000 1653.0000 1.0000
29.7100 1598.0000 1.0000
29.7200 1596.0000 1.0000
29.7300 1640.0000 1.0000
29.7400 1613.0000 1.0000
29.7500 1604.0000 1.0000
29.7600 1596.0000 1.0000
29.7700 1598.0000 1.0000
29.7800 1643.0000 1.0000
29.7900 1701.0000 1.0000
29.8000 1603.0000 1.0000
29.8100 1613.0000 1.0000
29.8200 1647.0000 1.0000
29.8300 1589.0000 1.0000
29.8400 1564.0000 1.0000
29.8500 1638.0000 1.0000
29.8600 1574.0000 1.0000
29.8700 1651.0000 1.0000
29.8800 1594.0000 1.0000
29.8900 1586.0000 1.0000
29.9000 1595.0000 1.0000
29.9100 1616.0000 1.0000
29.9200 1588.0000 1.0000
29.9300 1600.0000 1.0000
29.9400 1629.0000 1.0000
29.9500 1649.0000 1.0000
29.9600 1574.0000 1.0000
29.9700 1573.0000 1.0000
29.9800 1630.0000 1.0000
29.9900 1585.0000 1.0000
30.0000 1637.0000 1.0000
30.0100 1621.0000 1.0000
30.0200 1565.0000 1.0000
30.0300 1604.0000 1.0000
30.0400 1673.0000 1.0000
30.0500 1560.0000 1.0000
30.0600 1605.0000 1.0000
30.0700 1617.0000 1.0000
30.0800 1651.0000 1.0000
30.0900 1631.0000 1.0000
30.1000 1603.0000 1.0000
30.1100 1584.0000 1.0000
30.1200 1600.0000 1.0000
30.1300 1655.0000 1.0000
30.1400 1591.0000 1.0000
30.1500 1613.0000 1.0000
30.1600 1589.0000 1.0000
30.1700 1592.0000 1.0000
30.1800 1555.0000 1.0000
30.1900 1600.0000 1.0000
30.2000 1638.0000 1.0000
30.2100 1652.0000 1.0000
30.2200 1615.0000 1.0000
30.2300 1540.0000 1.0000
30.2400 1554.0000 1.0000
30.2500 1561.0000 1.0000
30.2600 1615.0000 1.0000
30.2700 1523.0000 1.0000
30.2800 1593.0000 1.0000
30.2900 1562.0000 1.0000
30.3000 1509.0000 1.0000
30.3100 1514.0000 1.0000
30.3200 1562.0000 1.0000
30.3300 1627.0000 1.0000
30.3400 1597.0000 1.0000
30.3500 1585.0000 1.0000
30.3600 1610.0000 1.0000
30.3700 1556.0000 1.0000
30.3800 1566.0000 1.0000
30.3900 1568.0000 1.0000
30.4000 1576.0000 1.0000
30.4100 1626.0000 1.0000
30.4200 1632.0000 1.0000
30.4300 1588.0000 1.0000
30.4400 1606.0000 1.0000
30.4500 1604.0000 1.0000
30.4600 1654.0000 1.0000
30.4700 1540.0000 1.0000
30.4800 1567.0000 1.0000
30.4900 1566.0000 1.0000
30.5000 1557.0000 1.0000
30.5100 1528.0000 1.0000
30.5200 1535.0000 1.0000
30.5300 1502.0000 1.0000
30.5400 1519.0000 1.0000
30.5500 1571.0000 1.0000
30.5600 1596.0000 1.0000
30.5700 1616.0000 1.0000
30.5800 1568.0000 1.0000
30.5900 1597.0000 1.0000
30.6000 1565.0000 1.0000
30.6100 1539.0000 1.0000
30.6200 1550.0000 1.0000
30.6300 1602.0000 1.0000
30.6400 1580.0000 1.0000
30.6500 1622.0000 1.0000
30.6600 1565.0000 1.0000
30.6700 1534.0000 1.0000
30.6800 1484.0000 1.0000
30.6900 1528.0000 1.0000
30.7000 1559.0000 1.0000
30.7100 1567.0000 1.0000
30.7200 1569.0000 1.0000
30.7300 1561.0000 1.0000
30.7400 1544.0000 1.0000
30.7500 1511.0000 1.0000
30.7600 1549.0000 1.0000
30.7700 1540.0000 1.0000
30.7800 1549.0000 1.0000
30.7900 1549.0000 1.0000
30.8000 1530.0000 1.0000
30.8100 1579.0000 1.0000
30.8200 1633.0000 1.0000
30.8300 1569.0000 1.0000
30.8400 1593.0000 1.0000
30.8500 1579.0000 1.0000
30.8600 1559.0000 1.0000
30.8700 1565.0000 1.0000
30.8800 1590.0000 1.0000
30.8900 1609.0000 1.0000
30.9000 1599.0000 1.0000
30.9100 1529.0000 1.0000
30.9200 1505.0000 1.0000
30.9300 1516.0000 1.0000
30.9400 1515.0000 1.0000
30.9500 1593.0000 1.0000
30.9600 1525.0000 1.0000
30.9700 1559.0000 1.0000
30.9800 1545.0000 1.0000
30.9900 1586.0000 1.0000
31.0000 1503.0000 1.0000
31.0100 1527.0000 1.0000
31.0200 1545.0000 1.0000
31.0300 1518.0000 1.0000
31.0400 1525.0000 1.0000
31.0500 1539.0000 1.0000
31.0600 1576.0000 1.0000
31.0700 1639.0000 1.0000
31.0800 1523.0000 1.0000
31.0900 1493.0000 1.0000
31.1000 1522.0000 1.0000
31.1100 1485.0000 1.0000
31.1200 1595.0000 1.0000
31.1300 1544.0000 1.0000
31.1400 1513.0000 1.0000
31.1500 1639.0000 1.0000
31.1600 1550.0000 1.0000
31.1700 1553.0000 1.0000
31.1800 1546.0000 1.0000
31.1900 1521.0000 1.0000
31.2000 1554.0000 1.0000
31.2100 1517.0000 1.0000
31.2200 1561.0000 1.0000
31.2300 1523.0000 1.0000
31.2400 1539.0000 1.0000
31.2500 1540.0000 1.0000
31.2600 1521.0000 1.0000
31.2700 1536.0000 1.0000
31.2800 1542.0000 1.0000
31.2900 1426.0000 1.0000
31.3000 1476.0000 1.0000
31.3100 1523.0000 1.0000
31.3200 1543.0000 1.0000
31.3300 1526.0000 1.0000
31.3400 1469.0000 1.0000
31.3500 1514.0000 1.0000
31.3600 1456.0000 1.0000
31.3700 1533.0000 1.0000
31.3800 1471.0000 1.0000
31.3900 1498.0000 1.0000
31.4000 1535.0000 1.0000
31.4100 1478.0000 1.0000
31.4200 1544.0000 1.0000
31.4300 1554.0000 1.0000
31.4400 1509.0000 1.0000
31.4500 1491.0000 1.0000
31.4600 1486.0000 1.0000
31.4700 1502.0000 1.0000
31.4800 1487.0000 1.0000
31.4900 1507.0000 1.0000
31.5000 1536.0000 1.0000
31.5100 1526.0000 1.0000
31.5200 1461.0000 1.0000
31.5300 1522.0000 1.0000
31.5400 1520.0000 1.0000
31.5500 1567.0000 1.0000
31.5600 1507.0000 1.0000
31.5700 1519.0000 1.0000
31.5800 1490.0000 1.0000
31.5900 1500.0000 1.0000
31.6000 1495.0000 1.0000
31.6100 1475.0000 1.0000
31.6200 1453.0000 1.0000
31.6300 1487.0000 1.0000
31.6400 1598.0000 1.0000
31.6500 1540.0000 1.0000
31.6600 1477.0000 1.0000
31.6700 1477.0000 1.0000
31.6800 1478.0000 1.0000
31.6900 1481.0000 1.0000
31.7000 1417.0000 1.0000
31.7100 1449.0000 1.0000
31.7200 1509.0000 1.0000
31.7300 1552.0000 1.0000
31.7400 1462.0000 1.0000
31.7500 1463.0000 1.0000
31.7600 1465.0000 1.0000
31.7700 1472.0000 1.0000
31.7800 1501.0000 1.0000
31.7900 1497.0000 1.0000
31.8000 1505.0000 1.0000
31.8100 1527.0000 1.0000
31.8200 1532.0000 1.0000
31.8300 1456.0000 1.0000
31.8400 1478.0000 1.0000
31.8500 1479.0000 1.0000
31.8600 1560.0000 1.0000
31.8700 1561.0000 1.0000
31.8800 1553.0000 1.0000
31.8900 1503.0000 1.0000
31.9000 1560.0000 1.0000
31.9100 1455.0000 1.0000
31.9200 1531.0000 1.0000
31.9300 1580.0000 1.0000
31.9400 1522.0000 1.0000
31.9500 1509.0000 1.0000
31.9600 1593.0000 1.0000
31.9700 1538.0000 1.0000
31.9800 1579.0000 1.0000
31.9900 1547.0000 1.0000
32.0000 1511.0000 1.0000
32.0100 1511.0000 1.0000
32.0200 1534.0000 1.0000
32.0300 1500.0000 1.0000
32.0400 1521.0000 1.0000
32.0500 1523.0000 1.0000
32.0600 1574.0000 1.0000
32.0700 1529.0000 1.0000
32.0800 1495.0000 1.0000
32.0900 1518.0000 1.0000
32.1000 1510.0000 1.0000
32.1100 1519.0000 1.0000
32.1200 1500.0000 1.0000
32.1300 1524.0000 1.0000
32.1400 1520.0000 1.0000
32.1500 1426.0000 1.0000
32.1600 1482.0000 1.0000
32.1700 1462.0000 1.0000
32.1800 1426.0000 1.0000
32.1900 1463.0000 1.0000
32.2000 1414.0000 1.0000
32.2100 1509.0000 1.0000
32.2200 1515.0000 1.0000
32.2300 1467.0000 1.0000
32.2400 1465.0000 1.0000
32.2500 1475.0000 1.0000
32.2600 1451.0000 1.0000
32.2700 1448.0000 1.0000
32.2800 1462.0000 1.0000
32.2900 1482.0000 1.0000
32.3000 1514.0000 1.0000
32.3100 1464.0000 1.0000
32.3200 1480.0000 1.0000
32.3300 1447.0000 1.0000
32.3400 1471.0000 1.0000
32.3500 1515.0000 1.0000
32.3600 1488.0000 1.0000
32.3700 1465.0000 1.0000
32.3800 1439.0000 1.0000
32.3900 1483.0000 1.0000
32.4000 1449.0000 1.0000
32.4100 1493.0000 1.0000
32.4200 1481.0000 1.0000
32.4300 1445.0000 1.0000
32.4400 1394.0000 1.0000
32.4500 1417.0000 1.0000
32.4600 1443.0000 1.0000
32.4700 1479.0000 1.0000
32.4800 1506.0000 1.0000
32.4900 1445.0000 1.0000
32.5000 1438.0000 1.0000
32.5100 1457.0000 1.0000
32.5200 1447.0000 1.0000
32.5300 1457.0000 1.0000
32.5400 1457.0000 1.0000
32.5500 1514.0000 1.0000
32.5600 1445.0000 1.0000
32.5700 1422.0000 1.0000
32.5800 1424.0000 1.0000
32.5900 1427.0000 1.0000
32.6000 1476.0000 1.0000
32.6100 1480.0000 1.0000
32.6200 1442.0000 1.0000
32.6300 1445.0000 1.0000
32.6400 1471.0000 1.0000
32.6500 1445.0000 1.0000
32.6600 1423.0000 1.0000
32.6700 1487.0000 1.0000
32.6800 1441.0000 1.0000
32.6900 1417.0000 1.0000
32.7000 1427.0000 1.0000
32.7100 1418.0000 1.0000
32.7200 1458.0000 1.0000
32.7300 1442.0000 1.0000
32.7400 1461.0000 1.0000
32.7500 1447.0000 1.0000
32.7600 1458.0000 1.0000
32.7700 1424.0000 1.0000
32.7800 1410.0000 1.0000
32.7900 1383.0000 1.0000
32.8000 1468.0000 1.0000
32.8100 1405.0000 1.0000
32.8200 1397.0000 1.0000
32.8300 1456.0000 1.0000
32.8400 1432.0000 1.0000
32.8500 1390.0000 1.0000
32.8600 1424.0000 1.0000
32.8700 1429.0000 1.0000
32.8800 1441.0000 1.0000
32.8900 1455.0000 1.0000
32.9000 1419.0000 1.0000
32.9100 1373.0000 1.0000
32.9200 1432.0000 1.0000
32.9300 1452.0000 1.0000
32.9400 1343.0000 1.0000
32.9500 1375.0000 1.0000
32.9600 1402.0000 1.0000
32.9700 1400.0000 1.0000
32.9800 1358.0000 1.0000
32.9900 1426.0000 1.0000
33.0000 1425.0000 1.0000
33.0100 1427.0000 1.0000
33.0200 1469.0000 1.0000
33.0300 1446.0000 1.0000
33.0400 1421.0000 1.0000
33.0500 1438.0000 1.0000
33.0600 1438.0000 1.0000
33.0700 1443.0000 1.0000
33.0800 1420.0000 1.0000
33.0900 1404.0000 1.0000
33.1000 1394.0000 1.0000
33.1100 1448.0000 1.0000
33.1200 1427.0000 1.0000
33.1300 1402.0000 1.0000
33.1400 1390.0000 1.0000
33.1500 1456.0000 1.0000
33.1600 1397.0000 1.0000
33.1700 1393.0000 1.0000
33.1800 1399.0000 1.0000
33.1900 1378.0000 1.0000
33.2000 1425.0000 1.0000
33.2100 1508.0000 1.0000
33.2200 1401.0000 1.0000
33.2300 1436.0000 1.0000
33.2400 1374.0000 1.0000
33.2500 1477.0000 1.0000
33.2600 1403.0000 1.0000
33.2700 1378.0000 1.0000
33.2800 1367.0000 1.0000
33.2900 1407.0000 1.0000
33.3000 1426.0000 1.0000
33.3100 1324.0000 1.0000
33.3200 1368.0000 1.0000
33.3300 1363.0000 1.0000
33.3400 1449.0000 1.0000
33.3500 1467.0000 1.0000
33.3600 1450.0000 1.0000
33.3700 1430.0000 1.0000
33.3800 1370.0000 1.0000
33.3900 1390.0000 1.0000
33.4000 1417.0000 1.0000
33.4100 1416.0000 1.0000
33.4200 1445.0000 1.0000
33.4300 1444.0000 1.0000
33.4400 1382.0000 1.0000
33.4500 1358.0000 1.0000
33.4600 1438.0000 1.0000
33.4700 1435.0000 1.0000
33.4800 1394.0000 1.0000
33.4900 1381.0000 1.0000
33.5000 1411.0000 1.0000
33.5100 1384.0000 1.0000
33.5200 1410.0000 1.0000
33.5300 1412.0000 1.0000
33.5400 1428.0000 1.0000
33.5500 1436.0000 1.0000
33.5600 1433.0000 1.0000
33.5700 1457.0000 1.0000
33.5800 1434.0000 1.0000
33.5900 1414.0000 1.0000
33.6000 1470.0000 1.0000
33.6100 1388.0000 1.0000
33.6200 1456.0000 1.0000
33.6300 1372.0000 1.0000
33.6400 1385.0000 1.0000
33.6500 1460.0000 1.0000
33.6600 1406.0000 1.0000
33.6700 1405.0000 1.0000
33.6800 1374.0000 1.0000
33.6900 1394.0000 1.0000
33.7000 1470.0000 1.0000
33.7100 1452.0000 1.0000
33.7200 1439.0000 1.0000
33.7300 1409.0000 1.0000
33.7400 1465.0000 1.0000
33.7500 1441.0000 1.0000
33.7600 1474.0000 1.0000
33.7700 1454.0000 1.0000
33.7800 1445.0000 1.0000
33.7900 1475.0000 1.0000
33.8000 1474.0000 1.0000
33.8100 1453.0000 1.0000
33.8200 1482.0000 1.0000
33.8300 1555.0000 1.0000
33.8400 1471.0000 1.0000
33.8500 1533.0000 1.0000
33.8600 1518.0000 1.0000
33.8700 1445.0000 1.0000
33.8800 1480.0000 1.0000
33.8900 1511.0000 1.0000
33.9000 1466.0000 1.0000
33.9100 1515.0000 1.0000
33.9200 1498.0000 1.0000
33.9300 1555.0000 1.0000
33.9400 1561.0000 1.0000
33.9500 1464.0000 1.0000
33.9600 1498.0000 1.0000
33.9700 1542.0000 1.0000
33.9800 1500.0000 1.0000
33.9900 1567.0000 1.0000
34.0000 1545.0000 1.0000
34.0100 1532.0000 1.0000
34.0200 1496.0000 1.0000
34.0300 1526.0000 1.0000
34.0400 1526.0000 1.0000
34.0500 1516.0000 1.0000
34.0600 1600.0000 1.0000
34.0700 1551.0000 1.0000
34.0800 1544.0000 1.0000
34.0900 1468.0000 1.0000
34.1000 1491.0000 1.0000
34.1100 1554.0000 1.0000
34.1200 1515.0000 1.0000
34.1300 1521.0000 1.0000
34.1400 1527.0000 1.0000
34.1500 1524.0000 1.0000
34.1600 1588.0000 1.0000
34.1700 1587.0000 1.0000
34.1800 1611.0000 1.0000
34.1900 1614.0000 1.0000
34.2000 1565.0000 1.0000
34.2100 1531.0000 1.0000
34.2200 1669.0000 1.0000
34.2300 1661.0000 1.0000
34.2400 1665.0000 1.0000
34.2500 1667.0000 1.0000
34.2600 1731.0000 1.0000
34.2700 1707.0000 1.0000
34.2800 1724.0000 1.0000
34.2900 1793.0000 1.0000
34.3000 1739.0000 1.0000
34.3100 1790.0000 1.0000
34.3200 1792.0000 1.0000
34.3300 1884.0000 1.0000
34.3400 1930.0000 1.0000
34.3500 1949.0000 1.0000
34.3600 2014.0000 1.0000
34.3700 2036.0000 1.0000
34.3800 2074.0000 1.0000
34.3900 2081.0000 1.0000
34.4000 2192.0000 1.0000
34.4100 2317.0000 1.0000
34.4200 2321.0000 1.0000
34.4300 2458.0000 1.0000
34.4400 2525.0000 1.0000
34.4500 2589.0000 1.0000
34.4600 2674.0000 1.0000
34.4700 2802.0000 1.0000
34.4800 2915.0000 1.0000
34.4900 2968.0000 1.0000
34.5000 3083.0000 1.0000
34.5100 2966.0000 1.0000
34.5200 2888.0000 1.0000
34.5300 2902.0000 1.0000
34.5400 3008.0000 1.0000
34.5500 2885.0000 1.0000
34.5600 2933.0000 1.0000
34.5700 2867.0000 1.0000
34.5800 2818.0000 1.0000
34.5900 2636.0000 1.0000
34.6000 2668.0000 1.0000
34.6100 2518.0000 1.0000
34.6200 2605.0000 1.0000
34.6300 2446.0000 1.0000
34.6400 2445.0000 1.0000
34.6500 2363.0000 1.0000
34.6600 2229.0000 1.0000
34.6700 2156.0000 1.0000
34.6800 2038.0000 1.0000
34.6900 2045.0000 1.0000
34.7000 1976.0000 1.0000
34.7100 1913.0000 1.0000
34.7200 1876.0000 1.0000
34.7300 1859.0000 1.0000
34.7400 1790.0000 1.0000
34.7500 1797.0000 1.0000
34.7600 1784.0000 1.0000
34.7700 1756.0000 1.0000
34.7800 1738.0000 1.0000
34.7900 1695.0000 1.0000
34.8000 1704.0000 1.0000
34.8100 1639.0000 1.0000
34.8200 1623.0000 1.0000
34.8300 1646.0000 1.0000
34.8400 1595.0000 1.0000
34.8500 1641.0000 1.0000
34.8600 1573.0000 1.0000
34.8700 1518.0000 1.0000
34.8800 1537.0000 1.0000
34.8900 1524.0000 1.0000
34.9000 1465.0000 1.0000
34.9100 1382.0000 1.0000
34.9200 1445.0000 1.0000
34.9300 1496.0000 1.0000
34.9400 1457.0000 1.0000
34.9500 1512.0000 1.0000
34.9600 1447.0000 1.0000
34.9700 1395.0000 1.0000
34.9800 1470.0000 1.0000
34.9900 1374.0000 1.0000
35.0000 1373.0000 1.0000
35.0100 1440.0000 1.0000
35.0200 1354.0000 1.0000
35.0300 1369.0000 1.0000
35.0400 1342.0000 1.0000
35.0500 1391.0000 1.0000
35.0600 1378.0000 1.0000
35.0700 1389.0000 1.0000
35.0800 1403.0000 1.0000
35.0900 1332.0000 1.0000
35.1000 1315.0000 1.0000
35.1100 1312.0000 1.0000
35.1200 1285.0000 1.0000
35.1300 1410.0000 1.0000
35.1400 1340.0000 1.0000
35.1500 1328.0000 1.0000
35.1600 1321.0000 1.0000
35.1700 1381.0000 1.0000
35.1800 1381.0000 1.0000
35.1900 1342.0000 1.0000
35.2000 1312.0000 1.0000
35.2100 1283.0000 1.0000
35.2200 1311.0000 1.0000
35.2300 1335.0000 1.0000
35.2400 1297.0000 1.0000
35.2500 1365.0000 1.0000
35.2600 1346.0000 1.0000
35.2700 1299.0000 1.0000
35.2800 1324.0000 1.0000
35.2900 1335.0000 1.0000
35.3000 1334.0000 1.0000
35.3100 1301.0000 1.0000
35.3200 1292.0000 1.0000
35.3300 1310.0000 1.0000
35.3400 1307.0000 1.0000
35.3500 1318.0000 1.0000
35.3600 1245.0000 1.0000
35.3700 1250.0000 1.0000
35.3800 1308.0000 1.0000
35.3900 1272.0000 1.0000
35.4000 1282.0000 1.0000
35.4100 1218.0000 1.0000
35.4200 1261.0000 1.0000
35.4300 1282.0000 1.0000
35.4400 1298.0000 1.0000
35.4500 1271.0000 1.0000
35.4600 1303.0000 1.0000
35.4700 1328.0000 1.0000
35.4800 1249.0000 1.0000
35.4900 1284.0000 1.0000
35.5000 1305.0000 1.0000
35.5100 1258.0000 1.0000
35.5200 1263.0000 1.0000
35.5300 1276.0000 1.0000
35.5400 1327.0000 1.0000
35.5500 1204.0000 1.0000
35.5600 1217.0000 1.0000
35.5700 1268.0000 1.0000
35.5800 1283.0000 1.0000
35.5900 1231.0000 1.0000
35.6000 1212.0000 1.0000
35.6100 1264.0000 1.0000
35.6200 1263.0000 1.0000
35.6300 1281.0000 1.0000
35.6400 1221.0000 1.0000
35.6500 1227.0000 1.0000
35.6600 1261.0000 1.0000
35.6700 1222.0000 1.0000
35.6800 1268.0000 1.0000
35.6900 1223.0000 1.0000
35.7000 1229.0000 1.0000
35.7100 1294.0000 1.0000
35.7200 1307.0000 1.0000
35.7300 1252.0000 1.0000
35.7400 1246.0000 1.0000
35.7500 1242.0000 1.0000
35.7600 1272.0000 1.0000
35.7700 1274.0000 1.0000
35.7800 1272.0000 1.0000
35.7900 1196.0000 1.0000
35.8000 1240.0000 1.0000
35.8100 1228.0000 1.0000
35.8200 1272.0000 1.0000
35.8300 1259.0000 1.0000
35.8400 1225.0000 1.0000
35.8500 1259.0000 1.0000
35.8600 1253.0000 1.0000
35.8700 1258.0000 1.0000
35.8800 1226.0000 1.0000
35.8900 1231.0000 1.0000
35.9000 1242.0000 1.0000
35.9100 1221.0000 1.0000
35.9200 1274.0000 1.0000
35.9300 1262.0000 1.0000
35.9400 1243.0000 1.0000
35.9500 1343.0000 1.0000
35.9600 1264.0000 1.0000
35.9700 1213.0000 1.0000
35.9800 1267.0000 1.0000
35.9900 1257.0000 1.0000
36.0000 1276.0000 1.0000
36.0100 1312.0000 1.0000
36.0200 1328.0000 1.0000
36.0300 1341.0000 1.0000
36.0400 1333.0000 1.0000
36.0500 1274.0000 1.0000
36.0600 1312.0000 1.0000
36.0700 1300.0000 1.0000
36.0800 1296.0000 1.0000
36.0900 1284.0000 1.0000
36.1000 1301.0000 1.0000
36.1100 1387.0000 1.0000
36.1200 1353.0000 1.0000
36.1300 1379.0000 1.0000
36.1400 1367.0000 1.0000
36.1500 1332.0000 1.0000
36.1600 1384.0000 1.0000
36.1700 1420.0000 1.0000
36.1800 1405.0000 1.0000
36.1900 1463.0000 1.0000
36.2000 1456.0000 1.0000
36.2100 1501.0000 1.0000
36.2200 1514.0000 1.0000
36.2300 1491.0000 1.0000
36.2400 1538.0000 1.0000
36.2500 1607.0000 1.0000
36.2600 1572.0000 1.0000
36.2700 1624.0000 1.0000
36.2800 1637.0000 1.0000
36.2900 1732.0000 1.0000
36.3000 1756.0000 1.0000
36.3100 1809.0000 1.0000
36.3200 1808.0000 1.0000
36.3300 1867.0000 1.0000
36.3400 1876.0000 1.0000
36.3500 1844.0000 1.0000
36.3600 1952.0000 1.0000
36.3700 1969.0000 1.0000
36.3800 2001.0000 1.0000
36.3900 2026.0000 1.0000
36.4000 2099.0000 1.0000
36.4100 2024.0000 1.0000
36.4200 2079.0000 1.0000
36.4300 2046.0000 1.0000
36.4400 1997.0000 1.0000
36.4500 2065.0000 1.0000
36.4600 1994.0000 1.0000
36.4700 2027.0000 1.0000
36.4800 1954.0000 1.0000
36.4900 1985.0000 1.0000
36.5000 1940.0000 1.0000
36.5100 1890.0000 1.0000
36.5200 1929.0000 1.0000
36.5300 1875.0000 1.0000
36.5400 1815.0000 1.0000
36.5500 1718.0000 1.0000
36.5600 1787.0000 1.0000
36.5700 1783.0000 1.0000
36.5800 1707.0000 1.0000
36.5900 1656.0000 1.0000
36.6000 1575.0000 1.0000
36.6100 1589.0000 1.0000
36.6200 1542.0000 1.0000
36.6300 1549.0000 1.0000
36.6400 1487.0000 1.0000
36.6500 1502.0000 1.0000
36.6600 1430.0000 1.0000
36.6700 1433.0000 1.0000
36.6800 1420.0000 1.0000
36.6900 1411.0000 1.0000
36.7000 1420.0000 1.0000
36.7100 1374.0000 1.0000
36.7200 1297.0000 1.0000
36.7300 1242.0000 1.0000
36.7400 1281.0000 1.0000
36.7500 1245.0000 1.0000
36.7600 1262.0000 1.0000
36.7700 1262.0000 1.0000
36.7800 1300.0000 1.0000
36.7900 1234.0000 1.0000
36.8000 1219.0000 1.0000
36.8100 1279.0000 1.0000
36.8200 1248.0000 1.0000
36.8300 1222.0000 1.0000
36.8400 1185.0000 1.0000
36.8500 1245.0000 1.0000
36.8600 1226.0000 1.0000
36.8700 1234.0000 1.0000
36.8800 1209.0000 1.0000
36.8900 1184.0000 1.0000
36.9000 1189.0000 1.0000
36.9100 1211.0000 1.0000
36.9200 1181.0000 1.0000
36.9300 1198.0000 1.0000
36.9400 1190.0000 1.0000
36.9500 1213.0000 1.0000
36.9600 1127.0000 1.0000
36.9700 1156.0000 1.0000
36.9800 1203.0000 1.0000
36.9900 1194.0000 1.0000
37.0000 1175.0000 1.0000
37.0100 1197.0000 1.0000
37.0200 1176.0000 1.0000
37.0300 1206.0000 1.0000
37.0400 1183.0000 1.0000
37.0500 1159.0000 1.0000
37.0600 1144.0000 1.0000
37.0700 1103.0000 1.0000
37.0800 1171.0000 1.0000
37.0900 1205.0000 1.0000
37.1000 1163.0000 1.0000
37.1100 1144.0000 1.0000
37.1200 1135.0000 1.0000
37.1300 1183.0000 1.0000
37.1400 1136.0000 1.0000
37.1500 1198.0000 1.0000
37.1600 1159.0000 1.0000
37.1700 1127.0000 1.0000
37.1800 1130.0000 1.0000
37.1900 1160.0000 1.0000
37.2000 1164.0000 1.0000
37.2100 1162.0000 1.0000
37.2200 1174.0000 1.0000
37.2300 1122.0000 1.0000
37.2400 1160.0000 1.0000
37.2500 1111.0000 1.0000
37.2600 1122.0000 1.0000
37.2700 1155.0000 1.0000
37.2800 1104.0000 1.0000
37.2900 1148.0000 1.0000
37.3000 1161.0000 1.0000
37.3100 1138.0000 1.0000
37.3200 1149.0000 1.0000
37.3300 1120.0000 1.0000
37.3400 1194.0000 1.0000
37.3500 1149.0000 1.0000
37.3600 1106.0000 1.0000
37.3700 1187.0000 1.0000
37.3800 1177.0000 1.0000
37.3900 1158.0000 1.0000
37.4000 1177.0000 1.0000
37.4100 1128.0000 1.0000
37.4200 1175.0000 1.0000
37.4300 1201.0000 1.0000
37.4400 1196.0000 1.0000
37.4500 1074.0000 1.0000
37.4600 1129.0000 1.0000
37.4700 1160.0000 1.0000
37.4800 1197.0000 1.0000
37.4900 1158.0000 1.0000
37.5000 1180.0000 1.0000
37.5100 1171.0000 1.0000
37.5200 1097.0000 1.0000
37.5300 1159.0000 1.0000
37.5400 1105.0000 1.0000
37.5500 1121.0000 1.0000
37.5600 1143.0000 1.0000
37.5700 1183.0000 1.0000
37.5800 1099.0000 1.0000
37.5900 1176.0000 1.0000
37.6000 1119.0000 1.0000
37.6100 1176.0000 1.0000
37.6200 1121.0000 1.0000
37.6300 1169.0000 1.0000
37.6400 1160.0000 1.0000
37.6500 1109.0000 1.0000
37.6600 1128.0000 1.0000
37.6700 1122.0000 1.0000
37.6800 1143.0000 1.0000
37.6900 1170.0000 1.0000
37.7000 1135.0000 1.0000
37.7100 1128.0000 1.0000
37.7200 1182.0000 1.0000
37.7300 1130.0000 1.0000
37.7400 1168.0000 1.0000
37.7500 1171.0000 1.0000
37.7600 1119.0000 1.0000
37.7700 1142.0000 1.0000
37.7800 1141.0000 1.0000
37.7900 1150.0000 1.0000
37.8000 1175.0000 1.0000
37.8100 1176.0000 1.0000
37.8200 1227.0000 1.0000
37.8300 1121.0000 1.0000
37.8400 1161.0000 1.0000
37.8500 1156.0000 1.0000
37.8600 1165.0000 1.0000
37.8700 1113.0000 1.0000
37.8800 1191.0000 1.0000
37.8900 1159.0000 1.0000
37.9000 1168.0000 1.0000
37.9100 1147.0000 1.0000
37.9200 1138.0000 1.0000
37.9300 1190.0000 1.0000
37.9400 1152.0000 1.0000
37.9500 1246.0000 1.0000
37.9600 1236.0000 1.0000
37.9700 1237.0000 1.0000
37.9800 1261.0000 1.0000
37.9900 1211.0000 1.0000
38.0000 1209.0000 1.0000
38.0100 1232.0000 1.0000
38.0200 1213.0000 1.0000
38.0300 1276.0000 1.0000
38.0400 1216.0000 1.0000
38.0500 1198.0000 1.0000
38.0600 1265.0000 1.0000
38.0700 1232.0000 1.0000
38.0800 1275.0000 1.0000
38.0900 1283.0000 1.0000
38.1000 1333.0000 1.0000
38.1100 1362.0000 1.0000
38.1200 1358.0000 1.0000
38.1300 1311.0000 1.0000
38.1400 1347.0000 1.0000
38.1500 1371.0000 1.0000
38.1600 1406.0000 1.0000
38.1700 1391.0000 1.0000
38.1800 1418.0000 1.0000
38.1900 1460.0000 1.0000
38.2000 1500.0000 1.0000
38.2100 1554.0000 1.0000
38.2200 1541.0000 1.0000
38.2300 1555.0000 1.0000
38.2400 1671.0000 1.0000
38.2500 1680.0000 1.0000
38.2600 1731.0000 1.0000
38.2700 1838.0000 1.0000
38.2800 1886.0000 1.0000
38.2900 2022.0000 1.0000
38.3000 2000.0000 1.0000
38.3100 2115.0000 1.0000
38.3200 2148.0000 1.0000
38.3300 2251.0000 1.0000
38.3400 2420.0000 1.0000
38.3500 2508.0000 1.0000
38.3600 2638.0000 1.0000
38.3700 2677.0000 1.0000
38.3800 2841.0000 1.0000
38.3900 3033.0000 1.0000
38.4000 3176.0000 1.0000
38.4100 3421.0000 1.0000
38.4200 3726.0000 1.0000
38.4300 3942.0000 1.0000
38.4400 4093.0000 1.0000
38.4500 4491.0000 1.0000
38.4600 4811.0000 1.0000
38.4700 5209.0000 1.0000
38.4800 5802.0000 1.0000
38.4900 6047.0000 1.0000
38.5000 6293.0000 1.0000
38.5100 6584.0000 1.0000
38.5200 7017.0000 1.0000
38.5300 7232.0000 1.0000
38.5400 7539.0000 1.0000
38.5500 7499.0000 1.0000
38.5600 7623.0000 1.0000
38.5700 7667.0000 1.0000
38.5800 7513.0000 1.0000
38.5900 7457.0000 1.0000
38.6000 7176.0000 1.0000
38.6100 7090.0000 1.0000
38.6200 6733.0000 1.0000
38.6300 6533.0000 1.0000
38.6400 6338.0000 1.0000
38.6500 6020.0000 1.0000
38.6600 5833.0000 1.0000
38.6700 5615.0000 1.0000
38.6800 5301.0000 1.0000
38.6900 4947.0000 1.0000
38.7000 4690.0000 1.0000
38.7100 4329.0000 1.0000
38.7200 4056.0000 1.0000
38.7300 3834.0000 1.0000
38.7400 3554.0000 1.0000
38.7500 3275.0000 1.0000
38.7600 3083.0000 1.0000
38.7700 2910.0000 1.0000
38.7800 2770.0000 1.0000
38.7900 2551.0000 1.0000
38.8000 2469.0000 1.0000
38.8100 2350.0000 1.0000
38.8200 2140.0000 1.0000
38.8300 1998.0000 1.0000
38.8400 2037.0000 1.0000
38.8500 1953.0000 1.0000
38.8600 1814.0000 1.0000
38.8700 1809.0000 1.0000
38.8800 1785.0000 1.0000
38.8900 1723.0000 1.0000
38.9000 1591.0000 1.0000
38.9100 1465.0000 1.0000
38.9200 1494.0000 1.0000
38.9300 1443.0000 1.0000
38.9400 1379.0000 1.0000
38.9500 1372.0000 1.0000
38.9600 1327.0000 1.0000
38.9700 1384.0000 1.0000
38.9800 1310.0000 1.0000
38.9900 1324.0000 1.0000
39.0000 1227.0000 1.0000
39.0100 1262.0000 1.0000
39.0200 1245.0000 1.0000
39.0300 1248.0000 1.0000
39.0400 1244.0000 1.0000
39.0500 1263.0000 1.0000
39.0600 1150.0000 1.0000
39.0700 1186.0000 1.0000
39.0800 1173.0000 1.0000
39.0900 1159.0000 1.0000
39.1000 1175.0000 1.0000
39.1100 1129.0000 1.0000
39.1200 1138.0000 1.0000
39.1300 1161.0000 1.0000
39.1400 1146.0000 1.0000
39.1500 1126.0000 1.0000
39.1600 1146.0000 1.0000
39.1700 1114.0000 1.0000
39.1800 1101.0000 1.0000
39.1900 1120.0000 1.0000
39.2000 1110.0000 1.0000
39.2100 1075.0000 1.0000
39.2200 1091.0000 1.0000
39.2300 1091.0000 1.0000
39.2400 1055.0000 1.0000
39.2500 1051.0000 1.0000
39.2600 1011.0000 1.0000
39.2700 1056.0000 1.0000
39.2800 1040.0000 1.0000
39.2900 1077.0000 1.0000
39.3000 1059.0000 1.0000
39.3100 1038.0000 1.0000
39.3200 1096.0000 1.0000
39.3300 1135.0000 1.0000
39.3400 983.0000 1.0000
39.3500 1032.0000 1.0000
39.3600 1070.0000 1.0000
39.3700 1059.0000 1.0000
39.3800 1090.0000 1.0000
39.3900 1110.0000 1.0000
39.4000 1112.0000 1.0000
39.4100 1010.0000 1.0000
39.4200 1064.0000 1.0000
39.4300 1057.0000 1.0000
39.4400 1029.0000 1.0000
39.4500 1063.0000 1.0000
39.4600 1066.0000 1.0000
39.4700 1023.0000 1.0000
39.4800 1088.0000 1.0000
39.4900 1048.0000 1.0000
39.5000 1013.0000 1.0000
39.5100 1019.0000 1.0000
39.5200 1064.0000 1.0000
39.5300 1081.0000 1.0000
39.5400 1119.0000 1.0000
39.5500 1064.0000 1.0000
39.5600 1057.0000 1.0000
39.5700 1091.0000 1.0000
39.5800 1087.0000 1.0000
39.5900 1088.0000 1.0000
39.6000 1045.0000 1.0000
39.6100 1013.0000 1.0000
39.6200 1088.0000 1.0000
39.6300 1084.0000 1.0000
39.6400 1083.0000 1.0000
39.6500 1028.0000 1.0000
39.6600 1062.0000 1.0000
39.6700 1060.0000 1.0000
39.6800 1058.0000 1.0000
39.6900 1075.0000 1.0000
39.7000 1065.0000 1.0000
39.7100 1035.0000 1.0000
39.7200 1031.0000 1.0000
39.7300 1045.0000 1.0000
39.7400 1016.0000 1.0000
39.7500 996.0000 1.0000
39.7600 1049.0000 1.0000
39.7700 1058.0000 1.0000
39.7800 1087.0000 1.0000
39.7900 1011.0000 1.0000
39.8000 1055.0000 1.0000
39.8100 1063.0000 1.0000
39.8200 1012.0000 1.0000
39.8300 1007.0000 1.0000
39.8400 1023.0000 1.0000
39.8500 1012.0000 1.0000
39.8600 1030.0000 1.0000
39.8700 995.0000 1.0000
39.8800 995.0000 1.0000
39.8900 1013.0000 1.0000
39.9000 1024.0000 1.0000
39.9100 1016.0000 1.0000
39.9200 1044.0000 1.0000
39.9300 987.0000 1.0000
39.9400 975.0000 1.0000
39.9500 983.0000 1.0000
39.9600 963.0000 1.0000
39.9700 992.0000 1.0000
39.9800 1002.0000 1.0000
39.9900 1046.0000 1.0000
40.0000 964.0000 1.0000
40.0100 1026.0000 1.0000
40.0200 1019.0000 1.0000
40.0300 973.0000 1.0000
40.0400 939.0000 1.0000
40.0500 970.0000 1.0000
40.0600 982.0000 1.0000
40.0700 953.0000 1.0000
40.0800 930.0000 1.0000
40.0900 994.0000 1.0000
40.1000 1014.0000 1.0000
40.1100 976.0000 1.0000
40.1200 966.0000 1.0000
40.1300 972.0000 1.0000
40.1400 1017.0000 1.0000
40.1500 992.0000 1.0000
40.1600 994.0000 1.0000
40.1700 1028.0000 1.0000
40.1800 995.0000 1.0000
40.1900 914.0000 1.0000
40.2000 947.0000 1.0000
40.2100 950.0000 1.0000
40.2200 944.0000 1.0000
40.2300 986.0000 1.0000
40.2400 959.0000 1.0000
40.2500 974.0000 1.0000
40.2600 951.0000 1.0000
40.2700 948.0000 1.0000
40.2800 1002.0000 1.0000
40.2900 934.0000 1.0000
40.3000 977.0000 1.0000
40.3100 898.0000 1.0000
40.3200 937.0000 1.0000
40.3300 935.0000 1.0000
40.3400 939.0000 1.0000
40.3500 951.0000 1.0000
40.3600 974.0000 1.0000
40.3700 958.0000 1.0000
40.3800 950.0000 1.0000
40.3900 927.0000 1.0000
40.4000 903.0000 1.0000
40.4100 931.0000 1.0000
40.4200 912.0000 1.0000
40.4300 972.0000 1.0000
40.4400 975.0000 1.0000
40.4500 942.0000 1.0000
40.4600 949.0000 1.0000
40.4700 953.0000 1.0000
40.4800 995.0000 1.0000
40.4900 968.0000 1.0000
40.5000 1024.0000 1.0000
40.5100 948.0000 1.0000
40.5200 955.0000 1.0000
40.5300 988.0000 1.0000
40.5400 996.0000 1.0000
40.5500 975.0000 1.0000
40.5600 942.0000 1.0000
40.5700 869.0000 1.0000
40.5800 927.0000 1.0000
40.5900 891.0000 1.0000
40.6000 944.0000 1.0000
40.6100 977.0000 1.0000
40.6200 950.0000 1.0000
40.6300 976.0000 1.0000
40.6400 928.0000 1.0000
40.6500 976.0000 1.0000
40.6600 947.0000 1.0000
40.6700 940.0000 1.0000
40.6800 931.0000 1.0000
40.6900 936.0000 1.0000
40.7000 934.0000 1.0000
40.7100 949.0000 1.0000
40.7200 863.0000 1.0000
40.7300 966.0000 1.0000
40.7400 905.0000 1.0000
40.7500 963.0000 1.0000
40.7600 935.0000 1.0000
40.7700 980.0000 1.0000
40.7800 909.0000 1.0000
40.7900 969.0000 1.0000
40.8000 937.0000 1.0000
40.8100 905.0000 1.0000
40.8200 887.0000 1.0000
40.8300 957.0000 1.0000
40.8400 926.0000 1.0000
40.8500 955.0000 1.0000
40.8600 976.0000 1.0000
40.8700 924.0000 1.0000
40.8800 925.0000 1.0000
40.8900 1026.0000 1.0000
40.9000 990.0000 1.0000
40.9100 977.0000 1.0000
40.9200 973.0000 1.0000
40.9300 941.0000 1.0000
40.9400 917.0000 1.0000
40.9500 985.0000 1.0000
40.9600 914.0000 1.0000
40.9700 977.0000 1.0000
40.9800 958.0000 1.0000
40.9900 928.0000 1.0000
41.0000 952.0000 1.0000
41.0100 939.0000 1.0000
41.0200 914.0000 1.0000
41.0300 948.0000 1.0000
41.0400 973.0000 1.0000
41.0500 921.0000 1.0000
41.0600 926.0000 1.0000
41.0700 934.0000 1.0000
41.0800 909.0000 1.0000
41.0900 928.0000 1.0000
41.1000 978.0000 1.0000
41.1100 995.0000 1.0000
41.1200 922.0000 1.0000
41.1300 982.0000 1.0000
41.1400 981.0000 1.0000
41.1500 961.0000 1.0000
41.1600 996.0000 1.0000
41.1700 967.0000 1.0000
41.1800 906.0000 1.0000
41.1900 905.0000 1.0000
41.2000 916.0000 1.0000
41.2100 925.0000 1.0000
41.2200 918.0000 1.0000
41.2300 947.0000 1.0000
41.2400 955.0000 1.0000
41.2500 929.0000 1.0000
41.2600 935.0000 1.0000
41.2700 983.0000 1.0000
41.2800 972.0000 1.0000
41.2900 913.0000 1.0000
41.3000 909.0000 1.0000
41.3100 964.0000 1.0000
41.3200 944.0000 1.0000
41.3300 944.0000 1.0000
41.3400 924.0000 1.0000
41.3500 964.0000 1.0000
41.3600 944.0000 1.0000
41.3700 927.0000 1.0000
41.3800 933.0000 1.0000
41.3900 955.0000 1.0000
41.4000 947.0000 1.0000
41.4100 946.0000 1.0000
41.4200 960.0000 1.0000
41.4300 926.0000 1.0000
41.4400 878.0000 1.0000
41.4500 913.0000 1.0000
41.4600 915.0000 1.0000
41.4700 929.0000 1.0000
41.4800 984.0000 1.0000
41.4900 888.0000 1.0000
41.5000 956.0000 1.0000
41.5100 925.0000 1.0000
41.5200 918.0000 1.0000
41.5300 932.0000 1.0000
41.5400 904.0000 1.0000
41.5500 897.0000 1.0000
41.5600 936.0000 1.0000
41.5700 948.0000 1.0000
41.5800 943.0000 1.0000
41.5900 930.0000 1.0000
41.6000 978.0000 1.0000
41.6100 941.0000 1.0000
41.6200 925.0000 1.0000
41.6300 992.0000 1.0000
41.6400 927.0000 1.0000
41.6500 951.0000 1.0000
41.6600 908.0000 1.0000
41.6700 933.0000 1.0000
41.6800 937.0000 1.0000
41.6900 917.0000 1.0000
41.7000 934.0000 1.0000
41.7100 965.0000 1.0000
41.7200 971.0000 1.0000
41.7300 919.0000 1.0000
41.7400 986.0000 1.0000
41.7500 903.0000 1.0000
41.7600 921.0000 1.0000
41.7700 914.0000 1.0000
41.7800 919.0000 1.0000
41.7900 945.0000 1.0000
41.8000 972.0000 1.0000
41.8100 911.0000 1.0000
41.8200 955.0000 1.0000
41.8300 920.0000 1.0000
41.8400 956.0000 1.0000
41.8500 926.0000 1.0000
41.8600 954.0000 1.0000
41.8700 938.0000 1.0000
41.8800 943.0000 1.0000
41.8900 941.0000 1.0000
41.9000 933.0000 1.0000
41.9100 904.0000 1.0000
41.9200 910.0000 1.0000
41.9300 921.0000 1.0000
41.9400 897.0000 1.0000
41.9500 902.0000 1.0000
41.9600 896.0000 1.0000
41.9700 913.0000 1.0000
41.9800 908.0000 1.0000
41.9900 924.0000 1.0000
42.0000 923.0000 1.0000
42.0100 911.0000 1.0000
42.0200 909.0000 1.0000
42.0300 941.0000 1.0000
42.0400 901.0000 1.0000
42.0500 945.0000 1.0000
42.0600 940.0000 1.0000
42.0700 918.0000 1.0000
42.0800 911.0000 1.0000
42.0900 895.0000 1.0000
42.1000 874.0000 1.0000
42.1100 890.0000 1.0000
42.1200 938.0000 1.0000
42.1300 887.0000 1.0000
42.1400 889.0000 1.0000
42.1500 897.0000 1.0000
42.1600 843.0000 1.0000
42.1700 909.0000 1.0000
42.1800 914.0000 1.0000
42.1900 927.0000 1.0000
42.2000 908.0000 1.0000
42.2100 936.0000 1.0000
42.2200 910.0000 1.0000
42.2300 910.0000 1.0000
42.2400 882.0000 1.0000
42.2500 914.0000 1.0000
42.2600 882.0000 1.0000
42.2700 896.0000 1.0000
42.2800 881.0000 1.0000
42.2900 947.0000 1.0000
42.3000 872.0000 1.0000
42.3100 909.0000 1.0000
42.3200 917.0000 1.0000
42.3300 961.0000 1.0000
42.3400 977.0000 1.0000
42.3500 897.0000 1.0000
42.3600 862.0000 1.0000
42.3700 977.0000 1.0000
42.3800 930.0000 1.0000
42.3900 914.0000 1.0000
42.4000 884.0000 1.0000
42.4100 916.0000 1.0000
42.4200 902.0000 1.0000
42.4300 883.0000 1.0000
42.4400 892.0000 1.0000
42.4500 944.0000 1.0000
42.4600 905.0000 1.0000
42.4700 901.0000 1.0000
42.4800 903.0000 1.0000
42.4900 913.0000 1.0000
42.5000 892.0000 1.0000
42.5100 916.0000 1.0000
42.5200 910.0000 1.0000
42.5300 919.0000 1.0000
42.5400 822.0000 1.0000
42.5500 916.0000 1.0000
42.5600 931.0000 1.0000
42.5700 899.0000 1.0000
42.5800 905.0000 1.0000
42.5900 884.0000 1.0000
42.6000 883.0000 1.0000
42.6100 904.0000 1.0000
42.6200 890.0000 1.0000
42.6300 861.0000 1.0000
42.6400 902.0000 1.0000
42.6500 897.0000 1.0000
42.6600 957.0000 1.0000
42.6700 897.0000 1.0000
42.6800 948.0000 1.0000
42.6900 857.0000 1.0000
42.7000 926.0000 1.0000
42.7100 921.0000 1.0000
42.7200 881.0000 1.0000
42.7300 927.0000 1.0000
42.7400 907.0000 1.0000
42.7500 950.0000 1.0000
42.7600 881.0000 1.0000
42.7700 886.0000 1.0000
42.7800 865.0000 1.0000
42.7900 894.0000 1.0000
42.8000 923.0000 1.0000
42.8100 905.0000 1.0000
42.8200 972.0000 1.0000
42.8300 921.0000 1.0000
42.8400 913.0000 1.0000
42.8500 908.0000 1.0000
42.8600 874.0000 1.0000
42.8700 957.0000 1.0000
42.8800 944.0000 1.0000
42.8900 964.0000 1.0000
42.9000 914.0000 1.0000
42.9100 900.0000 1.0000
42.9200 940.0000 1.0000
42.9300 941.0000 1.0000
42.9400 911.0000 1.0000
42.9500 944.0000 1.0000
42.9600 871.0000 1.0000
42.9700 908.0000 1.0000
42.9800 945.0000 1.0000
42.9900 930.0000 1.0000
43.0000 912.0000 1.0000
43.0100 947.0000 1.0000
43.0200 904.0000 1.0000
43.0300 883.0000 1.0000
43.0400 904.0000 1.0000
43.0500 961.0000 1.0000
43.0600 916.0000 1.0000
43.0700 847.0000 1.0000
43.0800 883.0000 1.0000
43.0900 901.0000 1.0000
43.1000 940.0000 1.0000
43.1100 893.0000 1.0000
43.1200 970.0000 1.0000
43.1300 965.0000 1.0000
43.1400 960.0000 1.0000
43.1500 941.0000 1.0000
43.1600 952.0000 1.0000
43.1700 991.0000 1.0000
43.1800 961.0000 1.0000
43.1900 955.0000 1.0000
43.2000 1023.0000 1.0000
43.2100 1030.0000 1.0000
43.2200 953.0000 1.0000
43.2300 1001.0000 1.0000
43.2400 991.0000 1.0000
43.2500 998.0000 1.0000
43.2600 993.0000 1.0000
43.2700 952.0000 1.0000
43.2800 985.0000 1.0000
43.2900 1001.0000 1.0000
43.3000 1022.0000 1.0000
43.3100 1001.0000 1.0000
43.3200 1001.0000 1.0000
43.3300 1003.0000 1.0000
43.3400 953.0000 1.0000
43.3500 978.0000 1.0000
43.3600 996.0000 1.0000
43.3700 953.0000 1.0000
43.3800 939.0000 1.0000
43.3900 969.0000 1.0000
43.4000 1032.0000 1.0000
43.4100 976.0000 1.0000
43.4200 981.0000 1.0000
43.4300 1004.0000 1.0000
43.4400 940.0000 1.0000
43.4500 923.0000 1.0000
43.4600 904.0000 1.0000
43.4700 930.0000 1.0000
43.4800 880.0000 1.0000
43.4900 935.0000 1.0000
43.5000 911.0000 1.0000
43.5100 949.0000 1.0000
43.5200 915.0000 1.0000
43.5300 897.0000 1.0000
43.5400 898.0000 1.0000
43.5500 886.0000 1.0000
43.5600 902.0000 1.0000
43.5700 925.0000 1.0000
43.5800 882.0000 1.0000
43.5900 896.0000 1.0000
43.6000 919.0000 1.0000
43.6100 902.0000 1.0000
43.6200 930.0000 1.0000
43.6300 916.0000 1.0000
43.6400 907.0000 1.0000
43.6500 932.0000 1.0000
43.6600 945.0000 1.0000
43.6700 886.0000 1.0000
43.6800 888.0000 1.0000
43.6900 929.0000 1.0000
43.7000 897.0000 1.0000
43.7100 930.0000 1.0000
43.7200 880.0000 1.0000
43.7300 922.0000 1.0000
43.7400 817.0000 1.0000
43.7500 927.0000 1.0000
43.7600 940.0000 1.0000
43.7700 914.0000 1.0000
43.7800 887.0000 1.0000
43.7900 923.0000 1.0000
43.8000 911.0000 1.0000
43.8100 857.0000 1.0000
43.8200 897.0000 1.0000
43.8300 920.0000 1.0000
43.8400 899.0000 1.0000
43.8500 855.0000 1.0000
43.8600 907.0000 1.0000
43.8700 909.0000 1.0000
43.8800 909.0000 1.0000
43.8900 925.0000 1.0000
43.9000 909.0000 1.0000
43.9100 879.0000 1.0000
43.9200 875.0000 1.0000
43.9300 865.0000 1.0000
43.9400 883.0000 1.0000
43.9500 900.0000 1.0000
43.9600 899.0000 1.0000
43.9700 859.0000 1.0000
43.9800 910.0000 1.0000
43.9900 838.0000 1.0000
44.0000 912.0000 1.0000
44.0100 878.0000 1.0000
44.0200 896.0000 1.0000
44.0300 867.0000 1.0000
44.0400 885.0000 1.0000
44.0500 895.0000 1.0000
44.0600 855.0000 1.0000
44.0700 885.0000 1.0000
44.0800 904.0000 1.0000
44.0900 859.0000 1.0000
44.1000 899.0000 1.0000
44.1100 849.0000 1.0000
44.1200 891.0000 1.0000
44.1300 859.0000 1.0000
44.1400 921.0000 1.0000
44.1500 912.0000 1.0000
44.1600 892.0000 1.0000
44.1700 873.0000 1.0000
44.1800 948.0000 1.0000
44.1900 894.0000 1.0000
44.2000 887.0000 1.0000
44.2100 891.0000 1.0000
44.2200 900.0000 1.0000
44.2300 837.0000 1.0000
44.2400 889.0000 1.0000
44.2500 870.0000 1.0000
44.2600 897.0000 1.0000
44.2700 874.0000 1.0000
44.2800 871.0000 1.0000
44.2900 854.0000 1.0000
44.3000 887.0000 1.0000
44.3100 861.0000 1.0000
44.3200 872.0000 1.0000
44.3300 958.0000 1.0000
44.3400 920.0000 1.0000
44.3500 868.0000 1.0000
44.3600 902.0000 1.0000
44.3700 905.0000 1.0000
44.3800 941.0000 1.0000
44.3900 891.0000 1.0000
44.4000 886.0000 1.0000
44.4100 915.0000 1.0000
44.4200 889.0000 1.0000
44.4300 888.0000 1.0000
44.4400 905.0000 1.0000
44.4500 924.0000 1.0000
44.4600 943.0000 1.0000
44.4700 913.0000 1.0000
44.4800 875.0000 1.0000
44.4900 868.0000 1.0000
44.5000 885.0000 1.0000
44.5100 871.0000 1.0000
44.5200 850.0000 1.0000
44.5300 905.0000 1.0000
44.5400 855.0000 1.0000
44.5500 857.0000 1.0000
44.5600 866.0000 1.0000
44.5700 895.0000 1.0000
44.5800 890.0000 1.0000
44.5900 871.0000 1.0000
44.6000 821.0000 1.0000
44.6100 845.0000 1.0000
44.6200 878.0000 1.0000
44.6300 864.0000 1.0000
44.6400 871.0000 1.0000
44.6500 870.0000 1.0000
44.6600 862.0000 1.0000
44.6700 848.0000 1.0000
44.6800 862.0000 1.0000
44.6900 852.0000 1.0000
44.7000 862.0000 1.0000
44.7100 894.0000 1.0000
44.7200 837.0000 1.0000
44.7300 902.0000 1.0000
44.7400 863.0000 1.0000
44.7500 864.0000 1.0000
44.7600 907.0000 1.0000
44.7700 882.0000 1.0000
44.7800 830.0000 1.0000
44.7900 889.0000 1.0000
44.8000 891.0000 1.0000
44.8100 858.0000 1.0000
44.8200 839.0000 1.0000
44.8300 883.0000 1.0000
44.8400 870.0000 1.0000
44.8500 877.0000 1.0000
44.8600 845.0000 1.0000
44.8700 919.0000 1.0000
44.8800 869.0000 1.0000
44.8900 846.0000 1.0000
44.9000 876.0000 1.0000
44.9100 857.0000 1.0000
44.9200 873.0000 1.0000
44.9300 840.0000 1.0000
44.9400 884.0000 1.0000
44.9500 864.0000 1.0000
44.9600 889.0000 1.0000
44.9700 884.0000 1.0000
44.9800 860.0000 1.0000
44.9900 888.0000 1.0000
45.0000 849.0000 1.0000
45.0100 894.0000 1.0000
45.0200 868.0000 1.0000
45.0300 839.0000 1.0000
45.0400 890.0000 1.0000
45.0500 881.0000 1.0000
45.0600 809.0000 1.0000
45.0700 870.0000 1.0000
45.0800 856.0000 1.0000
45.0900 888.0000 1.0000
45.1000 854.0000 1.0000
45.1100 861.0000 1.0000
45.1200 847.0000 1.0000
45.1300 874.0000 1.0000
45.1400 893.0000 1.0000
45.1500 843.0000 1.0000
45.1600 858.0000 1.0000
45.1700 874.0000 1.0000
45.1800 879.0000 1.0000
45.1900 853.0000 1.0000
45.2000 895.0000 1.0000
45.2100 871.0000 1.0000
45.2200 840.0000 1.0000
45.2300 851.0000 1.0000
45.2400 827.0000 1.0000
45.2500 868.0000 1.0000
45.2600 822.0000 1.0000
45.2700 876.0000 1.0000
45.2800 856.0000 1.0000
45.2900 870.0000 1.0000
45.3000 850.0000 1.0000
45.3100 854.0000 1.0000
45.3200 881.0000 1.0000
45.3300 852.0000 1.0000
45.3400 816.0000 1.0000
45.3500 822.0000 1.0000
45.3600 817.0000 1.0000
45.3700 889.0000 1.0000
45.3800 863.0000 1.0000
45.3900 812.0000 1.0000
45.4000 818.0000 1.0000
45.4100 834.0000 1.0000
45.4200 877.0000 1.0000
45.4300 871.0000 1.0000
45.4400 882.0000 1.0000
45.4500 866.0000 1.0000
45.4600 859.0000 1.0000
45.4700 854.0000 1.0000
45.4800 844.0000 1.0000
45.4900 868.0000 1.0000
45.5000 850.0000 1.0000
45.5100 846.0000 1.0000
45.5200 839.0000 1.0000
45.5300 869.0000 1.0000
45.5400 858.0000 1.0000
45.5500 862.0000 1.0000
45.5600 837.0000 1.0000
45.5700 887.0000 1.0000
45.5800 849.0000 1.0000
45.5900 880.0000 1.0000
45.6000 856.0000 1.0000
45.6100 839.0000 1.0000
45.6200 857.0000 1.0000
45.6300 857.0000 1.0000
45.6400 832.0000 1.0000
45.6500 858.0000 1.0000
45.6600 863.0000 1.0000
45.6700 827.0000 1.0000
45.6800 879.0000 1.0000
45.6900 828.0000 1.0000
45.7000 834.0000 1.0000
45.7100 837.0000 1.0000
45.7200 871.0000 1.0000
45.7300 833.0000 1.0000
45.7400 842.0000 1.0000
45.7500 830.0000 1.0000
45.7600 822.0000 1.0000
45.7700 855.0000 1.0000
45.7800 853.0000 1.0000
45.7900 861.0000 1.0000
45.8000 826.0000 1.0000
45.8100 843.0000 1.0000
45.8200 816.0000 1.0000
45.8300 797.0000 1.0000
45.8400 862.0000 1.0000
45.8500 818.0000 1.0000
45.8600 817.0000 1.0000
45.8700 842.0000 1.0000
45.8800 851.0000 1.0000
45.8900 828.0000 1.0000
45.9000 845.0000 1.0000
45.9100 794.0000 1.0000
45.9200 817.0000 1.0000
45.9300 825.0000 1.0000
45.9400 805.0000 1.0000
45.9500 814.0000 1.0000
45.9600 801.0000 1.0000
45.9700 835.0000 1.0000
45.9800 857.0000 1.0000
45.9900 834.0000 1.0000
46.0000 866.0000 1.0000
46.0100 833.0000 1.0000
46.0200 870.0000 1.0000
46.0300 794.0000 1.0000
46.0400 813.0000 1.0000
46.0500 816.0000 1.0000
46.0600 817.0000 1.0000
46.0700 848.0000 1.0000
46.0800 841.0000 1.0000
46.0900 826.0000 1.0000
46.1000 864.0000 1.0000
46.1100 860.0000 1.0000
46.1200 855.0000 1.0000
46.1300 812.0000 1.0000
46.1400 866.0000 1.0000
46.1500 845.0000 1.0000
46.1600 807.0000 1.0000
46.1700 880.0000 1.0000
46.1800 861.0000 1.0000
46.1900 852.0000 1.0000
46.2000 852.0000 1.0000
46.2100 835.0000 1.0000
46.2200 832.0000 1.0000
46.2300 884.0000 1.0000
46.2400 797.0000 1.0000
46.2500 809.0000 1.0000
46.2600 785.0000 1.0000
46.2700 823.0000 1.0000
46.2800 860.0000 1.0000
46.2900 823.0000 1.0000
46.3000 834.0000 1.0000
46.3100 846.0000 1.0000
46.3200 781.0000 1.0000
46.3300 847.0000 1.0000
46.3400 810.0000 1.0000
46.3500 830.0000 1.0000
46.3600 811.0000 1.0000
46.3700 822.0000 1.0000
46.3800 842.0000 1.0000
46.3900 806.0000 1.0000
46.4000 835.0000 1.0000
46.4100 818.0000 1.0000
46.4200 823.0000 1.0000
46.4300 814.0000 1.0000
46.4400 825.0000 1.0000
46.4500 831.0000 1.0000
46.4600 791.0000 1.0000
46.4700 827.0000 1.0000
46.4800 832.0000 1.0000
46.4900 812.0000 1.0000
46.5000 838.0000 1.0000
46.5100 844.0000 1.0000
46.5200 840.0000 1.0000
46.5300 847.0000 1.0000
46.5400 809.0000 1.0000
46.5500 805.0000 1.0000
46.5600 840.0000 1.0000
46.5700 848.0000 1.0000
46.5800 817.0000 1.0000
46.5900 819.0000 1.0000
46.6000 833.0000 1.0000
46.6100 820.0000 1.0000
46.6200 870.0000 1.0000
46.6300 825.0000 1.0000
46.6400 750.0000 1.0000
46.6500 830.0000 1.0000
46.6600 849.0000 1.0000
46.6700 820.0000 1.0000
46.6800 787.0000 1.0000
46.6900 783.0000 1.0000
46.7000 807.0000 1.0000
46.7100 848.0000 1.0000
46.7200 846.0000 1.0000
46.7300 799.0000 1.0000
46.7400 860.0000 1.0000
46.7500 808.0000 1.0000
46.7600 810.0000 1.0000
46.7700 807.0000 1.0000
46.7800 845.0000 1.0000
46.7900 842.0000 1.0000
46.8000 840.0000 1.0000
46.8100 859.0000 1.0000
46.8200 815.0000 1.0000
46.8300 810.0000 1.0000
46.8400 841.0000 1.0000
46.8500 834.0000 1.0000
46.8600 771.0000 1.0000
46.8700 792.0000 1.0000
46.8800 891.0000 1.0000
46.8900 839.0000 1.0000
46.9000 798.0000 1.0000
46.9100 826.0000 1.0000
46.9200 843.0000 1.0000
46.9300 809.0000 1.0000
46.9400 839.0000 1.0000
46.9500 868.0000 1.0000
46.9600 828.0000 1.0000
46.9700 799.0000 1.0000
46.9800 849.0000 1.0000
46.9900 804.0000 1.0000
47.0000 880.0000 1.0000
47.0100 839.0000 1.0000
47.0200 769.0000 1.0000
47.0300 821.0000 1.0000
47.0400 874.0000 1.0000
47.0500 870.0000 1.0000
47.0600 813.0000 1.0000
47.0700 806.0000 1.0000
47.0800 818.0000 1.0000
47.0900 823.0000 1.0000
47.1000 837.0000 1.0000
47.1100 868.0000 1.0000
47.1200 899.0000 1.0000
47.1300 827.0000 1.0000
47.1400 779.0000 1.0000
47.1500 829.0000 1.0000
47.1600 849.0000 1.0000
47.1700 807.0000 1.0000
47.1800 851.0000 1.0000
47.1900 833.0000 1.0000
47.2000 844.0000 1.0000
47.2100 827.0000 1.0000
47.2200 827.0000 1.0000
47.2300 855.0000 1.0000
47.2400 830.0000 1.0000
47.2500 806.0000 1.0000
47.2600 825.0000 1.0000
47.2700 788.0000 1.0000
47.2800 842.0000 1.0000
47.2900 808.0000 1.0000
47.3000 840.0000 1.0000
47.3100 818.0000 1.0000
47.3200 829.0000 1.0000
47.3300 813.0000 1.0000
47.3400 792.0000 1.0000
47.3500 834.0000 1.0000
47.3600 860.0000 1.0000
47.3700 804.0000 1.0000
47.3800 810.0000 1.0000
47.3900 826.0000 1.0000
47.4000 795.0000 1.0000
47.4100 802.0000 1.0000
47.4200 819.0000 1.0000
47.4300 815.0000 1.0000
47.4400 863.0000 1.0000
47.4500 798.0000 1.0000
47.4600 823.0000 1.0000
47.4700 785.0000 1.0000
47.4800 801.0000 1.0000
47.4900 807.0000 1.0000
47.5000 821.0000 1.0000
47.5100 827.0000 1.0000
47.5200 837.0000 1.0000
47.5300 826.0000 1.0000
47.5400 815.0000 1.0000
47.5500 802.0000 1.0000
47.5600 754.0000 1.0000
47.5700 802.0000 1.0000
47.5800 802.0000 1.0000
47.5900 814.0000 1.0000
47.6000 817.0000 1.0000
47.6100 812.0000 1.0000
47.6200 779.0000 1.0000
47.6300 788.0000 1.0000
47.6400 787.0000 1.0000
47.6500 786.0000 1.0000
47.6600 801.0000 1.0000
47.6700 817.0000 1.0000
47.6800 830.0000 1.0000
47.6900 826.0000 1.0000
47.7000 830.0000 1.0000
47.7100 815.0000 1.0000
47.7200 810.0000 1.0000
47.7300 802.0000 1.0000
47.7400 832.0000 1.0000
47.7500 823.0000 1.0000
47.7600 812.0000 1.0000
47.7700 798.0000 1.0000
47.7800 796.0000 1.0000
47.7900 802.0000 1.0000
47.8000 772.0000 1.0000
47.8100 789.0000 1.0000
47.8200 802.0000 1.0000
47.8300 819.0000 1.0000
47.8400 804.0000 1.0000
47.8500 790.0000 1.0000
47.8600 754.0000 1.0000
47.8700 821.0000 1.0000
47.8800 800.0000 1.0000
47.8900 764.0000 1.0000
47.9000 799.0000 1.0000
47.9100 784.0000 1.0000
47.9200 769.0000 1.0000
47.9300 817.0000 1.0000
47.9400 793.0000 1.0000
47.9500 757.0000 1.0000
47.9600 784.0000 1.0000
47.9700 840.0000 1.0000
47.9800 867.0000 1.0000
47.9900 812.0000 1.0000
48.0000 821.0000 1.0000
48.0100 806.0000 1.0000
48.0200 778.0000 1.0000
48.0300 786.0000 1.0000
48.0400 803.0000 1.0000
48.0500 785.0000 1.0000
48.0600 736.0000 1.0000
48.0700 772.0000 1.0000
48.0800 805.0000 1.0000
48.0900 794.0000 1.0000
48.1000 750.0000 1.0000
48.1100 754.0000 1.0000
48.1200 829.0000 1.0000
48.1300 834.0000 1.0000
48.1400 827.0000 1.0000
48.1500 810.0000 1.0000
48.1600 880.0000 1.0000
48.1700 809.0000 1.0000
48.1800 778.0000 1.0000
48.1900 769.0000 1.0000
48.2000 774.0000 1.0000
48.2100 795.0000 1.0000
48.2200 806.0000 1.0000
48.2300 817.0000 1.0000
48.2400 810.0000 1.0000
48.2500 783.0000 1.0000
48.2600 792.0000 1.0000
48.2700 800.0000 1.0000
48.2800 830.0000 1.0000
48.2900 808.0000 1.0000
48.3000 813.0000 1.0000
48.3100 770.0000 1.0000
48.3200 756.0000 1.0000
48.3300 811.0000 1.0000
48.3400 761.0000 1.0000
48.3500 738.0000 1.0000
48.3600 760.0000 1.0000
48.3700 751.0000 1.0000
48.3800 762.0000 1.0000
48.3900 768.0000 1.0000
48.4000 799.0000 1.0000
48.4100 807.0000 1.0000
48.4200 806.0000 1.0000
48.4300 798.0000 1.0000
48.4400 815.0000 1.0000
48.4500 786.0000 1.0000
48.4600 752.0000 1.0000
48.4700 732.0000 1.0000
48.4800 744.0000 1.0000
48.4900 810.0000 1.0000
48.5000 806.0000 1.0000
48.5100 770.0000 1.0000
48.5200 812.0000 1.0000
48.5300 786.0000 1.0000
48.5400 764.0000 1.0000
48.5500 776.0000 1.0000
48.5600 788.0000 1.0000
48.5700 782.0000 1.0000
48.5800 793.0000 1.0000
48.5900 798.0000 1.0000
48.6000 822.0000 1.0000
48.6100 800.0000 1.0000
48.6200 800.0000 1.0000
48.6300 813.0000 1.0000
48.6400 787.0000 1.0000
48.6500 744.0000 1.0000
48.6600 764.0000 1.0000
48.6700 804.0000 1.0000
48.6800 825.0000 1.0000
48.6900 790.0000 1.0000
48.7000 803.0000 1.0000
48.7100 776.0000 1.0000
48.7200 786.0000 1.0000
48.7300 765.0000 1.0000
48.7400 842.0000 1.0000
48.7500 793.0000 1.0000
48.7600 784.0000 1.0000
48.7700 780.0000 1.0000
48.7800 786.0000 1.0000
48.7900 784.0000 1.0000
48.8000 753.0000 1.0000
48.8100 767.0000 1.0000
48.8200 767.0000 1.0000
48.8300 750.0000 1.0000
48.8400 764.0000 1.0000
48.8500 764.0000 1.0000
48.8600 767.0000 1.0000
48.8700 803.0000 1.0000
48.8800 808.0000 1.0000
48.8900 779.0000 1.0000
48.9000 798.0000 1.0000
48.9100 774.0000 1.0000
48.9200 836.0000 1.0000
48.9300 790.0000 1.0000
48.9400 791.0000 1.0000
48.9500 789.0000 1.0000
48.9600 798.0000 1.0000
48.9700 740.0000 1.0000
48.9800 790.0000 1.0000
48.9900 768.0000 1.0000
49.0000 775.0000 1.0000
49.0100 762.0000 1.0000
49.0200 777.0000 1.0000
49.0300 791.0000 1.0000
49.0400 787.0000 1.0000
49.0500 805.0000 1.0000
49.0600 810.0000 1.0000
49.0700 748.0000 1.0000
49.0800 743.0000 1.0000
49.0900 750.0000 1.0000
49.1000 770.0000 1.0000
49.1100 735.0000 1.0000
49.1200 795.0000 1.0000
49.1300 780.0000 1.0000
49.1400 745.0000 1.0000
49.1500 784.0000 1.0000
49.1600 812.0000 1.0000
49.1700 831.0000 1.0000
49.1800 802.0000 1.0000
49.1900 803.0000 1.0000
49.2000 812.0000 1.0000
49.2100 766.0000 1.0000
49.2200 823.0000 1.0000
49.2300 795.0000 1.0000
49.2400 789.0000 1.0000
49.2500 787.0000 1.0000
49.2600 761.0000 1.0000
49.2700 749.0000 1.0000
49.2800 738.0000 1.0000
49.2900 815.0000 1.0000
49.3000 761.0000 1.0000
49.3100 811.0000 1.0000
49.3200 789.0000 1.0000
49.3300 793.0000 1.0000
49.3400 773.0000 1.0000
49.3500 777.0000 1.0000
49.3600 786.0000 1.0000
49.3700 779.0000 1.0000
49.3800 797.0000 1.0000
49.3900 825.0000 1.0000
49.4000 809.0000 1.0000
49.4100 770.0000 1.0000
49.4200 751.0000 1.0000
49.4300 782.0000 1.0000
49.4400 787.0000 1.0000
49.4500 797.0000 1.0000
49.4600 790.0000 1.0000
49.4700 764.0000 1.0000
49.4800 792.0000 1.0000
49.4900 772.0000 1.0000
49.5000 779.0000 1.0000
49.5100 788.0000 1.0000
49.5200 792.0000 1.0000
49.5300 772.0000 1.0000
49.5400 800.0000 1.0000
49.5500 778.0000 1.0000
49.5600 753.0000 1.0000
49.5700 794.0000 1.0000
49.5800 767.0000 1.0000
49.5900 779.0000 1.0000
49.6000 719.0000 1.0000
49.6100 760.0000 1.0000
49.6200 766.0000 1.0000
49.6300 752.0000 1.0000
49.6400 789.0000 1.0000
49.6500 785.0000 1.0000
49.6600 747.0000 1.0000
49.6700 743.0000 1.0000
49.6800 774.0000 1.0000
49.6900 743.0000 1.0000
49.7000 786.0000 1.0000
49.7100 764.0000 1.0000
49.7200 770.0000 1.0000
49.7300 789.0000 1.0000
49.7400 714.0000 1.0000
49.7500 819.0000 1.0000
49.7600 793.0000 1.0000
49.7700 848.0000 1.0000
49.7800 814.0000 1.0000
49.7900 818.0000 1.0000
49.8000 749.0000 1.0000
49.8100 752.0000 1.0000
49.8200 777.0000 1.0000
49.8300 779.0000 1.0000
49.8400 756.0000 1.0000
49.8500 800.0000 1.0000
49.8600 787.0000 1.0000
49.8700 772.0000 1.0000
49.8800 782.0000 1.0000
49.8900 782.0000 1.0000
49.9000 755.0000 1.0000
49.9100 790.0000 1.0000
49.9200 786.0000 1.0000
49.9300 825.0000 1.0000
49.9400 763.0000 1.0000
49.9500 771.0000 1.0000
49.9600 786.0000 1.0000
49.9700 814.0000 1.0000
49.9800 773.0000 1.0000
49.9900 786.0000 1.0000
50.0000 782.0000 1.0000
50.0100 737.0000 1.0000
50.0200 764.0000 1.0000
50.0300 781.0000 1.0000
50.0400 789.0000 1.0000
50.0500 808.0000 1.0000
50.0600 741.0000 1.0000
50.0700 781.0000 1.0000
50.0800 801.0000 1.0000
50.0900 781.0000 1.0000
50.1000 726.0000 1.0000
50.1100 780.0000 1.0000
50.1200 764.0000 1.0000
50.1300 767.0000 1.0000
50.1400 763.0000 1.0000
50.1500 773.0000 1.0000
50.1600 766.0000 1.0000
50.1700 758.0000 1.0000
50.1800 771.0000 1.0000
50.1900 810.0000 1.0000
50.2000 763.0000 1.0000
50.2100 832.0000 1.0000
50.2200 819.0000 1.0000
50.2300 755.0000 1.0000
50.2400 802.0000 1.0000
50.2500 788.0000 1.0000
50.2600 735.0000 1.0000
50.2700 757.0000 1.0000
50.2800 782.0000 1.0000
50.2900 792.0000 1.0000
50.3000 771.0000 1.0000
50.3100 772.0000 1.0000
50.3200 772.0000 1.0000
50.3300 737.0000 1.0000
50.3400 763.0000 1.0000
50.3500 791.0000 1.0000
50.3600 745.0000 1.0000
50.3700 777.0000 1.0000
50.3800 799.0000 1.0000
50.3900 755.0000 1.0000
50.4000 778.0000 1.0000
50.4100 799.0000 1.0000
50.4200 808.0000 1.0000
50.4300 802.0000 1.0000
50.4400 844.0000 1.0000
50.4500 828.0000 1.0000
50.4600 795.0000 1.0000
50.4700 835.0000 1.0000
50.4800 806.0000 1.0000
50.4900 770.0000 1.0000
50.5000 765.0000 1.0000
50.5100 797.0000 1.0000
50.5200 822.0000 1.0000
50.5300 773.0000 1.0000
50.5400 843.0000 1.0000
50.5500 771.0000 1.0000
50.5600 781.0000 1.0000
50.5700 779.0000 1.0000
50.5800 750.0000 1.0000
50.5900 747.0000 1.0000
50.6000 795.0000 1.0000
50.6100 781.0000 1.0000
50.6200 768.0000 1.0000
50.6300 773.0000 1.0000
50.6400 797.0000 1.0000
50.6500 796.0000 1.0000
50.6600 788.0000 1.0000
50.6700 787.0000 1.0000
50.6800 751.0000 1.0000
50.6900 774.0000 1.0000
50.7000 771.0000 1.0000
50.7100 780.0000 1.0000
50.7200 787.0000 1.0000
50.7300 820.0000 1.0000
50.7400 767.0000 1.0000
50.7500 765.0000 1.0000
50.7600 786.0000 1.0000
50.7700 767.0000 1.0000
50.7800 747.0000 1.0000
50.7900 751.0000 1.0000
50.8000 800.0000 1.0000
50.8100 831.0000 1.0000
50.8200 791.0000 1.0000
50.8300 842.0000 1.0000
50.8400 770.0000 1.0000
50.8500 765.0000 1.0000
50.8600 775.0000 1.0000
50.8700 761.0000 1.0000
50.8800 809.0000 1.0000
50.8900 780.0000 1.0000
50.9000 755.0000 1.0000
50.9100 795.0000 1.0000
50.9200 747.0000 1.0000
50.9300 755.0000 1.0000
50.9400 732.0000 1.0000
50.9500 766.0000 1.0000
50.9600 803.0000 1.0000
50.9700 763.0000 1.0000
50.9800 778.0000 1.0000
50.9900 808.0000 1.0000
51.0000 822.0000 1.0000
51.0100 781.0000 1.0000
51.0200 783.0000 1.0000
51.0300 750.0000 1.0000
51.0400 808.0000 1.0000
51.0500 783.0000 1.0000
51.0600 790.0000 1.0000
51.0700 786.0000 1.0000
51.0800 797.0000 1.0000
51.0900 773.0000 1.0000
51.1000 764.0000 1.0000
51.1100 779.0000 1.0000
51.1200 763.0000 1.0000
51.1300 737.0000 1.0000
51.1400 776.0000 1.0000
51.1500 818.0000 1.0000
51.1600 790.0000 1.0000
51.1700 770.0000 1.0000
51.1800 734.0000 1.0000
51.1900 758.0000 1.0000
51.2000 751.0000 1.0000
51.2100 769.0000 1.0000
51.2200 780.0000 1.0000
51.2300 818.0000 1.0000
51.2400 772.0000 1.0000
51.2500 805.0000 1.0000
51.2600 789.0000 1.0000
51.2700 828.0000 1.0000
51.2800 834.0000 1.0000
51.2900 766.0000 1.0000
51.3000 771.0000 1.0000
51.3100 792.0000 1.0000
51.3200 814.0000 1.0000
51.3300 797.0000 1.0000
51.3400 785.0000 1.0000
51.3500 768.0000 1.0000
51.3600 779.0000 1.0000
51.3700 780.0000 1.0000
51.3800 779.0000 1.0000
51.3900 788.0000 1.0000
51.4000 799.0000 1.0000
51.4100 761.0000 1.0000
51.4200 789.0000 1.0000
51.4300 791.0000 1.0000
51.4400 808.0000 1.0000
51.4500 815.0000 1.0000
51.4600 832.0000 1.0000
51.4700 803.0000 1.0000
51.4800 793.0000 1.0000
51.4900 814.0000 1.0000
51.5000 792.0000 1.0000
51.5100 798.0000 1.0000
51.5200 762.0000 1.0000
51.5300 776.0000 1.0000
51.5400 807.0000 1.0000
51.5500 770.0000 1.0000
51.5600 791.0000 1.0000
51.5700 828.0000 1.0000
51.5800 802.0000 1.0000
51.5900 779.0000 1.0000
51.6000 813.0000 1.0000
51.6100 824.0000 1.0000
51.6200 812.0000 1.0000
51.6300 822.0000 1.0000
51.6400 804.0000 1.0000
51.6500 805.0000 1.0000
51.6600 837.0000 1.0000
51.6700 763.0000 1.0000
51.6800 821.0000 1.0000
51.6900 806.0000 1.0000
51.7000 812.0000 1.0000
51.7100 801.0000 1.0000
51.7200 864.0000 1.0000
51.7300 824.0000 1.0000
51.7400 836.0000 1.0000
51.7500 823.0000 1.0000
51.7600 840.0000 1.0000
51.7700 824.0000 1.0000
51.7800 837.0000 1.0000
51.7900 817.0000 1.0000
51.8000 873.0000 1.0000
51.8100 858.0000 1.0000
51.8200 853.0000 1.0000
51.8300 868.0000 1.0000
51.8400 853.0000 1.0000
51.8500 818.0000 1.0000
51.8600 905.0000 1.0000
51.8700 886.0000 1.0000
51.8800 889.0000 1.0000
51.8900 935.0000 1.0000
51.9000 928.0000 1.0000
51.9100 953.0000 1.0000
51.9200 975.0000 1.0000
51.9300 984.0000 1.0000
51.9400 1020.0000 1.0000
51.9500 1063.0000 1.0000
51.9600 1033.0000 1.0000
51.9700 1048.0000 1.0000
51.9800 1098.0000 1.0000
51.9900 1120.0000 1.0000
52.0000 1138.0000 1.0000
52.0100 1219.0000 1.0000
52.0200 1244.0000 1.0000
52.0300 1220.0000 1.0000
52.0400 1321.0000 1.0000
52.0500 1352.0000 1.0000
52.0600 1367.0000 1.0000
52.0700 1399.0000 1.0000
52.0800 1449.0000 1.0000
52.0900 1483.0000 1.0000
52.1000 1561.0000 1.0000
52.1100 1679.0000 1.0000
52.1200 1751.0000 1.0000
52.1300 1893.0000 1.0000
52.1400 2053.0000 1.0000
52.1500 2129.0000 1.0000
52.1600 2304.0000 1.0000
52.1700 2416.0000 1.0000
52.1800 2654.0000 1.0000
52.1900 2954.0000 1.0000
52.2000 3072.0000 1.0000
52.2100 3435.0000 1.0000
52.2200 3672.0000 1.0000
52.2300 3885.0000 1.0000
52.2400 4275.0000 1.0000
52.2500 4464.0000 1.0000
52.2600 4591.0000 1.0000
52.2700 4902.0000 1.0000
52.2800 4931.0000 1.0000
52.2900 4980.0000 1.0000
52.3000 4960.0000 1.0000
52.3100 4781.0000 1.0000
52.3200 4624.0000 1.0000
52.3300 4471.0000 1.0000
52.3400 4326.0000 1.0000
52.3500 4218.0000 1.0000
52.3600 4095.0000 1.0000
52.3700 4003.0000 1.0000
52.3800 3760.0000 1.0000
52.3900 3772.0000 1.0000
52.4000 3771.0000 1.0000
52.4100 3680.0000 1.0000
52.4200 3515.0000 1.0000
52.4300 3447.0000 1.0000
52.4400 3241.0000 1.0000
52.4500 3177.0000 1.0000
52.4600 2977.0000 1.0000
52.4700 2812.0000 1.0000
52.4800 2555.0000 1.0000
52.4900 2395.0000 1.0000
52.5000 2226.0000 1.0000
52.5100 2079.0000 1.0000
52.5200 1937.0000 1.0000
52.5300 1845.0000 1.0000
52.5400 1731.0000 1.0000
52.5500 1699.0000 1.0000
52.5600 1630.0000 1.0000
52.5700 1510.0000 1.0000
52.5800 1491.0000 1.0000
52.5900 1366.0000 1.0000
52.6000 1274.0000 1.0000
52.6100 1323.0000 1.0000
52.6200 1280.0000 1.0000
52.6300 1209.0000 1.0000
52.6400 1153.0000 1.0000
52.6500 1151.0000 1.0000
52.6600 1118.0000 1.0000
52.6700 1085.0000 1.0000
52.6800 1079.0000 1.0000
52.6900 1025.0000 1.0000
52.7000 1063.0000 1.0000
52.7100 1019.0000 1.0000
52.7200 1001.0000 1.0000
52.7300 956.0000 1.0000
52.7400 974.0000 1.0000
52.7500 980.0000 1.0000
52.7600 942.0000 1.0000
52.7700 944.0000 1.0000
52.7800 874.0000 1.0000
52.7900 917.0000 1.0000
52.8000 927.0000 1.0000
52.8100 907.0000 1.0000
52.8200 930.0000 1.0000
52.8300 898.0000 1.0000
52.8400 849.0000 1.0000
52.8500 843.0000 1.0000
52.8600 894.0000 1.0000
52.8700 904.0000 1.0000
52.8800 872.0000 1.0000
52.8900 824.0000 1.0000
52.9000 832.0000 1.0000
52.9100 843.0000 1.0000
52.9200 872.0000 1.0000
52.9300 826.0000 1.0000
52.9400 870.0000 1.0000
52.9500 854.0000 1.0000
52.9600 816.0000 1.0000
52.9700 814.0000 1.0000
52.9800 843.0000 1.0000
52.9900 845.0000 1.0000
53.0000 838.0000 1.0000
53.0100 815.0000 1.0000
53.0200 850.0000 1.0000
53.0300 834.0000 1.0000
53.0400 832.0000 1.0000
53.0500 844.0000 1.0000
53.0600 805.0000 1.0000
53.0700 850.0000 1.0000
53.0800 813.0000 1.0000
53.0900 745.0000 1.0000
53.1000 771.0000 1.0000
53.1100 796.0000 1.0000
53.1200 796.0000 1.0000
53.1300 792.0000 1.0000
53.1400 809.0000 1.0000
53.1500 786.0000 1.0000
53.1600 777.0000 1.0000
53.1700 788.0000 1.0000
53.1800 781.0000 1.0000
53.1900 758.0000 1.0000
53.2000 809.0000 1.0000
53.2100 813.0000 1.0000
53.2200 814.0000 1.0000
53.2300 776.0000 1.0000
53.2400 820.0000 1.0000
53.2500 813.0000 1.0000
53.2600 802.0000 1.0000
53.2700 772.0000 1.0000
53.2800 803.0000 1.0000
53.2900 805.0000 1.0000
53.3000 777.0000 1.0000
53.3100 782.0000 1.0000
53.3200 805.0000 1.0000
53.3300 753.0000 1.0000
53.3400 780.0000 1.0000
53.3500 727.0000 1.0000
53.3600 758.0000 1.0000
53.3700 793.0000 1.0000
53.3800 768.0000 1.0000
53.3900 777.0000 1.0000
53.4000 780.0000 1.0000
53.4100 787.0000 1.0000
53.4200 796.0000 1.0000
53.4300 801.0000 1.0000
53.4400 776.0000 1.0000
53.4500 741.0000 1.0000
53.4600 768.0000 1.0000
53.4700 776.0000 1.0000
53.4800 761.0000 1.0000
53.4900 782.0000 1.0000
53.5000 779.0000 1.0000
53.5100 770.0000 1.0000
53.5200 771.0000 1.0000
53.5300 740.0000 1.0000
53.5400 759.0000 1.0000
53.5500 748.0000 1.0000
53.5600 729.0000 1.0000
53.5700 790.0000 1.0000
53.5800 800.0000 1.0000
53.5900 750.0000 1.0000
53.6000 755.0000 1.0000
53.6100 760.0000 1.0000
53.6200 761.0000 1.0000
53.6300 739.0000 1.0000
53.6400 780.0000 1.0000
53.6500 739.0000 1.0000
53.6600 744.0000 1.0000
53.6700 741.0000 1.0000
53.6800 779.0000 1.0000
53.6900 758.0000 1.0000
53.7000 770.0000 1.0000
53.7100 771.0000 1.0000
53.7200 776.0000 1.0000
53.7300 768.0000 1.0000
53.7400 782.0000 1.0000
53.7500 806.0000 1.0000
53.7600 755.0000 1.0000
53.7700 779.0000 1.0000
53.7800 776.0000 1.0000
53.7900 734.0000 1.0000
53.8000 766.0000 1.0000
53.8100 791.0000 1.0000
53.8200 728.0000 1.0000
53.8300 733.0000 1.0000
53.8400 782.0000 1.0000
53.8500 744.0000 1.0000
53.8600 785.0000 1.0000
53.8700 800.0000 1.0000
53.8800 775.0000 1.0000
53.8900 709.0000 1.0000
53.9000 769.0000 1.0000
53.9100 784.0000 1.0000
53.9200 766.0000 1.0000
53.9300 768.0000 1.0000
53.9400 764.0000 1.0000
53.9500 771.0000 1.0000
53.9600 778.0000 1.0000
53.9700 761.0000 1.0000
53.9800 730.0000 1.0000
53.9900 760.0000 1.0000
54.0000 792.0000 1.0000
54.0100 789.0000 1.0000
54.0200 775.0000 1.0000
54.0300 782.0000 1.0000
54.0400 746.0000 1.0000
54.0500 711.0000 1.0000
54.0600 752.0000 1.0000
54.0700 779.0000 1.0000
54.0800 796.0000 1.0000
54.0900 765.0000 1.0000
54.1000 745.0000 1.0000
54.1100 729.0000 1.0000
54.1200 750.0000 1.0000
54.1300 768.0000 1.0000
54.1400 729.0000 1.0000
54.1500 770.0000 1.0000
54.1600 756.0000 1.0000
54.1700 742.0000 1.0000
54.1800 801.0000 1.0000
54.1900 758.0000 1.0000
54.2000 781.0000 1.0000
54.2100 721.0000 1.0000
54.2200 731.0000 1.0000
54.2300 710.0000 1.0000
54.2400 751.0000 1.0000
54.2500 747.0000 1.0000
54.2600 751.0000 1.0000
54.2700 758.0000 1.0000
54.2800 771.0000 1.0000
54.2900 772.0000 1.0000
54.3000 806.0000 1.0000
54.3100 796.0000 1.0000
54.3200 754.0000 1.0000
54.3300 778.0000 1.0000
54.3400 783.0000 1.0000
54.3500 747.0000 1.0000
54.3600 788.0000 1.0000
54.3700 762.0000 1.0000
54.3800 761.0000 1.0000
54.3900 784.0000 1.0000
54.4000 766.0000 1.0000
54.4100 764.0000 1.0000
54.4200 748.0000 1.0000
54.4300 760.0000 1.0000
54.4400 751.0000 1.0000
54.4500 774.0000 1.0000
54.4600 796.0000 1.0000
54.4700 731.0000 1.0000
54.4800 737.0000 1.0000
54.4900 733.0000 1.0000
54.5000 775.0000 1.0000
54.5100 745.0000 1.0000
54.5200 760.0000 1.0000
54.5300 748.0000 1.0000
54.5400 769.0000 1.0000
54.5500 738.0000 1.0000
54.5600 789.0000 1.0000
54.5700 744.0000 1.0000
54.5800 767.0000 1.0000
54.5900 739.0000 1.0000
54.6000 742.0000 1.0000
54.6100 739.0000 1.0000
54.6200 742.0000 1.0000
54.6300 806.0000 1.0000
54.6400 749.0000 1.0000
54.6500 735.0000 1.0000
54.6600 762.0000 1.0000
54.6700 778.0000 1.0000
54.6800 791.0000 1.0000
54.6900 805.0000 1.0000
54.7000 791.0000 1.0000
54.7100 727.0000 1.0000
54.7200 772.0000 1.0000
54.7300 792.0000 1.0000
54.7400 771.0000 1.0000
54.7500 772.0000 1.0000
54.7600 803.0000 1.0000
54.7700 758.0000 1.0000
54.7800 773.0000 1.0000
54.7900 768.0000 1.0000
54.8000 782.0000 1.0000
54.8100 746.0000 1.0000
54.8200 765.0000 1.0000
54.8300 794.0000 1.0000
54.8400 854.0000 1.0000
54.8500 801.0000 1.0000
54.8600 823.0000 1.0000
54.8700 810.0000 1.0000
54.8800 783.0000 1.0000
54.8900 811.0000 1.0000
54.9000 855.0000 1.0000
54.9100 787.0000 1.0000
54.9200 780.0000 1.0000
54.9300 814.0000 1.0000
54.9400 801.0000 1.0000
54.9500 809.0000 1.0000
54.9600 844.0000 1.0000
54.9700 809.0000 1.0000
54.9800 829.0000 1.0000
54.9900 805.0000 1.0000
55.0000 776.0000 1.0000
55.0100 849.0000 1.0000
55.0200 869.0000 1.0000
55.0300 813.0000 1.0000
55.0400 827.0000 1.0000
55.0500 844.0000 1.0000
55.0600 858.0000 1.0000
55.0700 843.0000 1.0000
55.0800 846.0000 1.0000
55.0900 883.0000 1.0000
55.1000 925.0000 1.0000
55.1100 901.0000 1.0000
55.1200 853.0000 1.0000
55.1300 898.0000 1.0000
55.1400 915.0000 1.0000
55.1500 918.0000 1.0000
55.1600 951.0000 1.0000
55.1700 982.0000 1.0000
55.1800 928.0000 1.0000
55.1900 918.0000 1.0000
55.2000 979.0000 1.0000
55.2100 1002.0000 1.0000
55.2200 1025.0000 1.0000
55.2300 1111.0000 1.0000
55.2400 1081.0000 1.0000
55.2500 1092.0000 1.0000
55.2600 1108.0000 1.0000
55.2700 1112.0000 1.0000
55.2800 1139.0000 1.0000
55.2900 1161.0000 1.0000
55.3000 1138.0000 1.0000
55.3100 1060.0000 1.0000
55.3200 1168.0000 1.0000
55.3300 1141.0000 1.0000
55.3400 1133.0000 1.0000
55.3500 1087.0000 1.0000
55.3600 1168.0000 1.0000
55.3700 1122.0000 1.0000
55.3800 1099.0000 1.0000
55.3900 1093.0000 1.0000
55.4000 1036.0000 1.0000
55.4100 1066.0000 1.0000
55.4200 1033.0000 1.0000
55.4300 1012.0000 1.0000
55.4400 1010.0000 1.0000
55.4500 1007.0000 1.0000
55.4600 1050.0000 1.0000
55.4700 1009.0000 1.0000
55.4800 982.0000 1.0000
55.4900 975.0000 1.0000
55.5000 946.0000 1.0000
55.5100 949.0000 1.0000
55.5200 986.0000 1.0000
55.5300 946.0000 1.0000
55.5400 985.0000 1.0000
55.5500 957.0000 1.0000
55.5600 892.0000 1.0000
55.5700 874.0000 1.0000
55.5800 861.0000 1.0000
55.5900 859.0000 1.0000
55.6000 852.0000 1.0000
55.6100 856.0000 1.0000
55.6200 837.0000 1.0000
55.6300 854.0000 1.0000
55.6400 834.0000 1.0000
55.6500 780.0000 1.0000
55.6600 775.0000 1.0000
55.6700 780.0000 1.0000
55.6800 799.0000 1.0000
55.6900 857.0000 1.0000
55.7000 768.0000 1.0000
55.7100 772.0000 1.0000
55.7200 755.0000 1.0000
55.7300 789.0000 1.0000
55.7400 763.0000 1.0000
55.7500 817.0000 1.0000
55.7600 750.0000 1.0000
55.7700 766.0000 1.0000
55.7800 759.0000 1.0000
55.7900 734.0000 1.0000
55.8000 761.0000 1.0000
55.8100 815.0000 1.0000
55.8200 754.0000 1.0000
55.8300 783.0000 1.0000
55.8400 769.0000 1.0000
55.8500 769.0000 1.0000
55.8600 747.0000 1.0000
55.8700 745.0000 1.0000
55.8800 791.0000 1.0000
55.8900 776.0000 1.0000
55.9000 739.0000 1.0000
55.9100 759.0000 1.0000
55.9200 773.0000 1.0000
55.9300 732.0000 1.0000
55.9400 765.0000 1.0000
55.9500 713.0000 1.0000
55.9600 724.0000 1.0000
55.9700 793.0000 1.0000
55.9800 752.0000 1.0000
55.9900 749.0000 1.0000
56.0000 750.0000 1.0000
56.0100 759.0000 1.0000
56.0200 783.0000 1.0000
56.0300 731.0000 1.0000
56.0400 778.0000 1.0000
56.0500 715.0000 1.0000
56.0600 781.0000 1.0000
56.0700 768.0000 1.0000
56.0800 768.0000 1.0000
56.0900 738.0000 1.0000
56.1000 762.0000 1.0000
56.1100 722.0000 1.0000
56.1200 761.0000 1.0000
56.1300 724.0000 1.0000
56.1400 726.0000 1.0000
56.1500 756.0000 1.0000
56.1600 776.0000 1.0000
56.1700 767.0000 1.0000
56.1800 746.0000 1.0000
56.1900 741.0000 1.0000
56.2000 742.0000 1.0000
56.2100 764.0000 1.0000
56.2200 769.0000 1.0000
56.2300 754.0000 1.0000
56.2400 702.0000 1.0000
56.2500 748.0000 1.0000
56.2600 734.0000 1.0000
56.2700 753.0000 1.0000
56.2800 724.0000 1.0000
56.2900 743.0000 1.0000
56.3000 769.0000 1.0000
56.3100 694.0000 1.0000
56.3200 718.0000 1.0000
56.3300 711.0000 1.0000
56.3400 758.0000 1.0000
56.3500 760.0000 1.0000
56.3600 719.0000 1.0000
56.3700 779.0000 1.0000
56.3800 771.0000 1.0000
56.3900 730.0000 1.0000
56.4000 729.0000 1.0000
56.4100 738.0000 1.0000
56.4200 742.0000 1.0000
56.4300 731.0000 1.0000
56.4400 710.0000 1.0000
56.4500 697.0000 1.0000
56.4600 750.0000 1.0000
56.4700 744.0000 1.0000
56.4800 713.0000 1.0000
56.4900 752.0000 1.0000
56.5000 731.0000 1.0000
56.5100 737.0000 1.0000
56.5200 682.0000 1.0000
56.5300 724.0000 1.0000
56.5400 740.0000 1.0000
56.5500 738.0000 1.0000
56.5600 707.0000 1.0000
56.5700 705.0000 1.0000
56.5800 693.0000 1.0000
56.5900 729.0000 1.0000
56.6000 741.0000 1.0000
56.6100 750.0000 1.0000
56.6200 702.0000 1.0000
56.6300 735.0000 1.0000
56.6400 688.0000 1.0000
56.6500 726.0000 1.0000
56.6600 732.0000 1.0000
56.6700 777.0000 1.0000
56.6800 708.0000 1.0000
56.6900 739.0000 1.0000
56.7000 722.0000 1.0000
56.7100 676.0000 1.0000
56.7200 684.0000 1.0000
56.7300 719.0000 1.0000
56.7400 707.0000 1.0000
56.7500 753.0000 1.0000
56.7600 722.0000 1.0000
56.7700 733.0000 1.0000
56.7800 700.0000 1.0000
56.7900 709.0000 1.0000
56.8000 728.0000 1.0000
56.8100 760.0000 1.0000
56.8200 723.0000 1.0000
56.8300 742.0000 1.0000
56.8400 734.0000 1.0000
56.8500 752.0000 1.0000
56.8600 760.0000 1.0000
56.8700 715.0000 1.0000
56.8800 691.0000 1.0000
56.8900 714.0000 1.0000
56.9000 713.0000 1.0000
56.9100 707.0000 1.0000
56.9200 726.0000 1.0000
56.9300 769.0000 1.0000
56.9400 725.0000 1.0000
56.9500 732.0000 1.0000
56.9600 767.0000 1.0000
56.9700 758.0000 1.0000
56.9800 683.0000 1.0000
56.9900 719.0000 1.0000
57.0000 741.0000 1.0000
57.0100 741.0000 1.0000
57.0200 759.0000 1.0000
57.0300 680.0000 1.0000
57.0400 734.0000 1.0000
57.0500 722.0000 1.0000
57.0600 714.0000 1.0000
57.0700 716.0000 1.0000
57.0800 749.0000 1.0000
57.0900 735.0000 1.0000
57.1000 717.0000 1.0000
57.1100 716.0000 1.0000
57.1200 721.0000 1.0000
57.1300 706.0000 1.0000
57.1400 776.0000 1.0000
57.1500 726.0000 1.0000
57.1600 778.0000 1.0000
57.1700 698.0000 1.0000
57.1800 728.0000 1.0000
57.1900 680.0000 1.0000
57.2000 719.0000 1.0000
57.2100 697.0000 1.0000
57.2200 713.0000 1.0000
57.2300 725.0000 1.0000
57.2400 705.0000 1.0000
57.2500 740.0000 1.0000
57.2600 732.0000 1.0000
57.2700 729.0000 1.0000
57.2800 733.0000 1.0000
57.2900 756.0000 1.0000
57.3000 683.0000 1.0000
57.3100 703.0000 1.0000
57.3200 729.0000 1.0000
57.3300 761.0000 1.0000
57.3400 706.0000 1.0000
57.3500 704.0000 1.0000
57.3600 736.0000 1.0000
57.3700 769.0000 1.0000
57.3800 758.0000 1.0000
57.3900 727.0000 1.0000
57.4000 728.0000 1.0000
57.4100 727.0000 1.0000
57.4200 726.0000 1.0000
57.4300 734.0000 1.0000
57.4400 724.0000 1.0000
57.4500 729.0000 1.0000
57.4600 721.0000 1.0000
57.4700 736.0000 1.0000
57.4800 741.0000 1.0000
57.4900 707.0000 1.0000
57.5000 744.0000 1.0000
57.5100 726.0000 1.0000
57.5200 715.0000 1.0000
57.5300 696.0000 1.0000
57.5400 729.0000 1.0000
57.5500 721.0000 1.0000
57.5600 742.0000 1.0000
57.5700 733.0000 1.0000
57.5800 723.0000 1.0000
57.5900 751.0000 1.0000
57.6000 715.0000 1.0000
57.6100 751.0000 1.0000
57.6200 744.0000 1.0000
57.6300 739.0000 1.0000
57.6400 750.0000 1.0000
57.6500 722.0000 1.0000
57.6600 737.0000 1.0000
57.6700 697.0000 1.0000
57.6800 729.0000 1.0000
57.6900 685.0000 1.0000
57.7000 691.0000 1.0000
57.7100 664.0000 1.0000
57.7200 705.0000 1.0000
57.7300 709.0000 1.0000
57.7400 711.0000 1.0000
57.7500 659.0000 1.0000
57.7600 722.0000 1.0000
57.7700 762.0000 1.0000
57.7800 687.0000 1.0000
57.7900 694.0000 1.0000
57.8000 747.0000 1.0000
57.8100 748.0000 1.0000
57.8200 736.0000 1.0000
57.8300 742.0000 1.0000
57.8400 696.0000 1.0000
57.8500 676.0000 1.0000
57.8600 658.0000 1.0000
57.8700 684.0000 1.0000
57.8800 716.0000 1.0000
57.8900 742.0000 1.0000
57.9000 744.0000 1.0000
57.9100 751.0000 1.0000
57.9200 705.0000 1.0000
57.9300 712.0000 1.0000
57.9400 705.0000 1.0000
57.9500 690.0000 1.0000
57.9600 681.0000 1.0000
57.9700 691.0000 1.0000
57.9800 735.0000 1.0000
57.9900 726.0000 1.0000
58.0000 711.0000 1.0000
58.0100 770.0000 1.0000
58.0200 724.0000 1.0000
58.0300 753.0000 1.0000
58.0400 769.0000 1.0000
58.0500 705.0000 1.0000
58.0600 739.0000 1.0000
58.0700 718.0000 1.0000
58.0800 694.0000 1.0000
58.0900 766.0000 1.0000
58.1000 722.0000 1.0000
58.1100 743.0000 1.0000
58.1200 724.0000 1.0000
58.1300 731.0000 1.0000
58.1400 686.0000 1.0000
58.1500 737.0000 1.0000
58.1600 743.0000 1.0000
58.1700 731.0000 1.0000
58.1800 767.0000 1.0000
58.1900 738.0000 1.0000
58.2000 738.0000 1.0000
58.2100 677.0000 1.0000
58.2200 715.0000 1.0000
58.2300 756.0000 1.0000
58.2400 719.0000 1.0000
58.2500 738.0000 1.0000
58.2600 690.0000 1.0000
58.2700 745.0000 1.0000
58.2800 715.0000 1.0000
58.2900 752.0000 1.0000
58.3000 733.0000 1.0000
58.3100 757.0000 1.0000
58.3200 761.0000 1.0000
58.3300 752.0000 1.0000
58.3400 738.0000 1.0000
58.3500 761.0000 1.0000
58.3600 714.0000 1.0000
58.3700 711.0000 1.0000
58.3800 760.0000 1.0000
58.3900 739.0000 1.0000
58.4000 671.0000 1.0000
58.4100 720.0000 1.0000
58.4200 711.0000 1.0000
58.4300 673.0000 1.0000
58.4400 747.0000 1.0000
58.4500 743.0000 1.0000
58.4600 767.0000 1.0000
58.4700 756.0000 1.0000
58.4800 737.0000 1.0000
58.4900 694.0000 1.0000
58.5000 734.0000 1.0000
58.5100 694.0000 1.0000
58.5200 757.0000 1.0000
58.5300 731.0000 1.0000
58.5400 752.0000 1.0000
58.5500 728.0000 1.0000
58.5600 685.0000 1.0000
58.5700 732.0000 1.0000
58.5800 682.0000 1.0000
58.5900 711.0000 1.0000
58.6000 751.0000 1.0000
58.6100 702.0000 1.0000
58.6200 704.0000 1.0000
58.6300 744.0000 1.0000
58.6400 718.0000 1.0000
58.6500 664.0000 1.0000
58.6600 707.0000 1.0000
58.6700 709.0000 1.0000
58.6800 724.0000 1.0000
58.6900 791.0000 1.0000
58.7000 690.0000 1.0000
58.7100 724.0000 1.0000
58.7200 720.0000 1.0000
58.7300 737.0000 1.0000
58.7400 733.0000 1.0000
58.7500 673.0000 1.0000
58.7600 690.0000 1.0000
58.7700 732.0000 1.0000
58.7800 705.0000 1.0000
58.7900 725.0000 1.0000
58.8000 706.0000 1.0000
58.8100 691.0000 1.0000
58.8200 716.0000 1.0000
58.8300 745.0000 1.0000
58.8400 716.0000 1.0000
58.8500 681.0000 1.0000
58.8600 706.0000 1.0000
58.8700 717.0000 1.0000
58.8800 723.0000 1.0000
58.8900 731.0000 1.0000
58.9000 728.0000 1.0000
58.9100 700.0000 1.0000
58.9200 713.0000 1.0000
58.9300 712.0000 1.0000
58.9400 729.0000 1.0000
58.9500 742.0000 1.0000
58.9600 718.0000 1.0000
58.9700 721.0000 1.0000
58.9800 687.0000 1.0000
58.9900 715.0000 1.0000
59.0000 717.0000 1.0000
59.0100 699.0000 1.0000
59.0200 715.0000 1.0000
59.0300 751.0000 1.0000
59.0400 688.0000 1.0000
59.0500 707.0000 1.0000
59.0600 705.0000 1.0000
59.0700 647.0000 1.0000
59.0800 724.0000 1.0000
59.0900 746.0000 1.0000
59.1000 734.0000 1.0000
59.1100 696.0000 1.0000
59.1200 701.0000 1.0000
59.1300 704.0000 1.0000
59.1400 671.0000 1.0000
59.1500 711.0000 1.0000
59.1600 785.0000 1.0000
59.1700 658.0000 1.0000
59.1800 711.0000 1.0000
59.1900 716.0000 1.0000
59.2000 722.0000 1.0000
59.2100 718.0000 1.0000
59.2200 715.0000 1.0000
59.2300 707.0000 1.0000
59.2400 741.0000 1.0000
59.2500 709.0000 1.0000
59.2600 702.0000 1.0000
59.2700 681.0000 1.0000
59.2800 713.0000 1.0000
59.2900 728.0000 1.0000
59.3000 702.0000 1.0000
59.3100 752.0000 1.0000
59.3200 755.0000 1.0000
59.3300 705.0000 1.0000
59.3400 727.0000 1.0000
59.3500 723.0000 1.0000
59.3600 723.0000 1.0000
59.3700 727.0000 1.0000
59.3800 748.0000 1.0000
59.3900 681.0000 1.0000
59.4000 699.0000 1.0000
59.4100 711.0000 1.0000
59.4200 745.0000 1.0000
59.4300 728.0000 1.0000
59.4400 720.0000 1.0000
59.4500 760.0000 1.0000
59.4600 753.0000 1.0000
59.4700 709.0000 1.0000
59.4800 756.0000 1.0000
59.4900 768.0000 1.0000
59.5000 716.0000 1.0000
59.5100 718.0000 1.0000
59.5200 692.0000 1.0000
59.5300 728.0000 1.0000
59.5400 719.0000 1.0000
59.5500 687.0000 1.0000
59.5600 672.0000 1.0000
59.5700 729.0000 1.0000
59.5800 679.0000 1.0000
59.5900 713.0000 1.0000
59.6000 721.0000 1.0000
59.6100 684.0000 1.0000
59.6200 712.0000 1.0000
59.6300 703.0000 1.0000
59.6400 729.0000 1.0000
59.6500 699.0000 1.0000
59.6600 701.0000 1.0000
59.6700 684.0000 1.0000
59.6800 719.0000 1.0000
59.6900 665.0000 1.0000
59.7000 693.0000 1.0000
59.7100 723.0000 1.0000
59.7200 705.0000 1.0000
59.7300 745.0000 1.0000
59.7400 765.0000 1.0000
59.7500 725.0000 1.0000
59.7600 698.0000 1.0000
59.7700 715.0000 1.0000
59.7800 712.0000 1.0000
59.7900 695.0000 1.0000
59.8000 696.0000 1.0000
59.8100 711.0000 1.0000
59.8200 681.0000 1.0000
59.8300 717.0000 1.0000
59.8400 713.0000 1.0000
59.8500 669.0000 1.0000
59.8600 691.0000 1.0000
59.8700 717.0000 1.0000
59.8800 714.0000 1.0000
59.8900 716.0000 1.0000
59.9000 701.0000 1.0000
59.9100 728.0000 1.0000
59.9200 707.0000 1.0000
59.9300 686.0000 1.0000
59.9400 707.0000 1.0000
59.9500 725.0000 1.0000
59.9600 764.0000 1.0000
59.9700 703.0000 1.0000
59.9800 763.0000 1.0000
59.9900 698.0000 1.0000
60.0000 728.0000 1.0000
60.0100 724.0000 1.0000
60.0200 770.0000 1.0000
60.0300 716.0000 1.0000
60.0400 753.0000 1.0000
60.0500 676.0000 1.0000
60.0600 728.0000 1.0000
60.0700 730.0000 1.0000
60.0800 726.0000 1.0000
60.0900 719.0000 1.0000
60.1000 687.0000 1.0000
60.1100 748.0000 1.0000
60.1200 700.0000 1.0000
60.1300 704.0000 1.0000
60.1400 703.0000 1.0000
60.1500 725.0000 1.0000
60.1600 726.0000 1.0000
60.1700 722.0000 1.0000
60.1800 704.0000 1.0000
60.1900 742.0000 1.0000
60.2000 704.0000 1.0000
60.2100 701.0000 1.0000
60.2200 733.0000 1.0000
60.2300 737.0000 1.0000
60.2400 717.0000 1.0000
60.2500 694.0000 1.0000
60.2600 716.0000 1.0000
60.2700 707.0000 1.0000
60.2800 706.0000 1.0000
60.2900 726.0000 1.0000
60.3000 700.0000 1.0000
60.3100 707.0000 1.0000
60.3200 685.0000 1.0000
60.3300 733.0000 1.0000
60.3400 703.0000 1.0000
60.3500 688.0000 1.0000
60.3600 717.0000 1.0000
60.3700 720.0000 1.0000
60.3800 674.0000 1.0000
60.3900 723.0000 1.0000
60.4000 721.0000 1.0000
60.4100 688.0000 1.0000
60.4200 676.0000 1.0000
60.4300 692.0000 1.0000
60.4400 736.0000 1.0000
60.4500 681.0000 1.0000
60.4600 699.0000 1.0000
60.4700 687.0000 1.0000
60.4800 690.0000 1.0000
60.4900 731.0000 1.0000
60.5000 713.0000 1.0000
60.5100 675.0000 1.0000
60.5200 748.0000 1.0000
60.5300 727.0000 1.0000
60.5400 690.0000 1.0000
60.5500 725.0000 1.0000
60.5600 733.0000 1.0000
60.5700 722.0000 1.0000
60.5800 752.0000 1.0000
60.5900 706.0000 1.0000
60.6000 701.0000 1.0000
60.6100 720.0000 1.0000
60.6200 732.0000 1.0000
60.6300 692.0000 1.0000
60.6400 724.0000 1.0000
60.6500 704.0000 1.0000
60.6600 710.0000 1.0000
60.6700 683.0000 1.0000
60.6800 703.0000 1.0000
60.6900 716.0000 1.0000
60.7000 698.0000 1.0000
60.7100 713.0000 1.0000
60.7200 703.0000 1.0000
60.7300 733.0000 1.0000
60.7400 746.0000 1.0000
60.7500 725.0000 1.0000
60.7600 686.0000 1.0000
60.7700 727.0000 1.0000
60.7800 688.0000 1.0000
60.7900 739.0000 1.0000
60.8000 734.0000 1.0000
60.8100 734.0000 1.0000
60.8200 744.0000 1.0000
60.8300 692.0000 1.0000
60.8400 723.0000 1.0000
60.8500 758.0000 1.0000
60.8600 680.0000 1.0000
60.8700 738.0000 1.0000
60.8800 756.0000 1.0000
60.8900 726.0000 1.0000
60.9000 725.0000 1.0000
60.9100 695.0000 1.0000
60.9200 698.0000 1.0000
60.9300 738.0000 1.0000
60.9400 725.0000 1.0000
60.9500 725.0000 1.0000
60.9600 733.0000 1.0000
60.9700 708.0000 1.0000
60.9800 762.0000 1.0000
60.9900 709.0000 1.0000
61.0000 692.0000 1.0000
61.0100 679.0000 1.0000
61.0200 693.0000 1.0000
61.0300 677.0000 1.0000
61.0400 681.0000 1.0000
61.0500 697.0000 1.0000
61.0600 687.0000 1.0000
61.0700 677.0000 1.0000
61.0800 704.0000 1.0000
61.0900 728.0000 1.0000
61.1000 697.0000 1.0000
61.1100 691.0000 1.0000
61.1200 706.0000 1.0000
61.1300 692.0000 1.0000
61.1400 748.0000 1.0000
61.1500 739.0000 1.0000
61.1600 789.0000 1.0000
61.1700 740.0000 1.0000
61.1800 702.0000 1.0000
61.1900 700.0000 1.0000
61.2000 693.0000 1.0000
61.2100 713.0000 1.0000
61.2200 760.0000 1.0000
61.2300 768.0000 1.0000
61.2400 687.0000 1.0000
61.2500 743.0000 1.0000
61.2600 728.0000 1.0000
61.2700 736.0000 1.0000
61.2800 693.0000 1.0000
61.2900 721.0000 1.0000
61.3000 733.0000 1.0000
61.3100 699.0000 1.0000
61.3200 703.0000 1.0000
61.3300 702.0000 1.0000
61.3400 693.0000 1.0000
61.3500 716.0000 1.0000
61.3600 731.0000 1.0000
61.3700 759.0000 1.0000
61.3800 699.0000 1.0000
61.3900 711.0000 1.0000
61.4000 716.0000 1.0000
61.4100 763.0000 1.0000
61.4200 745.0000 1.0000
61.4300 733.0000 1.0000
61.4400 705.0000 1.0000
61.4500 725.0000 1.0000
61.4600 685.0000 1.0000
61.4700 684.0000 1.0000
61.4800 708.0000 1.0000
61.4900 756.0000 1.0000
61.5000 712.0000 1.0000
61.5100 762.0000 1.0000
61.5200 726.0000 1.0000
61.5300 695.0000 1.0000
61.5400 746.0000 1.0000
61.5500 725.0000 1.0000
61.5600 754.0000 1.0000
61.5700 772.0000 1.0000
61.5800 743.0000 1.0000
61.5900 748.0000 1.0000
61.6000 706.0000 1.0000
61.6100 744.0000 1.0000
61.6200 746.0000 1.0000
61.6300 763.0000 1.0000
61.6400 746.0000 1.0000
61.6500 756.0000 1.0000
61.6600 730.0000 1.0000
61.6700 774.0000 1.0000
61.6800 744.0000 1.0000
61.6900 724.0000 1.0000
61.7000 721.0000 1.0000
61.7100 754.0000 1.0000
61.7200 753.0000 1.0000
61.7300 754.0000 1.0000
61.7400 686.0000 1.0000
61.7500 765.0000 1.0000
61.7600 745.0000 1.0000
61.7700 769.0000 1.0000
61.7800 780.0000 1.0000
61.7900 786.0000 1.0000
61.8000 773.0000 1.0000
61.8100 811.0000 1.0000
61.8200 736.0000 1.0000
61.8300 734.0000 1.0000
61.8400 777.0000 1.0000
61.8500 819.0000 1.0000
61.8600 824.0000 1.0000
61.8700 782.0000 1.0000
61.8800 788.0000 1.0000
61.8900 781.0000 1.0000
61.9000 784.0000 1.0000
61.9100 821.0000 1.0000
61.9200 865.0000 1.0000
61.9300 829.0000 1.0000
61.9400 907.0000 1.0000
61.9500 847.0000 1.0000
61.9600 826.0000 1.0000
61.9700 870.0000 1.0000
61.9800 909.0000 1.0000
61.9900 883.0000 1.0000
62.0000 861.0000 1.0000
62.0100 923.0000 1.0000
62.0200 913.0000 1.0000
62.0300 964.0000 1.0000
62.0400 969.0000 1.0000
62.0500 969.0000 1.0000
62.0600 981.0000 1.0000
62.0700 1034.0000 1.0000
62.0800 1024.0000 1.0000
62.0900 973.0000 1.0000
62.1000 1060.0000 1.0000
62.1100 1108.0000 1.0000
62.1200 1118.0000 1.0000
62.1300 1130.0000 1.0000
62.1400 1199.0000 1.0000
62.1500 1226.0000 1.0000
62.1600 1238.0000 1.0000
62.1700 1317.0000 1.0000
62.1800 1336.0000 1.0000
62.1900 1340.0000 1.0000
62.2000 1415.0000 1.0000
62.2100 1429.0000 1.0000
62.2200 1437.0000 1.0000
62.2300 1486.0000 1.0000
62.2400 1585.0000 1.0000
62.2500 1610.0000 1.0000
62.2600 1560.0000 1.0000
62.2700 1574.0000 1.0000
62.2800 1643.0000 1.0000
62.2900 1613.0000 1.0000
62.3000 1642.0000 1.0000
62.3100 1706.0000 1.0000
62.3200 1697.0000 1.0000
62.3300 1715.0000 1.0000
62.3400 1724.0000 1.0000
62.3500 1700.0000 1.0000
62.3600 1671.0000 1.0000
62.3700 1668.0000 1.0000
62.3800 1647.0000 1.0000
62.3900 1672.0000 1.0000
62.4000 1579.0000 1.0000
62.4100 1590.0000 1.0000
62.4200 1619.0000 1.0000
62.4300 1545.0000 1.0000
62.4400 1482.0000 1.0000
62.4500 1526.0000 1.0000
62.4600 1443.0000 1.0000
62.4700 1471.0000 1.0000
62.4800 1412.0000 1.0000
62.4900 1471.0000 1.0000
62.5000 1408.0000 1.0000
62.5100 1364.0000 1.0000
62.5200 1335.0000 1.0000
62.5300 1309.0000 1.0000
62.5400 1330.0000 1.0000
62.5500 1257.0000 1.0000
62.5600 1231.0000 1.0000
62.5700 1198.0000 1.0000
62.5800 1205.0000 1.0000
62.5900 1177.0000 1.0000
62.6000 1139.0000 1.0000
62.6100 1097.0000 1.0000
62.6200 1043.0000 1.0000
62.6300 1087.0000 1.0000
62.6400 1050.0000 1.0000
62.6500 1015.0000 1.0000
62.6600 984.0000 1.0000
62.6700 1024.0000 1.0000
62.6800 957.0000 1.0000
62.6900 949.0000 1.0000
62.7000 961.0000 1.0000
62.7100 943.0000 1.0000
62.7200 956.0000 1.0000
62.7300 980.0000 1.0000
62.7400 878.0000 1.0000
62.7500 836.0000 1.0000
62.7600 904.0000 1.0000
62.7700 902.0000 1.0000
62.7800 854.0000 1.0000
62.7900 880.0000 1.0000
62.8000 821.0000 1.0000
62.8100 869.0000 1.0000
62.8200 822.0000 1.0000
62.8300 884.0000 1.0000
62.8400 834.0000 1.0000
62.8500 810.0000 1.0000
62.8600 863.0000 1.0000
62.8700 876.0000 1.0000
62.8800 882.0000 1.0000
62.8900 812.0000 1.0000
62.9000 821.0000 1.0000
62.9100 837.0000 1.0000
62.9200 820.0000 1.0000
62.9300 859.0000 1.0000
62.9400 823.0000 1.0000
62.9500 822.0000 1.0000
62.9600 817.0000 1.0000
62.9700 800.0000 1.0000
62.9800 774.0000 1.0000
62.9900 776.0000 1.0000
63.0000 794.0000 1.0000
63.0100 773.0000 1.0000
63.0200 820.0000 1.0000
63.0300 795.0000 1.0000
63.0400 817.0000 1.0000
63.0500 782.0000 1.0000
63.0600 822.0000 1.0000
63.0700 749.0000 1.0000
63.0800 780.0000 1.0000
63.0900 758.0000 1.0000
63.1000 767.0000 1.0000
63.1100 784.0000 1.0000
63.1200 736.0000 1.0000
63.1300 774.0000 1.0000
63.1400 765.0000 1.0000
63.1500 737.0000 1.0000
63.1600 733.0000 1.0000
63.1700 769.0000 1.0000
63.1800 761.0000 1.0000
63.1900 772.0000 1.0000
63.2000 758.0000 1.0000
63.2100 794.0000 1.0000
63.2200 770.0000 1.0000
63.2300 733.0000 1.0000
63.2400 741.0000 1.0000
63.2500 698.0000 1.0000
63.2600 763.0000 1.0000
63.2700 734.0000 1.0000
63.2800 738.0000 1.0000
63.2900 686.0000 1.0000
63.3000 783.0000 1.0000
63.3100 728.0000 1.0000
63.3200 774.0000 1.0000
63.3300 742.0000 1.0000
63.3400 726.0000 1.0000
63.3500 741.0000 1.0000
63.3600 760.0000 1.0000
63.3700 704.0000 1.0000
63.3800 684.0000 1.0000
63.3900 687.0000 1.0000
63.4000 707.0000 1.0000
63.4100 721.0000 1.0000
63.4200 727.0000 1.0000
63.4300 724.0000 1.0000
63.4400 735.0000 1.0000
63.4500 717.0000 1.0000
63.4600 760.0000 1.0000
63.4700 738.0000 1.0000
63.4800 706.0000 1.0000
63.4900 696.0000 1.0000
63.5000 765.0000 1.0000
63.5100 738.0000 1.0000
63.5200 704.0000 1.0000
63.5300 724.0000 1.0000
63.5400 763.0000 1.0000
63.5500 741.0000 1.0000
63.5600 753.0000 1.0000
63.5700 730.0000 1.0000
63.5800 714.0000 1.0000
63.5900 760.0000 1.0000
63.6000 735.0000 1.0000
63.6100 701.0000 1.0000
63.6200 734.0000 1.0000
63.6300 704.0000 1.0000
63.6400 733.0000 1.0000
63.6500 764.0000 1.0000
63.6600 707.0000 1.0000
63.6700 742.0000 1.0000
63.6800 757.0000 1.0000
63.6900 705.0000 1.0000
63.7000 723.0000 1.0000
63.7100 741.0000 1.0000
63.7200 753.0000 1.0000
63.7300 761.0000 1.0000
63.7400 772.0000 1.0000
63.7500 747.0000 1.0000
63.7600 742.0000 1.0000
63.7700 763.0000 1.0000
63.7800 723.0000 1.0000
63.7900 737.0000 1.0000
63.8000 731.0000 1.0000
63.8100 743.0000 1.0000
63.8200 714.0000 1.0000
63.8300 681.0000 1.0000
63.8400 766.0000 1.0000
63.8500 714.0000 1.0000
63.8600 719.0000 1.0000
63.8700 756.0000 1.0000
63.8800 754.0000 1.0000
63.8900 699.0000 1.0000
63.9000 729.0000 1.0000
63.9100 757.0000 1.0000
63.9200 813.0000 1.0000
63.9300 707.0000 1.0000
63.9400 689.0000 1.0000
63.9500 734.0000 1.0000
63.9600 729.0000 1.0000
63.9700 743.0000 1.0000
63.9800 757.0000 1.0000
63.9900 746.0000 1.0000
64.0000 721.0000 1.0000
64.0100 724.0000 1.0000
64.0200 763.0000 1.0000
64.0300 748.0000 1.0000
64.0400 745.0000 1.0000
64.0500 735.0000 1.0000
64.0600 731.0000 1.0000
64.0700 766.0000 1.0000
64.0800 760.0000 1.0000
64.0900 718.0000 1.0000
64.1000 754.0000 1.0000
64.1100 737.0000 1.0000
64.1200 757.0000 1.0000
64.1300 725.0000 1.0000
64.1400 715.0000 1.0000
64.1500 739.0000 1.0000
64.1600 753.0000 1.0000
64.1700 766.0000 1.0000
64.1800 758.0000 1.0000
64.1900 758.0000 1.0000
64.2000 770.0000 1.0000
64.2100 782.0000 1.0000
64.2200 745.0000 1.0000
64.2300 768.0000 1.0000
64.2400 748.0000 1.0000
64.2500 740.0000 1.0000
64.2600 711.0000 1.0000
64.2700 745.0000 1.0000
64.2800 787.0000 1.0000
64.2900 803.0000 1.0000
64.3000 790.0000 1.0000
64.3100 786.0000 1.0000
64.3200 753.0000 1.0000
64.3300 776.0000 1.0000
64.3400 793.0000 1.0000
64.3500 795.0000 1.0000
64.3600 730.0000 1.0000
64.3700 742.0000 1.0000
64.3800 791.0000 1.0000
64.3900 812.0000 1.0000
64.4000 795.0000 1.0000
64.4100 772.0000 1.0000
64.4200 830.0000 1.0000
64.4300 837.0000 1.0000
64.4400 824.0000 1.0000
64.4500 827.0000 1.0000
64.4600 850.0000 1.0000
64.4700 850.0000 1.0000
64.4800 813.0000 1.0000
64.4900 797.0000 1.0000
64.5000 825.0000 1.0000
64.5100 831.0000 1.0000
64.5200 859.0000 1.0000
64.5300 885.0000 1.0000
64.5400 878.0000 1.0000
64.5500 915.0000 1.0000
64.5600 903.0000 1.0000
64.5700 899.0000 1.0000
64.5800 945.0000 1.0000
64.5900 910.0000 1.0000
64.6000 949.0000 1.0000
64.6100 934.0000 1.0000
64.6200 952.0000 1.0000
64.6300 911.0000 1.0000
64.6400 953.0000 1.0000
64.6500 944.0000 1.0000
64.6600 957.0000 1.0000
64.6700 950.0000 1.0000
64.6800 998.0000 1.0000
64.6900 969.0000 1.0000
64.7000 1007.0000 1.0000
64.7100 962.0000 1.0000
64.7200 1013.0000 1.0000
64.7300 968.0000 1.0000
64.7400 997.0000 1.0000
64.7500 960.0000 1.0000
64.7600 983.0000 1.0000
64.7700 986.0000 1.0000
64.7800 988.0000 1.0000
64.7900 949.0000 1.0000
64.8000 994.0000 1.0000
64.8100 967.0000 1.0000
64.8200 975.0000 1.0000
64.8300 977.0000 1.0000
64.8400 970.0000 1.0000
64.8500 944.0000 1.0000
64.8600 973.0000 1.0000
64.8700 941.0000 1.0000
64.8800 960.0000 1.0000
64.8900 930.0000 1.0000
64.9000 929.0000 1.0000
64.9100 919.0000 1.0000
64.9200 882.0000 1.0000
64.9300 948.0000 1.0000
64.9400 901.0000 1.0000
64.9500 895.0000 1.0000
64.9600 895.0000 1.0000
64.9700 941.0000 1.0000
64.9800 875.0000 1.0000
64.9900 911.0000 1.0000
65.0000 851.0000 1.0000
65.0100 879.0000 1.0000
65.0200 882.0000 1.0000
65.0300 878.0000 1.0000
65.0400 872.0000 1.0000
65.0500 877.0000 1.0000
65.0600 836.0000 1.0000
65.0700 822.0000 1.0000
65.0800 829.0000 1.0000
65.0900 819.0000 1.0000
65.1000 849.0000 1.0000
65.1100 825.0000 1.0000
65.1200 816.0000 1.0000
65.1300 785.0000 1.0000
65.1400 811.0000 1.0000
65.1500 829.0000 1.0000
65.1600 784.0000 1.0000
65.1700 769.0000 1.0000
65.1800 809.0000 1.0000
65.1900 793.0000 1.0000
65.2000 813.0000 1.0000
65.2100 749.0000 1.0000
65.2200 755.0000 1.0000
65.2300 773.0000 1.0000
65.2400 766.0000 1.0000
65.2500 790.0000 1.0000
65.2600 757.0000 1.0000
65.2700 751.0000 1.0000
65.2800 755.0000 1.0000
65.2900 753.0000 1.0000
65.3000 751.0000 1.0000
65.3100 741.0000 1.0000
65.3200 815.0000 1.0000
65.3300 811.0000 1.0000
65.3400 780.0000 1.0000
65.3500 788.0000 1.0000
65.3600 766.0000 1.0000
65.3700 750.0000 1.0000
65.3800 784.0000 1.0000
65.3900 771.0000 1.0000
65.4000 749.0000 1.0000
65.4100 728.0000 1.0000
65.4200 738.0000 1.0000
65.4300 723.0000 1.0000
65.4400 714.0000 1.0000
65.4500 807.0000 1.0000
65.4600 750.0000 1.0000
65.4700 781.0000 1.0000
65.4800 790.0000 1.0000
65.4900 754.0000 1.0000
65.5000 810.0000 1.0000
65.5100 747.0000 1.0000
65.5200 745.0000 1.0000
65.5300 720.0000 1.0000
65.5400 763.0000 1.0000
65.5500 720.0000 1.0000
65.5600 765.0000 1.0000
65.5700 759.0000 1.0000
65.5800 771.0000 1.0000
65.5900 789.0000 1.0000
65.6000 771.0000 1.0000
65.6100 754.0000 1.0000
65.6200 785.0000 1.0000
65.6300 773.0000 1.0000
65.6400 760.0000 1.0000
65.6500 779.0000 1.0000
65.6600 752.0000 1.0000
65.6700 793.0000 1.0000
65.6800 770.0000 1.0000
65.6900 776.0000 1.0000
65.7000 766.0000 1.0000
65.7100 808.0000 1.0000
65.7200 798.0000 1.0000
65.7300 764.0000 1.0000
65.7400 853.0000 1.0000
65.7500 730.0000 1.0000
65.7600 787.0000 1.0000
65.7700 774.0000 1.0000
65.7800 806.0000 1.0000
65.7900 784.0000 1.0000
65.8000 765.0000 1.0000
65.8100 780.0000 1.0000
65.8200 865.0000 1.0000
65.8300 841.0000 1.0000
65.8400 832.0000 1.0000
65.8500 835.0000 1.0000
65.8600 882.0000 1.0000
65.8700 892.0000 1.0000
65.8800 893.0000 1.0000
65.8900 871.0000 1.0000
65.9000 841.0000 1.0000
65.9100 894.0000 1.0000
65.9200 920.0000 1.0000
65.9300 913.0000 1.0000
65.9400 983.0000 1.0000
65.9500 914.0000 1.0000
65.9600 977.0000 1.0000
65.9700 942.0000 1.0000
65.9800 1037.0000 1.0000
65.9900 1056.0000 1.0000
66.0000 1011.0000 1.0000
66.0100 1030.0000 1.0000
66.0200 1100.0000 1.0000
66.0300 1110.0000 1.0000
66.0400 1199.0000 1.0000
66.0500 1147.0000 1.0000
66.0600 1169.0000 1.0000
66.0700 1242.0000 1.0000
66.0800 1266.0000 1.0000
66.0900 1343.0000 1.0000
66.1000 1381.0000 1.0000
66.1100 1475.0000 1.0000
66.1200 1558.0000 1.0000
66.1300 1599.0000 1.0000
66.1400 1686.0000 1.0000
66.1500 1754.0000 1.0000
66.1600 1879.0000 1.0000
66.1700 2047.0000 1.0000
66.1800 2044.0000 1.0000
66.1900 2156.0000 1.0000
66.2000 2222.0000 1.0000
66.2100 2368.0000 1.0000
66.2200 2485.0000 1.0000
66.2300 2618.0000 1.0000
66.2400 2611.0000 1.0000
66.2500 2619.0000 1.0000
66.2600 2612.0000 1.0000
66.2700 2605.0000 1.0000
66.2800 2635.0000 1.0000
66.2900 2550.0000 1.0000
66.3000 2503.0000 1.0000
66.3100 2557.0000 1.0000
66.3200 2554.0000 1.0000
66.3300 2422.0000 1.0000
66.3400 2424.0000 1.0000
66.3500 2355.0000 1.0000
66.3600 2319.0000 1.0000
66.3700 2233.0000 1.0000
66.3800 2255.0000 1.0000
66.3900 2289.0000 1.0000
66.4000 2177.0000 1.0000
66.4100 2282.0000 1.0000
66.4200 2206.0000 1.0000
66.4300 2126.0000 1.0000
66.4400 2168.0000 1.0000
66.4500 2157.0000 1.0000
66.4600 2014.0000 1.0000
66.4700 1934.0000 1.0000
66.4800 1963.0000 1.0000
66.4900 1899.0000 1.0000
66.5000 1798.0000 1.0000
66.5100 1750.0000 1.0000
66.5200 1656.0000 1.0000
66.5300 1616.0000 1.0000
66.5400 1519.0000 1.0000
66.5500 1532.0000 1.0000
66.5600 1429.0000 1.0000
66.5700 1401.0000 1.0000
66.5800 1268.0000 1.0000
66.5900 1305.0000 1.0000
66.6000 1225.0000 1.0000
66.6100 1183.0000 1.0000
66.6200 1179.0000 1.0000
66.6300 1153.0000 1.0000
66.6400 1062.0000 1.0000
66.6500 1053.0000 1.0000
66.6600 1046.0000 1.0000
66.6700 1013.0000 1.0000
66.6800 1023.0000 1.0000
66.6900 974.0000 1.0000
66.7000 984.0000 1.0000
66.7100 971.0000 1.0000
66.7200 934.0000 1.0000
66.7300 949.0000 1.0000
66.7400 973.0000 1.0000
66.7500 898.0000 1.0000
66.7600 902.0000 1.0000
66.7700 828.0000 1.0000
66.7800 882.0000 1.0000
66.7900 862.0000 1.0000
66.8000 845.0000 1.0000
66.8100 886.0000 1.0000
66.8200 821.0000 1.0000
66.8300 832.0000 1.0000
66.8400 837.0000 1.0000
66.8500 786.0000 1.0000
66.8600 803.0000 1.0000
66.8700 796.0000 1.0000
66.8800 759.0000 1.0000
66.8900 758.0000 1.0000
66.9000 818.0000 1.0000
66.9100 759.0000 1.0000
66.9200 769.0000 1.0000
66.9300 760.0000 1.0000
66.9400 785.0000 1.0000
66.9500 761.0000 1.0000
66.9600 787.0000 1.0000
66.9700 787.0000 1.0000
66.9800 743.0000 1.0000
66.9900 753.0000 1.0000
67.0000 745.0000 1.0000
67.0100 742.0000 1.0000
67.0200 715.0000 1.0000
67.0300 743.0000 1.0000
67.0400 771.0000 1.0000
67.0500 752.0000 1.0000
67.0600 701.0000 1.0000
67.0700 731.0000 1.0000
67.0800 723.0000 1.0000
67.0900 720.0000 1.0000
67.1000 700.0000 1.0000
67.1100 646.0000 1.0000
67.1200 708.0000 1.0000
67.1300 660.0000 1.0000
67.1400 719.0000 1.0000
67.1500 683.0000 1.0000
67.1600 715.0000 1.0000
67.1700 669.0000 1.0000
67.1800 695.0000 1.0000
67.1900 693.0000 1.0000
67.2000 691.0000 1.0000
67.2100 704.0000 1.0000
67.2200 686.0000 1.0000
67.2300 752.0000 1.0000
67.2400 696.0000 1.0000
67.2500 671.0000 1.0000
67.2600 711.0000 1.0000
67.2700 658.0000 1.0000
67.2800 677.0000 1.0000
67.2900 742.0000 1.0000
67.3000 714.0000 1.0000
67.3100 660.0000 1.0000
67.3200 648.0000 1.0000
67.3300 668.0000 1.0000
67.3400 672.0000 1.0000
67.3500 723.0000 1.0000
67.3600 685.0000 1.0000
67.3700 666.0000 1.0000
67.3800 620.0000 1.0000
67.3900 646.0000 1.0000
67.4000 680.0000 1.0000
67.4100 699.0000 1.0000
67.4200 707.0000 1.0000
67.4300 670.0000 1.0000
67.4400 681.0000 1.0000
67.4500 665.0000 1.0000
67.4600 670.0000 1.0000
67.4700 641.0000 1.0000
67.4800 722.0000 1.0000
67.4900 653.0000 1.0000
67.5000 681.0000 1.0000
67.5100 678.0000 1.0000
67.5200 685.0000 1.0000
67.5300 677.0000 1.0000
67.5400 688.0000 1.0000
67.5500 662.0000 1.0000
67.5600 661.0000 1.0000
67.5700 639.0000 1.0000
67.5800 664.0000 1.0000
67.5900 657.0000 1.0000
67.6000 636.0000 1.0000
67.6100 683.0000 1.0000
67.6200 686.0000 1.0000
67.6300 697.0000 1.0000
67.6400 637.0000 1.0000
67.6500 646.0000 1.0000
67.6600 623.0000 1.0000
67.6700 600.0000 1.0000
67.6800 674.0000 1.0000
67.6900 687.0000 1.0000
67.7000 654.0000 1.0000
67.7100 663.0000 1.0000
67.7200 626.0000 1.0000
67.7300 646.0000 1.0000
67.7400 633.0000 1.0000
67.7500 650.0000 1.0000
67.7600 654.0000 1.0000
67.7700 690.0000 1.0000
67.7800 686.0000 1.0000
67.7900 644.0000 1.0000
67.8000 662.0000 1.0000
67.8100 701.0000 1.0000
67.8200 651.0000 1.0000
67.8300 633.0000 1.0000
67.8400 692.0000 1.0000
67.8500 678.0000 1.0000
67.8600 669.0000 1.0000
67.8700 649.0000 1.0000
67.8800 641.0000 1.0000
67.8900 623.0000 1.0000
67.9000 644.0000 1.0000
67.9100 608.0000 1.0000
67.9200 612.0000 1.0000
67.9300 669.0000 1.0000
67.9400 682.0000 1.0000
67.9500 692.0000 1.0000
67.9600 668.0000 1.0000
67.9700 698.0000 1.0000
67.9800 703.0000 1.0000
67.9900 655.0000 1.0000
68.0000 641.0000 1.0000
68.0100 646.0000 1.0000
68.0200 666.0000 1.0000
68.0300 651.0000 1.0000
68.0400 637.0000 1.0000
68.0500 661.0000 1.0000
68.0600 685.0000 1.0000
68.0700 620.0000 1.0000
68.0800 622.0000 1.0000
68.0900 652.0000 1.0000
68.1000 687.0000 1.0000
68.1100 667.0000 1.0000
68.1200 642.0000 1.0000
68.1300 640.0000 1.0000
68.1400 642.0000 1.0000
68.1500 614.0000 1.0000
68.1600 625.0000 1.0000
68.1700 658.0000 1.0000
68.1800 686.0000 1.0000
68.1900 668.0000 1.0000
68.2000 692.0000 1.0000
68.2100 666.0000 1.0000
68.2200 617.0000 1.0000
68.2300 624.0000 1.0000
68.2400 665.0000 1.0000
68.2500 634.0000 1.0000
68.2600 637.0000 1.0000
68.2700 634.0000 1.0000
68.2800 638.0000 1.0000
68.2900 670.0000 1.0000
68.3000 602.0000 1.0000
68.3100 624.0000 1.0000
68.3200 628.0000 1.0000
68.3300 617.0000 1.0000
68.3400 658.0000 1.0000
68.3500 672.0000 1.0000
68.3600 670.0000 1.0000
68.3700 616.0000 1.0000
68.3800 660.0000 1.0000
68.3900 655.0000 1.0000
68.4000 645.0000 1.0000
68.4100 660.0000 1.0000
68.4200 639.0000 1.0000
68.4300 643.0000 1.0000
68.4400 635.0000 1.0000
68.4500 649.0000 1.0000
68.4600 634.0000 1.0000
68.4700 641.0000 1.0000
68.4800 636.0000 1.0000
68.4900 600.0000 1.0000
68.5000 658.0000 1.0000
68.5100 618.0000 1.0000
68.5200 630.0000 1.0000
68.5300 661.0000 1.0000
68.5400 621.0000 1.0000
68.5500 651.0000 1.0000
68.5600 618.0000 1.0000
68.5700 673.0000 1.0000
68.5800 642.0000 1.0000
68.5900 668.0000 1.0000
68.6000 599.0000 1.0000
68.6100 646.0000 1.0000
68.6200 676.0000 1.0000
68.6300 620.0000 1.0000
68.6400 672.0000 1.0000
68.6500 682.0000 1.0000
68.6600 621.0000 1.0000
68.6700 646.0000 1.0000
68.6800 600.0000 1.0000
68.6900 613.0000 1.0000
68.7000 654.0000 1.0000
68.7100 651.0000 1.0000
68.7200 619.0000 1.0000
68.7300 614.0000 1.0000
68.7400 674.0000 1.0000
68.7500 636.0000 1.0000
68.7600 629.0000 1.0000
68.7700 638.0000 1.0000
68.7800 633.0000 1.0000
68.7900 649.0000 1.0000
68.8000 635.0000 1.0000
68.8100 632.0000 1.0000
68.8200 637.0000 1.0000
68.8300 657.0000 1.0000
68.8400 640.0000 1.0000
68.8500 597.0000 1.0000
68.8600 672.0000 1.0000
68.8700 658.0000 1.0000
68.8800 678.0000 1.0000
68.8900 686.0000 1.0000
68.9000 654.0000 1.0000
68.9100 612.0000 1.0000
68.9200 616.0000 1.0000
68.9300 651.0000 1.0000
68.9400 634.0000 1.0000
68.9500 623.0000 1.0000
68.9600 640.0000 1.0000
68.9700 593.0000 1.0000
68.9800 589.0000 1.0000
68.9900 634.0000 1.0000
69.0000 615.0000 1.0000
69.0100 669.0000 1.0000
69.0200 661.0000 1.0000
69.0300 634.0000 1.0000
69.0400 637.0000 1.0000
69.0500 589.0000 1.0000
69.0600 594.0000 1.0000
69.0700 582.0000 1.0000
69.0800 623.0000 1.0000
69.0900 602.0000 1.0000
69.1000 643.0000 1.0000
69.1100 629.0000 1.0000
69.1200 625.0000 1.0000
69.1300 628.0000 1.0000
69.1400 644.0000 1.0000
69.1500 604.0000 1.0000
69.1600 625.0000 1.0000
69.1700 636.0000 1.0000
69.1800 601.0000 1.0000
69.1900 654.0000 1.0000
69.2000 617.0000 1.0000
69.2100 646.0000 1.0000
69.2200 645.0000 1.0000
69.2300 644.0000 1.0000
69.2400 639.0000 1.0000
69.2500 660.0000 1.0000
69.2600 649.0000 1.0000
69.2700 655.0000 1.0000
69.2800 629.0000 1.0000
69.2900 632.0000 1.0000
69.3000 626.0000 1.0000
69.3100 620.0000 1.0000
69.3200 629.0000 1.0000
69.3300 582.0000 1.0000
69.3400 621.0000 1.0000
69.3500 668.0000 1.0000
69.3600 623.0000 1.0000
69.3700 646.0000 1.0000
69.3800 625.0000 1.0000
69.3900 630.0000 1.0000
69.4000 628.0000 1.0000
69.4100 660.0000 1.0000
69.4200 672.0000 1.0000
69.4300 696.0000 1.0000
69.4400 671.0000 1.0000
69.4500 665.0000 1.0000
69.4600 628.0000 1.0000
69.4700 635.0000 1.0000
69.4800 638.0000 1.0000
69.4900 647.0000 1.0000
69.5000 631.0000 1.0000
69.5100 646.0000 1.0000
69.5200 655.0000 1.0000
69.5300 606.0000 1.0000
69.5400 593.0000 1.0000
69.5500 611.0000 1.0000
69.5600 621.0000 1.0000
69.5700 622.0000 1.0000
69.5800 658.0000 1.0000
69.5900 612.0000 1.0000
69.6000 620.0000 1.0000
69.6100 603.0000 1.0000
69.6200 626.0000 1.0000
69.6300 642.0000 1.0000
69.6400 627.0000 1.0000
69.6500 666.0000 1.0000
69.6600 669.0000 1.0000
69.6700 662.0000 1.0000
69.6800 623.0000 1.0000
69.6900 664.0000 1.0000
69.7000 636.0000 1.0000
69.7100 659.0000 1.0000
69.7200 638.0000 1.0000
69.7300 643.0000 1.0000
69.7400 665.0000 1.0000
69.7500 642.0000 1.0000
69.7600 613.0000 1.0000
69.7700 640.0000 1.0000
69.7800 650.0000 1.0000
69.7900 643.0000 1.0000
69.8000 655.0000 1.0000
69.8100 643.0000 1.0000
69.8200 608.0000 1.0000
69.8300 619.0000 1.0000
69.8400 659.0000 1.0000
69.8500 674.0000 1.0000
69.8600 643.0000 1.0000
69.8700 631.0000 1.0000
69.8800 598.0000 1.0000
69.8900 651.0000 1.0000
69.9000 622.0000 1.0000
69.9100 627.0000 1.0000
69.9200 619.0000 1.0000
69.9300 615.0000 1.0000
69.9400 596.0000 1.0000
69.9500 624.0000 1.0000
69.9600 605.0000 1.0000
69.9700 625.0000 1.0000
69.9800 588.0000 1.0000
69.9900 648.0000 1.0000
70.0000 603.0000 1.0000
*RAS_INT_END
*RAS_TEMPERATURE_START
*RAS_TEMPERATURE_END
*RAS_DATA_END
