*RAS_DATA_START
*RAS_HEADER_START
*DISP_FMT_X "%.2f"
*DISP_FMT_Y "%.0f"
*DISP_FULLSCALE "13068.0000000000"
*DISP_LINE_COLOR "255.0000000000"
*DISP_LINE_STYLE "0.0000000000"
*DISP_LINE_WIDTH "0.2500000000"
*DISP_NOTE "測定データ-3"
*DISP_OFFSET_Y "0.0000000000"
*DISP_PEAKSEARCH_UNIT_Y "cps"
*DISP_RANGE_BOTTOM "0.0000000000"
*DISP_RANGE_LEFT "20.0000000000"
*DISP_RANGE_LOGCUTOFF "0.0100000000"
*DISP_RANGE_RIGHT "70.0000000000"
*DISP_RANGE_TOP "13068.0000000000"
*DISP_SCALE_MODE_Y "0.0000000000"
*DISP_TAB_NAME "2θ/θ"
*DISP_TITLE_Y "強度"
*DISP_UNIT_Y "cps"
*DISP_WINDOW_NAME "MSG_MACROENGINE"
*FILE_COMMENT " "
*FILE_MD5 ""
*FILE_MEMO " "
*FILE_OPERATOR "Administrator"
*FILE_SAMPLE " "
*FILE_TYPE "RAS_RAW"
*FILE_USERGROUP "システムマネージャ"
*FILE_VERSION "1.0000000000"
*HW_ATTACHMENT_ID "ATT0025"
*HW_ATTACHMENT_NAME "標準|Standard"
*HW_COUNTER_ID-0 "CUT0025"
*HW_COUNTER_ID-1 "CUT0020"
*HW_COUNTER_ID-2 "CUT0020"
*HW_COUNTER_ID-3 "CSL0021"
*HW_COUNTER_ID-4 "CMC0021"
*HW_COUNTER_NAME-0 "D/teX Ultra|D/teX Ultra"
*HW_COUNTER_NAME-1 "None|None"
*HW_COUNTER_NAME-2 "None|None"
*HW_COUNTER_NAME-3 "BBM|BBM"
*HW_COUNTER_NAME-4 "検出器モノクロメータ|Detector monochromator"
*HW_COUNTER_SELECT_NAME "D/teX Ultra|D/teX Ultra"
*HW_GONIOMETER_ID "GON0023"
*HW_GONIOMETER_NAME "SmartLab|SmartLab"
*HW_GONIOMETER_RADIUS-0 "90.0"
*HW_GONIOMETER_RADIUS-1 "114.0"
*HW_GONIOMETER_RADIUS-2 "190.0"
*HW_GONIOMETER_RADIUS-3 "300.0"
*HW_GONIOMETER_RADIUS-4 "187.0"
*HW_GONIOMETER_RADIUS-5 "300.0"
*HW_GONIOMETER_RADIUS-6 "113.0"
*HW_GONIOMETER_RADIUS-7 "331.0"
*HW_I_OPT_ID-0 "CBO0021"
*HW_I_OPT_ID-1 "ICR0023"
*HW_I_OPT_ID-2 "ISL0021"
*HW_I_OPT_ID-3 "ISO0021"
*HW_I_OPT_ID-4 "IAD0021"
*HW_I_OPT_ID-5 "IPR0001"
*HW_I_OPT_NAME-0 "CBOユニット|CBO unit"
*HW_I_OPT_NAME-1 "標準入射光学ユニット|Standard incident optical unit"
*HW_I_OPT_NAME-2 "標準入射スリットボックス|Standard incident slit box"
*HW_I_OPT_NAME-3 "入射平行スリット|Incident parallel slit"
*HW_I_OPT_NAME-4 "長手制限スリット|Length limiting slit"
*HW_I_OPT_NAME-5 "None|None"
*HW_R_ATTENUATER_AUTOMODE "0"
*HW_R_OPT_ID-0 "RSS0021"
*HW_R_OPT_ID-1 "RCR0023"
*HW_R_OPT_ID-2 "RSO0021"
*HW_R_OPT_ID-3 "RRS0021"
*HW_R_OPT_ID-4 "ATN0021"
*HW_R_OPT_ID-5 "RFL0021"
*HW_R_OPT_ID-6 "RAD0021"
*HW_R_OPT_NAME-0 "標準受光スリットボックス1|Standard receiving slit box # 1"
*HW_R_OPT_NAME-1 "標準受光光学ユニット1|Standard receiving unit # 1"
*HW_R_OPT_NAME-2 "標準受光光学ユニット2|Standard receiving optical unit # 2"
*HW_R_OPT_NAME-3 "標準受光スリットボックス2|Standard receiving slit box # 2"
*HW_R_OPT_NAME-4 "標準アッテネータ|Standard Attenuator"
*HW_R_OPT_NAME-5 "Cu Kβ|Cu K-beta"
*HW_R_OPT_NAME-6 "調整用受光スリット|Alignment receiving slit"
*HW_SAMPLE_HOLDER_ID "SMP0023"
*HW_SAMPLE_HOLDER_NAME "標準Zステージ|Standard Z stage"
*HW_XG_CURRENT_MAX "50"
*HW_XG_CURRENT_MIN "2"
*HW_XG_CURRENT_RESOLUTION "1"
*HW_XG_CURRENT_UNIT "mA"
*HW_XG_FOCUS "1mm x 10mm"
*HW_XG_FOCUS_TYPE "Normal"
*HW_XG_ID ""
*HW_XG_NAME "3kW 封入管(ID:1200)|3kW Sealed tube(ID:1200)"
*HW_XG_TARGET_ATOMIC_NUMBER "29.0000000000"
*HW_XG_TARGET_NAME "Cu"
*HW_XG_TYPE "Hermetic"
*HW_XG_VOLTAGE_MAX "60"
*HW_XG_VOLTAGE_MIN "20"
*HW_XG_VOLTAGE_RESOLUTION "1"
*HW_XG_VOLTAGE_UNIT "kV"
*HW_XG_WATT_MAX "1.500"
*HW_XG_WATT_UNIT "kW"
*HW_XG_WAVE_LENGTH_ALPHA1 "1.540593"
*HW_XG_WAVE_LENGTH_ALPHA2 "1.544414"
*HW_XG_WAVE_LENGTH_BETA "1.392250"
*MEAS_COND_AXIS_NAME-0 "2θ/θ"
*MEAS_COND_AXIS_NAME-1 "2θ"
*MEAS_COND_AXIS_NAME-2 "ω"
*MEAS_COND_AXIS_NAME-3 "Z"
*MEAS_COND_AXIS_NAME-4 "2θ/ω"
*MEAS_COND_AXIS_NAME-5 "θs"
*MEAS_COND_AXIS_NAME-6 "θd"
*MEAS_COND_AXIS_NAME-7 "Ts"
*MEAS_COND_AXIS_NAME-8 "CBO選択スリット"
*MEAS_COND_AXIS_NAME-9 "M"
*MEAS_COND_AXIS_NAME-10 "入射平行スリット"
*MEAS_COND_AXIS_NAME-11 "入射スリット"
*MEAS_COND_AXIS_NAME-12 ""
*MEAS_COND_AXIS_NAME-13 "Zs"
*MEAS_COND_AXIS_NAME-14 "入射光学素子"
*MEAS_COND_AXIS_NAME-15 "長手制限スリット"
*MEAS_COND_AXIS_NAME-16 "センタースリット"
*MEAS_COND_AXIS_NAME-17 "フィルター"
*MEAS_COND_AXIS_NAME-18 "受光スリット1"
*MEAS_COND_AXIS_NAME-19 "受光スリット2"
*MEAS_COND_AXIS_NAME-20 "受光光学素子"
*MEAS_COND_AXIS_NAME-21 "受光平行スリット"
*MEAS_COND_AXIS_NAME-22 "調整用受光スリット"
*MEAS_COND_AXIS_NAME-23 ""
*MEAS_COND_AXIS_NAME-24 ""
*MEAS_COND_AXIS_NAME-25 "Zd"
*MEAS_COND_AXIS_NAME-26 "アッテネータ"
*MEAS_COND_AXIS_NAME-27 "検出器モノクロメータ"
*MEAS_COND_AXIS_NAME-28 "モノクロメータスリット"
*MEAS_COND_AXIS_NAME-29 "プライマリビーム"
*MEAS_COND_AXIS_NAME-30 "PHA"
*MEAS_COND_AXIS_NAME_INTERNAL-0 "TwoThetaTheta"
*MEAS_COND_AXIS_NAME_INTERNAL-1 "TwoTheta"
*MEAS_COND_AXIS_NAME_INTERNAL-2 "Omega"
*MEAS_COND_AXIS_NAME_INTERNAL-3 "Z"
*MEAS_COND_AXIS_NAME_INTERNAL-4 "TwoThetaOmega"
*MEAS_COND_AXIS_NAME_INTERNAL-5 "ThetaS"
*MEAS_COND_AXIS_NAME_INTERNAL-6 "ThetaD"
*MEAS_COND_AXIS_NAME_INTERNAL-7 "Ts"
*MEAS_COND_AXIS_NAME_INTERNAL-8 "CBO"
*MEAS_COND_AXIS_NAME_INTERNAL-9 "CBO-M"
*MEAS_COND_AXIS_NAME_INTERNAL-10 "IncidentSollerSlit"
*MEAS_COND_AXIS_NAME_INTERNAL-11 "IncidentSlitBox"
*MEAS_COND_AXIS_NAME_INTERNAL-12 "IncidentSlitBox-_Axis"
*MEAS_COND_AXIS_NAME_INTERNAL-13 "Zs"
*MEAS_COND_AXIS_NAME_INTERNAL-14 "IncidentMonochromator"
*MEAS_COND_AXIS_NAME_INTERNAL-15 "IncidentAxdSlit"
*MEAS_COND_AXIS_NAME_INTERNAL-16 "CenterSlit"
*MEAS_COND_AXIS_NAME_INTERNAL-17 "Filter"
*MEAS_COND_AXIS_NAME_INTERNAL-18 "ReceivingSlitBox1"
*MEAS_COND_AXIS_NAME_INTERNAL-19 "ReceivingSlitBox2"
*MEAS_COND_AXIS_NAME_INTERNAL-20 "ReceivingOptics"
*MEAS_COND_AXIS_NAME_INTERNAL-21 "ReceivingSollerSlit"
*MEAS_COND_AXIS_NAME_INTERNAL-22 "ReceivingAxdSlit"
*MEAS_COND_AXIS_NAME_INTERNAL-23 "ReceivingSlitBox1-_Axis"
*MEAS_COND_AXIS_NAME_INTERNAL-24 "ReceivingSlitBox2-_Axis"
*MEAS_COND_AXIS_NAME_INTERNAL-25 "ReceivingSlitBox2-Zd"
*MEAS_COND_AXIS_NAME_INTERNAL-26 "Attenuator"
*MEAS_COND_AXIS_NAME_INTERNAL-27 "CounterMonochromator"
*MEAS_COND_AXIS_NAME_INTERNAL-28 "CounterSlit"
*MEAS_COND_AXIS_NAME_INTERNAL-29 "IncidentPrimary"
*MEAS_COND_AXIS_NAME_INTERNAL-30 "PHA"
*MEAS_COND_AXIS_NAME_MAGICNO-0 "83951616.0000000000"
*MEAS_COND_AXIS_NAME_MAGICNO-1 "268632064.0000000000"
*MEAS_COND_AXIS_NAME_MAGICNO-2 "268500992.0000000000"
*MEAS_COND_AXIS_NAME_MAGICNO-3 "285278208.0000000000"
*MEAS_COND_AXIS_NAME_MAGICNO-4 "83951616.0000000000"
*MEAS_COND_AXIS_NAME_MAGICNO-5 "131072.0000000000"
*MEAS_COND_AXIS_NAME_MAGICNO-6 "131072.0000000000"
*MEAS_COND_AXIS_NAME_MAGICNO-7 "318898176.0000000000"
*MEAS_COND_AXIS_NAME_MAGICNO-8 "20971521.0000000000"
*MEAS_COND_AXIS_NAME_MAGICNO-9 "285343744.0000000000"
*MEAS_COND_AXIS_NAME_MAGICNO-10 "20971521.0000000000"
*MEAS_COND_AXIS_NAME_MAGICNO-11 "22020097.0000000000"
*MEAS_COND_AXIS_NAME_MAGICNO-12 "25165824.0000000000"
*MEAS_COND_AXIS_NAME_MAGICNO-13 "318898176.0000000000"
*MEAS_COND_AXIS_NAME_MAGICNO-14 "1.0000000000"
*MEAS_COND_AXIS_NAME_MAGICNO-15 "20971521.0000000000"
*MEAS_COND_AXIS_NAME_MAGICNO-16 "20971521.0000000000"
*MEAS_COND_AXIS_NAME_MAGICNO-17 "20971521.0000000000"
*MEAS_COND_AXIS_NAME_MAGICNO-18 "23068673.0000000000"
*MEAS_COND_AXIS_NAME_MAGICNO-19 "23068673.0000000000"
*MEAS_COND_AXIS_NAME_MAGICNO-20 "20971521.0000000000"
*MEAS_COND_AXIS_NAME_MAGICNO-21 "20971521.0000000000"
*MEAS_COND_AXIS_NAME_MAGICNO-22 "20971521.0000000000"
*MEAS_COND_AXIS_NAME_MAGICNO-23 "25165824.0000000000"
*MEAS_COND_AXIS_NAME_MAGICNO-24 "25165824.0000000000"
*MEAS_COND_AXIS_NAME_MAGICNO-25 "285343744.0000000000"
*MEAS_COND_AXIS_NAME_MAGICNO-26 "17301505.0000000000"
*MEAS_COND_AXIS_NAME_MAGICNO-27 "20971521.0000000000"
*MEAS_COND_AXIS_NAME_MAGICNO-28 "20971521.0000000000"
*MEAS_COND_AXIS_NAME_MAGICNO-29 "20971521.0000000000"
*MEAS_COND_AXIS_NAME_MAGICNO-30 "0.0000000000"
*MEAS_COND_AXIS_OFFSET-0 "-"
*MEAS_COND_AXIS_OFFSET-1 "-0.1081000000"
*MEAS_COND_AXIS_OFFSET-2 "0.3758000000"
*MEAS_COND_AXIS_OFFSET-3 "-"
*MEAS_COND_AXIS_OFFSET-4 "-"
*MEAS_COND_AXIS_OFFSET-5 "0.3758000000"
*MEAS_COND_AXIS_OFFSET-6 "-0.4839000000"
*MEAS_COND_AXIS_OFFSET-7 "-"
*MEAS_COND_AXIS_OFFSET-8 "-"
*MEAS_COND_AXIS_OFFSET-9 "-"
*MEAS_COND_AXIS_OFFSET-10 "-"
*MEAS_COND_AXIS_OFFSET-11 "-"
*MEAS_COND_AXIS_OFFSET-12 "-"
*MEAS_COND_AXIS_OFFSET-13 "-"
*MEAS_COND_AXIS_OFFSET-14 "-"
*MEAS_COND_AXIS_OFFSET-15 "-"
*MEAS_COND_AXIS_OFFSET-16 "-"
*MEAS_COND_AXIS_OFFSET-17 "-"
*MEAS_COND_AXIS_OFFSET-18 "-"
*MEAS_COND_AXIS_OFFSET-19 "-"
*MEAS_COND_AXIS_OFFSET-20 "-"
*MEAS_COND_AXIS_OFFSET-21 "-"
*MEAS_COND_AXIS_OFFSET-22 "-"
*MEAS_COND_AXIS_OFFSET-23 "-"
*MEAS_COND_AXIS_OFFSET-24 "-"
*MEAS_COND_AXIS_OFFSET-25 "-"
*MEAS_COND_AXIS_OFFSET-26 "-"
*MEAS_COND_AXIS_OFFSET-27 "-"
*MEAS_COND_AXIS_OFFSET-28 "-"
*MEAS_COND_AXIS_OFFSET-29 "-"
*MEAS_COND_AXIS_OFFSET-30 "-"
*MEAS_COND_AXIS_POSITION-0 "0.0000000000"
*MEAS_COND_AXIS_POSITION-1 "0.0000000000"
*MEAS_COND_AXIS_POSITION-2 "0.0000000000"
*MEAS_COND_AXIS_POSITION-3 "-0.5500000000"
*MEAS_COND_AXIS_POSITION-4 "0.0000000000"
*MEAS_COND_AXIS_POSITION-5 "0.0000000000"
*MEAS_COND_AXIS_POSITION-6 "0.0000000000"
*MEAS_COND_AXIS_POSITION-7 "-0.4278800000"
*MEAS_COND_AXIS_POSITION-8 "BB"
*MEAS_COND_AXIS_POSITION-9 "0.0000000000"
*MEAS_COND_AXIS_POSITION-10 "Soller_slit_5.0deg"
*MEAS_COND_AXIS_POSITION-11 "2/3deg"
*MEAS_COND_AXIS_POSITION-12 "2.2088000000"
*MEAS_COND_AXIS_POSITION-13 "-0.4140600000"
*MEAS_COND_AXIS_POSITION-14 "0.0000000000"
*MEAS_COND_AXIS_POSITION-15 "10.0mm"
*MEAS_COND_AXIS_POSITION-16 "None"
*MEAS_COND_AXIS_POSITION-17 "Cu_K-beta"
*MEAS_COND_AXIS_POSITION-18 "13.000mm"
*MEAS_COND_AXIS_POSITION-19 "13.000mm"
*MEAS_COND_AXIS_POSITION-20 "No_unit"
*MEAS_COND_AXIS_POSITION-21 "Soller_slit_5.0deg"
*MEAS_COND_AXIS_POSITION-22 "None"
*MEAS_COND_AXIS_POSITION-23 "13.0000000000"
*MEAS_COND_AXIS_POSITION-24 "13.0000000000"
*MEAS_COND_AXIS_POSITION-25 "0.0109400000"
*MEAS_COND_AXIS_POSITION-26 "Open"
*MEAS_COND_AXIS_POSITION-27 "None"
*MEAS_COND_AXIS_POSITION-28 "None"
*MEAS_COND_AXIS_POSITION-29 "None"
*MEAS_COND_AXIS_POSITION-30 "38.0000000000"
*MEAS_COND_AXIS_UNIT-0 "deg"
*MEAS_COND_AXIS_UNIT-1 "deg"
*MEAS_COND_AXIS_UNIT-2 "deg"
*MEAS_COND_AXIS_UNIT-3 "mm"
*MEAS_COND_AXIS_UNIT-4 "deg"
*MEAS_COND_AXIS_UNIT-5 "deg"
*MEAS_COND_AXIS_UNIT-6 "deg"
*MEAS_COND_AXIS_UNIT-7 "mm"
*MEAS_COND_AXIS_UNIT-8 ""
*MEAS_COND_AXIS_UNIT-9 "pulse"
*MEAS_COND_AXIS_UNIT-10 ""
*MEAS_COND_AXIS_UNIT-11 ""
*MEAS_COND_AXIS_UNIT-12 "mm"
*MEAS_COND_AXIS_UNIT-13 "mm"
*MEAS_COND_AXIS_UNIT-14 ""
*MEAS_COND_AXIS_UNIT-15 ""
*MEAS_COND_AXIS_UNIT-16 ""
*MEAS_COND_AXIS_UNIT-17 ""
*MEAS_COND_AXIS_UNIT-18 ""
*MEAS_COND_AXIS_UNIT-19 ""
*MEAS_COND_AXIS_UNIT-20 ""
*MEAS_COND_AXIS_UNIT-21 ""
*MEAS_COND_AXIS_UNIT-22 ""
*MEAS_COND_AXIS_UNIT-23 "mm"
*MEAS_COND_AXIS_UNIT-24 "mm"
*MEAS_COND_AXIS_UNIT-25 "mm"
*MEAS_COND_AXIS_UNIT-26 ""
*MEAS_COND_AXIS_UNIT-27 ""
*MEAS_COND_AXIS_UNIT-28 ""
*MEAS_COND_AXIS_UNIT-29 ""
*MEAS_COND_AXIS_UNIT-30 "div"
*MEAS_COND_COUNTER_CNTLOSS_CORR "0.0000000000"
*MEAS_COND_COUNTER_PHABASE "38.0000000000"
*MEAS_COND_COUNTER_PHAWINDOW "16.0000000000"
*MEAS_COND_COUNTER_PHA_UNIT "div"
*MEAS_COND_COUNTER_TAUDIFF "30.0000000000"
*MEAS_COND_COUNTER_TAUINT "0.0000000000"
*MEAS_COND_IRRADIATION_MODE "OFF"
*MEAS_COND_IRRADIATION_WIDTH ""
*MEAS_COND_OPT_ATTR "集中法"
*MEAS_COND_OPT_NAME "@集中法"
*MEAS_COND_UNSYMMETRIC_MODE "OFF"
*MEAS_COND_XG_CURRENT "30.0000000000"
*MEAS_COND_XG_VOLTAGE "40.0000000000"
*MEAS_COND_XG_WAVE_TYPE "Ka"
*MEAS_DATA_COUNT "5001.0000000000"
*MEAS_SCAN_AXIS_X "2θ/θ"
*MEAS_SCAN_AXIS_X_INTERNAL "TwoThetaTheta"
*MEAS_SCAN_END_TIME "06/24/21 17:28:56"
*MEAS_SCAN_MODE "CONTINUOUS"
*MEAS_SCAN_MONITOR "0"
*MEAS_SCAN_RESOLUTION_X "0.0002"
*MEAS_SCAN_SPEED "1.0"
*MEAS_SCAN_SPEED_UNIT "deg/min"
*MEAS_SCAN_START "20.0000000000"
*MEAS_SCAN_START_TIME "06/24/21 16:36:03"
*MEAS_SCAN_STEP "0.0100000000"
*MEAS_SCAN_STOP "70.0000000000"
*MEAS_SCAN_UNIT_X "deg"
*MEAS_SCAN_UNIT_Y "counts"
*RAS_HEADER_END
*RAS_INT_START
20.0000 1510.0000 1.0000
20.0100 1570.0000 1.0000
20.0200 1521.0000 1.0000
20.0300 1480.0000 1.0000
20.0400 1475.0000 1.0000
20.0500 1557.0000 1.0000
20.0600 1508.0000 1.0000
20.0700 1535.0000 1.0000
20.0800 1623.0000 1.0000
20.0900 1555.0000 1.0000
20.1000 1471.0000 1.0000
20.1100 1524.0000 1.0000
20.1200 1513.0000 1.0000
20.1300 1514.0000 1.0000
20.1400 1565.0000 1.0000
20.1500 1555.0000 1.0000
20.1600 1515.0000 1.0000
20.1700 1487.0000 1.0000
20.1800 1508.0000 1.0000
20.1900 1570.0000 1.0000
20.2000 1564.0000 1.0000
20.2100 1490.0000 1.0000
20.2200 1491.0000 1.0000
20.2300 1435.0000 1.0000
20.2400 1532.0000 1.0000
20.2500 1497.0000 1.0000
20.2600 1458.0000 1.0000
20.2700 1516.0000 1.0000
20.2800 1452.0000 1.0000
20.2900 1497.0000 1.0000
20.3000 1517.0000 1.0000
20.3100 1588.0000 1.0000
20.3200 1503.0000 1.0000
20.3300 1494.0000 1.0000
20.3400 1535.0000 1.0000
20.3500 1498.0000 1.0000
20.3600 1544.0000 1.0000
20.3700 1538.0000 1.0000
20.3800 1517.0000 1.0000
20.3900 1576.0000 1.0000
20.4000 1563.0000 1.0000
20.4100 1509.0000 1.0000
20.4200 1528.0000 1.0000
20.4300 1505.0000 1.0000
20.4400 1593.0000 1.0000
20.4500 1554.0000 1.0000
20.4600 1446.0000 1.0000
20.4700 1549.0000 1.0000
20.4800 1507.0000 1.0000
20.4900 1537.0000 1.0000
20.5000 1507.0000 1.0000
20.5100 1509.0000 1.0000
20.5200 1563.0000 1.0000
20.5300 1524.0000 1.0000
20.5400 1584.0000 1.0000
20.5500 1561.0000 1.0000
20.5600 1575.0000 1.0000
20.5700 1487.0000 1.0000
20.5800 1555.0000 1.0000
20.5900 1528.0000 1.0000
20.6000 1487.0000 1.0000
20.6100 1503.0000 1.0000
20.6200 1482.0000 1.0000
20.6300 1538.0000 1.0000
20.6400 1548.0000 1.0000
20.6500 1541.0000 1.0000
20.6600 1517.0000 1.0000
20.6700 1480.0000 1.0000
20.6800 1521.0000 1.0000
20.6900 1526.0000 1.0000
20.7000 1498.0000 1.0000
20.7100 1530.0000 1.0000
20.7200 1507.0000 1.0000
20.7300 1555.0000 1.0000
20.7400 1524.0000 1.0000
20.7500 1514.0000 1.0000
20.7600 1499.0000 1.0000
20.7700 1483.0000 1.0000
20.7800 1553.0000 1.0000
20.7900 1530.0000 1.0000
20.8000 1541.0000 1.0000
20.8100 1461.0000 1.0000
20.8200 1451.0000 1.0000
20.8300 1515.0000 1.0000
20.8400 1565.0000 1.0000
20.8500 1548.0000 1.0000
20.8600 1560.0000 1.0000
20.8700 1546.0000 1.0000
20.8800 1522.0000 1.0000
20.8900 1496.0000 1.0000
20.9000 1570.0000 1.0000
20.9100 1527.0000 1.0000
20.9200 1551.0000 1.0000
20.9300 1474.0000 1.0000
20.9400 1481.0000 1.0000
20.9500 1526.0000 1.0000
20.9600 1613.0000 1.0000
20.9700 1489.0000 1.0000
20.9800 1534.0000 1.0000
20.9900 1573.0000 1.0000
21.0000 1547.0000 1.0000
21.0100 1550.0000 1.0000
21.0200 1525.0000 1.0000
21.0300 1465.0000 1.0000
21.0400 1525.0000 1.0000
21.0500 1537.0000 1.0000
21.0600 1414.0000 1.0000
21.0700 1459.0000 1.0000
21.0800 1531.0000 1.0000
21.0900 1522.0000 1.0000
21.1000 1588.0000 1.0000
21.1100 1485.0000 1.0000
21.1200 1526.0000 1.0000
21.1300 1608.0000 1.0000
21.1400 1517.0000 1.0000
21.1500 1519.0000 1.0000
21.1600 1536.0000 1.0000
21.1700 1525.0000 1.0000
21.1800 1481.0000 1.0000
21.1900 1538.0000 1.0000
21.2000 1494.0000 1.0000
21.2100 1559.0000 1.0000
21.2200 1491.0000 1.0000
21.2300 1575.0000 1.0000
21.2400 1526.0000 1.0000
21.2500 1548.0000 1.0000
21.2600 1527.0000 1.0000
21.2700 1585.0000 1.0000
21.2800 1537.0000 1.0000
21.2900 1451.0000 1.0000
21.3000 1508.0000 1.0000
21.3100 1568.0000 1.0000
21.3200 1480.0000 1.0000
21.3300 1534.0000 1.0000
21.3400 1553.0000 1.0000
21.3500 1538.0000 1.0000
21.3600 1495.0000 1.0000
21.3700 1504.0000 1.0000
21.3800 1568.0000 1.0000
21.3900 1546.0000 1.0000
21.4000 1558.0000 1.0000
21.4100 1530.0000 1.0000
21.4200 1578.0000 1.0000
21.4300 1483.0000 1.0000
21.4400 1501.0000 1.0000
21.4500 1479.0000 1.0000
21.4600 1495.0000 1.0000
21.4700 1547.0000 1.0000
21.4800 1562.0000 1.0000
21.4900 1555.0000 1.0000
21.5000 1497.0000 1.0000
21.5100 1522.0000 1.0000
21.5200 1527.0000 1.0000
21.5300 1548.0000 1.0000
21.5400 1460.0000 1.0000
21.5500 1517.0000 1.0000
21.5600 1526.0000 1.0000
21.5700 1521.0000 1.0000
21.5800 1472.0000 1.0000
21.5900 1527.0000 1.0000
21.6000 1525.0000 1.0000
21.6100 1515.0000 1.0000
21.6200 1515.0000 1.0000
21.6300 1511.0000 1.0000
21.6400 1520.0000 1.0000
21.6500 1547.0000 1.0000
21.6600 1631.0000 1.0000
21.6700 1589.0000 1.0000
21.6800 1561.0000 1.0000
21.6900 1561.0000 1.0000
21.7000 1528.0000 1.0000
21.7100 1478.0000 1.0000
21.7200 1490.0000 1.0000
21.7300 1482.0000 1.0000
21.7400 1539.0000 1.0000
21.7500 1512.0000 1.0000
21.7600 1556.0000 1.0000
21.7700 1560.0000 1.0000
21.7800 1544.0000 1.0000
21.7900 1480.0000 1.0000
21.8000 1525.0000 1.0000
21.8100 1555.0000 1.0000
21.8200 1525.0000 1.0000
21.8300 1580.0000 1.0000
21.8400 1520.0000 1.0000
21.8500 1531.0000 1.0000
21.8600 1524.0000 1.0000
21.8700 1546.0000 1.0000
21.8800 1569.0000 1.0000
21.8900 1531.0000 1.0000
21.9000 1569.0000 1.0000
21.9100 1530.0000 1.0000
21.9200 1560.0000 1.0000
21.9300 1533.0000 1.0000
21.9400 1580.0000 1.0000
21.9500 1511.0000 1.0000
21.9600 1521.0000 1.0000
21.9700 1514.0000 1.0000
21.9800 1506.0000 1.0000
21.9900 1584.0000 1.0000
22.0000 1556.0000 1.0000
22.0100 1583.0000 1.0000
22.0200 1536.0000 1.0000
22.0300 1534.0000 1.0000
22.0400 1552.0000 1.0000
22.0500 1516.0000 1.0000
22.0600 1571.0000 1.0000
22.0700 1560.0000 1.0000
22.0800 1547.0000 1.0000
22.0900 1550.0000 1.0000
22.1000 1500.0000 1.0000
22.1100 1500.0000 1.0000
22.1200 1512.0000 1.0000
22.1300 1542.0000 1.0000
22.1400 1569.0000 1.0000
22.1500 1522.0000 1.0000
22.1600 1572.0000 1.0000
22.1700 1523.0000 1.0000
22.1800 1533.0000 1.0000
22.1900 1535.0000 1.0000
22.2000 1514.0000 1.0000
22.2100 1564.0000 1.0000
22.2200 1501.0000 1.0000
22.2300 1533.0000 1.0000
22.2400 1454.0000 1.0000
22.2500 1442.0000 1.0000
22.2600 1578.0000 1.0000
22.2700 1550.0000 1.0000
22.2800 1530.0000 1.0000
22.2900 1540.0000 1.0000
22.3000 1584.0000 1.0000
22.3100 1579.0000 1.0000
22.3200 1535.0000 1.0000
22.3300 1592.0000 1.0000
22.3400 1554.0000 1.0000
22.3500 1616.0000 1.0000
22.3600 1553.0000 1.0000
22.3700 1588.0000 1.0000
22.3800 1481.0000 1.0000
22.3900 1593.0000 1.0000
22.4000 1577.0000 1.0000
22.4100 1561.0000 1.0000
22.4200 1566.0000 1.0000
22.4300 1480.0000 1.0000
22.4400 1570.0000 1.0000
22.4500 1591.0000 1.0000
22.4600 1542.0000 1.0000
22.4700 1536.0000 1.0000
22.4800 1513.0000 1.0000
22.4900 1490.0000 1.0000
22.5000 1550.0000 1.0000
22.5100 1579.0000 1.0000
22.5200 1515.0000 1.0000
22.5300 1534.0000 1.0000
22.5400 1540.0000 1.0000
22.5500 1540.0000 1.0000
22.5600 1587.0000 1.0000
22.5700 1597.0000 1.0000
22.5800 1589.0000 1.0000
22.5900 1553.0000 1.0000
22.6000 1491.0000 1.0000
22.6100 1609.0000 1.0000
22.6200 1562.0000 1.0000
22.6300 1614.0000 1.0000
22.6400 1525.0000 1.0000
22.6500 1557.0000 1.0000
22.6600 1608.0000 1.0000
22.6700 1579.0000 1.0000
22.6800 1523.0000 1.0000
22.6900 1512.0000 1.0000
22.7000 1496.0000 1.0000
22.7100 1547.0000 1.0000
22.7200 1569.0000 1.0000
22.7300 1566.0000 1.0000
22.7400 1537.0000 1.0000
22.7500 1529.0000 1.0000
22.7600 1632.0000 1.0000
22.7700 1563.0000 1.0000
22.7800 1597.0000 1.0000
22.7900 1589.0000 1.0000
22.8000 1513.0000 1.0000
22.8100 1591.0000 1.0000
22.8200 1519.0000 1.0000
22.8300 1601.0000 1.0000
22.8400 1588.0000 1.0000
22.8500 1557.0000 1.0000
22.8600 1596.0000 1.0000
22.8700 1551.0000 1.0000
22.8800 1518.0000 1.0000
22.8900 1585.0000 1.0000
22.9000 1543.0000 1.0000
22.9100 1606.0000 1.0000
22.9200 1518.0000 1.0000
22.9300 1555.0000 1.0000
22.9400 1596.0000 1.0000
22.9500 1566.0000 1.0000
22.9600 1540.0000 1.0000
22.9700 1604.0000 1.0000
22.9800 1659.0000 1.0000
22.9900 1551.0000 1.0000
23.0000 1528.0000 1.0000
23.0100 1623.0000 1.0000
23.0200 1576.0000 1.0000
23.0300 1617.0000 1.0000
23.0400 1586.0000 1.0000
23.0500 1520.0000 1.0000
23.0600 1562.0000 1.0000
23.0700 1555.0000 1.0000
23.0800 1570.0000 1.0000
23.0900 1599.0000 1.0000
23.1000 1605.0000 1.0000
23.1100 1611.0000 1.0000
23.1200 1566.0000 1.0000
23.1300 1653.0000 1.0000
23.1400 1602.0000 1.0000
23.1500 1597.0000 1.0000
23.1600 1594.0000 1.0000
23.1700 1547.0000 1.0000
23.1800 1603.0000 1.0000
23.1900 1603.0000 1.0000
23.2000 1585.0000 1.0000
23.2100 1609.0000 1.0000
23.2200 1601.0000 1.0000
23.2300 1569.0000 1.0000
23.2400 1527.0000 1.0000
23.2500 1549.0000 1.0000
23.2600 1604.0000 1.0000
23.2700 1520.0000 1.0000
23.2800 1535.0000 1.0000
23.2900 1600.0000 1.0000
23.3000 1572.0000 1.0000
23.3100 1581.0000 1.0000
23.3200 1524.0000 1.0000
23.3300 1560.0000 1.0000
23.3400 1548.0000 1.0000
23.3500 1577.0000 1.0000
23.3600 1601.0000 1.0000
23.3700 1582.0000 1.0000
23.3800 1561.0000 1.0000
23.3900 1569.0000 1.0000
23.4000 1567.0000 1.0000
23.4100 1598.0000 1.0000
23.4200 1598.0000 1.0000
23.4300 1514.0000 1.0000
23.4400 1519.0000 1.0000
23.4500 1551.0000 1.0000
23.4600 1491.0000 1.0000
23.4700 1555.0000 1.0000
23.4800 1619.0000 1.0000
23.4900 1580.0000 1.0000
23.5000 1666.0000 1.0000
23.5100 1655.0000 1.0000
23.5200 1627.0000 1.0000
23.5300 1529.0000 1.0000
23.5400 1560.0000 1.0000
23.5500 1535.0000 1.0000
23.5600 1547.0000 1.0000
23.5700 1535.0000 1.0000
23.5800 1590.0000 1.0000
23.5900 1611.0000 1.0000
23.6000 1594.0000 1.0000
23.6100 1568.0000 1.0000
23.6200 1601.0000 1.0000
23.6300 1530.0000 1.0000
23.6400 1563.0000 1.0000
23.6500 1586.0000 1.0000
23.6600 1575.0000 1.0000
23.6700 1633.0000 1.0000
23.6800 1642.0000 1.0000
23.6900 1561.0000 1.0000
23.7000 1618.0000 1.0000
23.7100 1604.0000 1.0000
23.7200 1568.0000 1.0000
23.7300 1626.0000 1.0000
23.7400 1549.0000 1.0000
23.7500 1541.0000 1.0000
23.7600 1609.0000 1.0000
23.7700 1541.0000 1.0000
23.7800 1586.0000 1.0000
23.7900 1534.0000 1.0000
23.8000 1588.0000 1.0000
23.8100 1604.0000 1.0000
23.8200 1535.0000 1.0000
23.8300 1552.0000 1.0000
23.8400 1546.0000 1.0000
23.8500 1604.0000 1.0000
23.8600 1611.0000 1.0000
23.8700 1540.0000 1.0000
23.8800 1587.0000 1.0000
23.8900 1579.0000 1.0000
23.9000 1617.0000 1.0000
23.9100 1586.0000 1.0000
23.9200 1559.0000 1.0000
23.9300 1600.0000 1.0000
23.9400 1507.0000 1.0000
23.9500 1524.0000 1.0000
23.9600 1550.0000 1.0000
23.9700 1598.0000 1.0000
23.9800 1573.0000 1.0000
23.9900 1549.0000 1.0000
24.0000 1595.0000 1.0000
24.0100 1585.0000 1.0000
24.0200 1566.0000 1.0000
24.0300 1584.0000 1.0000
24.0400 1543.0000 1.0000
24.0500 1598.0000 1.0000
24.0600 1608.0000 1.0000
24.0700 1582.0000 1.0000
24.0800 1681.0000 1.0000
24.0900 1601.0000 1.0000
24.1000 1612.0000 1.0000
24.1100 1614.0000 1.0000
24.1200 1539.0000 1.0000
24.1300 1592.0000 1.0000
24.1400 1584.0000 1.0000
24.1500 1572.0000 1.0000
24.1600 1595.0000 1.0000
24.1700 1660.0000 1.0000
24.1800 1582.0000 1.0000
24.1900 1568.0000 1.0000
24.2000 1626.0000 1.0000
24.2100 1595.0000 1.0000
24.2200 1552.0000 1.0000
24.2300 1563.0000 1.0000
24.2400 1570.0000 1.0000
24.2500 1595.0000 1.0000
24.2600 1580.0000 1.0000
24.2700 1614.0000 1.0000
24.2800 1638.0000 1.0000
24.2900 1664.0000 1.0000
24.3000 1586.0000 1.0000
24.3100 1588.0000 1.0000
24.3200 1555.0000 1.0000
24.3300 1604.0000 1.0000
24.3400 1585.0000 1.0000
24.3500 1588.0000 1.0000
24.3600 1542.0000 1.0000
24.3700 1553.0000 1.0000
24.3800 1633.0000 1.0000
24.3900 1616.0000 1.0000
24.4000 1683.0000 1.0000
24.4100 1618.0000 1.0000
24.4200 1617.0000 1.0000
24.4300 1601.0000 1.0000
24.4400 1630.0000 1.0000
24.4500 1597.0000 1.0000
24.4600 1593.0000 1.0000
24.4700 1556.0000 1.0000
24.4800 1567.0000 1.0000
24.4900 1638.0000 1.0000
24.5000 1615.0000 1.0000
24.5100 1584.0000 1.0000
24.5200 1613.0000 1.0000
24.5300 1686.0000 1.0000
24.5400 1631.0000 1.0000
24.5500 1611.0000 1.0000
24.5600 1580.0000 1.0000
24.5700 1600.0000 1.0000
24.5800 1565.0000 1.0000
24.5900 1580.0000 1.0000
24.6000 1616.0000 1.0000
24.6100 1637.0000 1.0000
24.6200 1622.0000 1.0000
24.6300 1631.0000 1.0000
24.6400 1608.0000 1.0000
24.6500 1638.0000 1.0000
24.6600 1494.0000 1.0000
24.6700 1587.0000 1.0000
24.6800 1619.0000 1.0000
24.6900 1649.0000 1.0000
24.7000 1662.0000 1.0000
24.7100 1654.0000 1.0000
24.7200 1674.0000 1.0000
24.7300 1644.0000 1.0000
24.7400 1633.0000 1.0000
24.7500 1708.0000 1.0000
24.7600 1621.0000 1.0000
24.7700 1635.0000 1.0000
24.7800 1618.0000 1.0000
24.7900 1614.0000 1.0000
24.8000 1623.0000 1.0000
24.8100 1643.0000 1.0000
24.8200 1633.0000 1.0000
24.8300 1686.0000 1.0000
24.8400 1607.0000 1.0000
24.8500 1621.0000 1.0000
24.8600 1685.0000 1.0000
24.8700 1679.0000 1.0000
24.8800 1649.0000 1.0000
24.8900 1674.0000 1.0000
24.9000 1690.0000 1.0000
24.9100 1677.0000 1.0000
24.9200 1746.0000 1.0000
24.9300 1706.0000 1.0000
24.9400 1682.0000 1.0000
24.9500 1703.0000 1.0000
24.9600 1711.0000 1.0000
24.9700 1687.0000 1.0000
24.9800 1659.0000 1.0000
24.9900 1668.0000 1.0000
25.0000 1654.0000 1.0000
25.0100 1627.0000 1.0000
25.0200 1718.0000 1.0000
25.0300 1700.0000 1.0000
25.0400 1702.0000 1.0000
25.0500 1590.0000 1.0000
25.0600 1572.0000 1.0000
25.0700 1775.0000 1.0000
25.0800 1662.0000 1.0000
25.0900 1573.0000 1.0000
25.1000 1692.0000 1.0000
25.1100 1702.0000 1.0000
25.1200 1626.0000 1.0000
25.1300 1608.0000 1.0000
25.1400 1636.0000 1.0000
25.1500 1670.0000 1.0000
25.1600 1572.0000 1.0000
25.1700 1523.0000 1.0000
25.1800 1566.0000 1.0000
25.1900 1621.0000 1.0000
25.2000 1668.0000 1.0000
25.2100 1617.0000 1.0000
25.2200 1600.0000 1.0000
25.2300 1692.0000 1.0000
25.2400 1648.0000 1.0000
25.2500 1643.0000 1.0000
25.2600 1623.0000 1.0000
25.2700 1608.0000 1.0000
25.2800 1603.0000 1.0000
25.2900 1564.0000 1.0000
25.3000 1675.0000 1.0000
25.3100 1672.0000 1.0000
25.3200 1603.0000 1.0000
25.3300 1624.0000 1.0000
25.3400 1581.0000 1.0000
25.3500 1591.0000 1.0000
25.3600 1650.0000 1.0000
25.3700 1592.0000 1.0000
25.3800 1580.0000 1.0000
25.3900 1556.0000 1.0000
25.4000 1659.0000 1.0000
25.4100 1641.0000 1.0000
25.4200 1649.0000 1.0000
25.4300 1643.0000 1.0000
25.4400 1611.0000 1.0000
25.4500 1631.0000 1.0000
25.4600 1660.0000 1.0000
25.4700 1638.0000 1.0000
25.4800 1569.0000 1.0000
25.4900 1601.0000 1.0000
25.5000 1640.0000 1.0000
25.5100 1618.0000 1.0000
25.5200 1630.0000 1.0000
25.5300 1615.0000 1.0000
25.5400 1585.0000 1.0000
25.5500 1633.0000 1.0000
25.5600 1552.0000 1.0000
25.5700 1628.0000 1.0000
25.5800 1630.0000 1.0000
25.5900 1672.0000 1.0000
25.6000 1596.0000 1.0000
25.6100 1629.0000 1.0000
25.6200 1585.0000 1.0000
25.6300 1655.0000 1.0000
25.6400 1676.0000 1.0000
25.6500 1618.0000 1.0000
25.6600 1569.0000 1.0000
25.6700 1585.0000 1.0000
25.6800 1641.0000 1.0000
25.6900 1645.0000 1.0000
25.7000 1655.0000 1.0000
25.7100 1628.0000 1.0000
25.7200 1583.0000 1.0000
25.7300 1598.0000 1.0000
25.7400 1604.0000 1.0000
25.7500 1602.0000 1.0000
25.7600 1546.0000 1.0000
25.7700 1635.0000 1.0000
25.7800 1607.0000 1.0000
25.7900 1641.0000 1.0000
25.8000 1651.0000 1.0000
25.8100 1639.0000 1.0000
25.8200 1602.0000 1.0000
25.8300 1667.0000 1.0000
25.8400 1651.0000 1.0000
25.8500 1592.0000 1.0000
25.8600 1589.0000 1.0000
25.8700 1623.0000 1.0000
25.8800 1664.0000 1.0000
25.8900 1629.0000 1.0000
25.9000 1683.0000 1.0000
25.9100 1703.0000 1.0000
25.9200 1647.0000 1.0000
25.9300 1672.0000 1.0000
25.9400 1626.0000 1.0000
25.9500 1691.0000 1.0000
25.9600 1605.0000 1.0000
25.9700 1632.0000 1.0000
25.9800 1622.0000 1.0000
25.9900 1639.0000 1.0000
26.0000 1602.0000 1.0000
26.0100 1705.0000 1.0000
26.0200 1635.0000 1.0000
26.0300 1637.0000 1.0000
26.0400 1640.0000 1.0000
26.0500 1612.0000 1.0000
26.0600 1624.0000 1.0000
26.0700 1649.0000 1.0000
26.0800 1635.0000 1.0000
26.0900 1672.0000 1.0000
26.1000 1653.0000 1.0000
26.1100 1677.0000 1.0000
26.1200 1672.0000 1.0000
26.1300 1673.0000 1.0000
26.1400 1630.0000 1.0000
26.1500 1672.0000 1.0000
26.1600 1696.0000 1.0000
26.1700 1643.0000 1.0000
26.1800 1613.0000 1.0000
26.1900 1633.0000 1.0000
26.2000 1676.0000 1.0000
26.2100 1678.0000 1.0000
26.2200 1715.0000 1.0000
26.2300 1665.0000 1.0000
26.2400 1666.0000 1.0000
26.2500 1715.0000 1.0000
26.2600 1627.0000 1.0000
26.2700 1603.0000 1.0000
26.2800 1690.0000 1.0000
26.2900 1648.0000 1.0000
26.3000 1620.0000 1.0000
26.3100 1616.0000 1.0000
26.3200 1661.0000 1.0000
26.3300 1635.0000 1.0000
26.3400 1658.0000 1.0000
26.3500 1653.0000 1.0000
26.3600 1696.0000 1.0000
26.3700 1655.0000 1.0000
26.3800 1667.0000 1.0000
26.3900 1658.0000 1.0000
26.4000 1659.0000 1.0000
26.4100 1642.0000 1.0000
26.4200 1674.0000 1.0000
26.4300 1628.0000 1.0000
26.4400 1697.0000 1.0000
26.4500 1733.0000 1.0000
26.4600 1753.0000 1.0000
26.4700 1650.0000 1.0000
26.4800 1692.0000 1.0000
26.4900 1719.0000 1.0000
26.5000 1634.0000 1.0000
26.5100 1725.0000 1.0000
26.5200 1730.0000 1.0000
26.5300 1686.0000 1.0000
26.5400 1695.0000 1.0000
26.5500 1658.0000 1.0000
26.5600 1683.0000 1.0000
26.5700 1716.0000 1.0000
26.5800 1758.0000 1.0000
26.5900 1732.0000 1.0000
26.6000 1729.0000 1.0000
26.6100 1745.0000 1.0000
26.6200 1712.0000 1.0000
26.6300 1689.0000 1.0000
26.6400 1748.0000 1.0000
26.6500 1778.0000 1.0000
26.6600 1779.0000 1.0000
26.6700 1766.0000 1.0000
26.6800 1831.0000 1.0000
26.6900 1781.0000 1.0000
26.7000 1728.0000 1.0000
26.7100 1730.0000 1.0000
26.7200 1725.0000 1.0000
26.7300 1774.0000 1.0000
26.7400 1784.0000 1.0000
26.7500 1791.0000 1.0000
26.7600 1879.0000 1.0000
26.7700 1776.0000 1.0000
26.7800 1884.0000 1.0000
26.7900 1866.0000 1.0000
26.8000 1852.0000 1.0000
26.8100 1821.0000 1.0000
26.8200 1891.0000 1.0000
26.8300 1834.0000 1.0000
26.8400 1898.0000 1.0000
26.8500 1842.0000 1.0000
26.8600 1859.0000 1.0000
26.8700 1896.0000 1.0000
26.8800 1843.0000 1.0000
26.8900 1862.0000 1.0000
26.9000 1907.0000 1.0000
26.9100 1978.0000 1.0000
26.9200 1975.0000 1.0000
26.9300 1953.0000 1.0000
26.9400 2009.0000 1.0000
26.9500 2114.0000 1.0000
26.9600 2102.0000 1.0000
26.9700 2088.0000 1.0000
26.9800 2172.0000 1.0000
26.9900 2170.0000 1.0000
27.0000 2265.0000 1.0000
27.0100 2242.0000 1.0000
27.0200 2241.0000 1.0000
27.0300 2286.0000 1.0000
27.0400 2466.0000 1.0000
27.0500 2427.0000 1.0000
27.0600 2521.0000 1.0000
27.0700 2619.0000 1.0000
27.0800 2693.0000 1.0000
27.0900 2767.0000 1.0000
27.1000 2872.0000 1.0000
27.1100 2956.0000 1.0000
27.1200 3119.0000 1.0000
27.1300 3206.0000 1.0000
27.1400 3318.0000 1.0000
27.1500 3548.0000 1.0000
27.1600 3671.0000 1.0000
27.1700 3783.0000 1.0000
27.1800 4083.0000 1.0000
27.1900 4272.0000 1.0000
27.2000 4385.0000 1.0000
27.2100 4695.0000 1.0000
27.2200 4984.0000 1.0000
27.2300 5255.0000 1.0000
27.2400 5585.0000 1.0000
27.2500 5840.0000 1.0000
27.2600 6019.0000 1.0000
27.2700 6031.0000 1.0000
27.2800 6190.0000 1.0000
27.2900 6358.0000 1.0000
27.3000 6534.0000 1.0000
27.3100 6486.0000 1.0000
27.3200 6369.0000 1.0000
27.3300 6281.0000 1.0000
27.3400 6059.0000 1.0000
27.3500 6043.0000 1.0000
27.3600 5710.0000 1.0000
27.3700 5388.0000 1.0000
27.3800 5274.0000 1.0000
27.3900 4990.0000 1.0000
27.4000 4730.0000 1.0000
27.4100 4490.0000 1.0000
27.4200 4316.0000 1.0000
27.4300 3982.0000 1.0000
27.4400 3998.0000 1.0000
27.4500 3770.0000 1.0000
27.4600 3480.0000 1.0000
27.4700 3396.0000 1.0000
27.4800 3182.0000 1.0000
27.4900 3101.0000 1.0000
27.5000 2978.0000 1.0000
27.5100 2786.0000 1.0000
27.5200 2868.0000 1.0000
27.5300 2700.0000 1.0000
27.5400 2568.0000 1.0000
27.5500 2556.0000 1.0000
27.5600 2494.0000 1.0000
27.5700 2424.0000 1.0000
27.5800 2396.0000 1.0000
27.5900 2261.0000 1.0000
27.6000 2222.0000 1.0000
27.6100 2274.0000 1.0000
27.6200 2137.0000 1.0000
27.6300 2151.0000 1.0000
27.6400 2022.0000 1.0000
27.6500 2071.0000 1.0000
27.6600 2037.0000 1.0000
27.6700 2025.0000 1.0000
27.6800 2002.0000 1.0000
27.6900 2010.0000 1.0000
27.7000 1999.0000 1.0000
27.7100 1992.0000 1.0000
27.7200 1973.0000 1.0000
27.7300 1889.0000 1.0000
27.7400 1877.0000 1.0000
27.7500 1889.0000 1.0000
27.7600 1889.0000 1.0000
27.7700 1918.0000 1.0000
27.7800 1897.0000 1.0000
27.7900 1802.0000 1.0000
27.8000 1821.0000 1.0000
27.8100 1797.0000 1.0000
27.8200 1804.0000 1.0000
27.8300 1722.0000 1.0000
27.8400 1734.0000 1.0000
27.8500 1717.0000 1.0000
27.8600 1760.0000 1.0000
27.8700 1790.0000 1.0000
27.8800 1750.0000 1.0000
27.8900 1835.0000 1.0000
27.9000 1784.0000 1.0000
27.9100 1781.0000 1.0000
27.9200 1758.0000 1.0000
27.9300 1751.0000 1.0000
27.9400 1673.0000 1.0000
27.9500 1712.0000 1.0000
27.9600 1690.0000 1.0000
27.9700 1707.0000 1.0000
27.9800 1644.0000 1.0000
27.9900 1692.0000 1.0000
28.0000 1689.0000 1.0000
28.0100 1671.0000 1.0000
28.0200 1702.0000 1.0000
28.0300 1727.0000 1.0000
28.0400 1657.0000 1.0000
28.0500 1674.0000 1.0000
28.0600 1765.0000 1.0000
28.0700 1639.0000 1.0000
28.0800 1622.0000 1.0000
28.0900 1610.0000 1.0000
28.1000 1622.0000 1.0000
28.1100 1641.0000 1.0000
28.1200 1641.0000 1.0000
28.1300 1648.0000 1.0000
28.1400 1635.0000 1.0000
28.1500 1651.0000 1.0000
28.1600 1606.0000 1.0000
28.1700 1612.0000 1.0000
28.1800 1599.0000 1.0000
28.1900 1658.0000 1.0000
28.2000 1580.0000 1.0000
28.2100 1690.0000 1.0000
28.2200 1694.0000 1.0000
28.2300 1630.0000 1.0000
28.2400 1561.0000 1.0000
28.2500 1640.0000 1.0000
28.2600 1595.0000 1.0000
28.2700 1587.0000 1.0000
28.2800 1497.0000 1.0000
28.2900 1628.0000 1.0000
28.3000 1619.0000 1.0000
28.3100 1611.0000 1.0000
28.3200 1600.0000 1.0000
28.3300 1575.0000 1.0000
28.3400 1571.0000 1.0000
28.3500 1564.0000 1.0000
28.3600 1639.0000 1.0000
28.3700 1596.0000 1.0000
28.3800 1563.0000 1.0000
28.3900 1598.0000 1.0000
28.4000 1540.0000 1.0000
28.4100 1634.0000 1.0000
28.4200 1585.0000 1.0000
28.4300 1600.0000 1.0000
28.4400 1551.0000 1.0000
28.4500 1543.0000 1.0000
28.4600 1554.0000 1.0000
28.4700 1574.0000 1.0000
28.4800 1605.0000 1.0000
28.4900 1563.0000 1.0000
28.5000 1579.0000 1.0000
28.5100 1581.0000 1.0000
28.5200 1616.0000 1.0000
28.5300 1556.0000 1.0000
28.5400 1585.0000 1.0000
28.5500 1563.0000 1.0000
28.5600 1543.0000 1.0000
28.5700 1584.0000 1.0000
28.5800 1564.0000 1.0000
28.5900 1514.0000 1.0000
28.6000 1554.0000 1.0000
28.6100 1584.0000 1.0000
28.6200 1608.0000 1.0000
28.6300 1610.0000 1.0000
28.6400 1617.0000 1.0000
28.6500 1607.0000 1.0000
28.6600 1508.0000 1.0000
28.6700 1564.0000 1.0000
28.6800 1516.0000 1.0000
28.6900 1479.0000 1.0000
28.7000 1514.0000 1.0000
28.7100 1572.0000 1.0000
28.7200 1494.0000 1.0000
28.7300 1505.0000 1.0000
28.7400 1514.0000 1.0000
28.7500 1556.0000 1.0000
28.7600 1582.0000 1.0000
28.7700 1539.0000 1.0000
28.7800 1484.0000 1.0000
28.7900 1523.0000 1.0000
28.8000 1511.0000 1.0000
28.8100 1549.0000 1.0000
28.8200 1529.0000 1.0000
28.8300 1509.0000 1.0000
28.8400 1562.0000 1.0000
28.8500 1586.0000 1.0000
28.8600 1569.0000 1.0000
28.8700 1600.0000 1.0000
28.8800 1521.0000 1.0000
28.8900 1440.0000 1.0000
28.9000 1528.0000 1.0000
28.9100 1530.0000 1.0000
28.9200 1514.0000 1.0000
28.9300 1528.0000 1.0000
28.9400 1566.0000 1.0000
28.9500 1541.0000 1.0000
28.9600 1488.0000 1.0000
28.9700 1551.0000 1.0000
28.9800 1569.0000 1.0000
28.9900 1533.0000 1.0000
29.0000 1462.0000 1.0000
29.0100 1495.0000 1.0000
29.0200 1566.0000 1.0000
29.0300 1497.0000 1.0000
29.0400 1537.0000 1.0000
29.0500 1540.0000 1.0000
29.0600 1519.0000 1.0000
29.0700 1531.0000 1.0000
29.0800 1492.0000 1.0000
29.0900 1525.0000 1.0000
29.1000 1532.0000 1.0000
29.1100 1531.0000 1.0000
29.1200 1487.0000 1.0000
29.1300 1522.0000 1.0000
29.1400 1578.0000 1.0000
29.1500 1526.0000 1.0000
29.1600 1481.0000 1.0000
29.1700 1513.0000 1.0000
29.1800 1454.0000 1.0000
29.1900 1495.0000 1.0000
29.2000 1537.0000 1.0000
29.2100 1540.0000 1.0000
29.2200 1491.0000 1.0000
29.2300 1460.0000 1.0000
29.2400 1519.0000 1.0000
29.2500 1537.0000 1.0000
29.2600 1517.0000 1.0000
29.2700 1524.0000 1.0000
29.2800 1548.0000 1.0000
29.2900 1472.0000 1.0000
29.3000 1534.0000 1.0000
29.3100 1463.0000 1.0000
29.3200 1473.0000 1.0000
29.3300 1484.0000 1.0000
29.3400 1414.0000 1.0000
29.3500 1482.0000 1.0000
29.3600 1464.0000 1.0000
29.3700 1565.0000 1.0000
29.3800 1443.0000 1.0000
29.3900 1482.0000 1.0000
29.4000 1478.0000 1.0000
29.4100 1509.0000 1.0000
29.4200 1474.0000 1.0000
29.4300 1478.0000 1.0000
29.4400 1523.0000 1.0000
29.4500 1506.0000 1.0000
29.4600 1519.0000 1.0000
29.4700 1486.0000 1.0000
29.4800 1487.0000 1.0000
29.4900 1487.0000 1.0000
29.5000 1453.0000 1.0000
29.5100 1491.0000 1.0000
29.5200 1466.0000 1.0000
29.5300 1456.0000 1.0000
29.5400 1450.0000 1.0000
29.5500 1455.0000 1.0000
29.5600 1452.0000 1.0000
29.5700 1490.0000 1.0000
29.5800 1487.0000 1.0000
29.5900 1477.0000 1.0000
29.6000 1480.0000 1.0000
29.6100 1446.0000 1.0000
29.6200 1525.0000 1.0000
29.6300 1466.0000 1.0000
29.6400 1520.0000 1.0000
29.6500 1464.0000 1.0000
29.6600 1465.0000 1.0000
29.6700 1496.0000 1.0000
29.6800 1442.0000 1.0000
29.6900 1563.0000 1.0000
29.7000 1491.0000 1.0000
29.7100 1446.0000 1.0000
29.7200 1489.0000 1.0000
29.7300 1485.0000 1.0000
29.7400 1461.0000 1.0000
29.7500 1501.0000 1.0000
29.7600 1474.0000 1.0000
29.7700 1446.0000 1.0000
29.7800 1429.0000 1.0000
29.7900 1422.0000 1.0000
29.8000 1462.0000 1.0000
29.8100 1426.0000 1.0000
29.8200 1447.0000 1.0000
29.8300 1442.0000 1.0000
29.8400 1460.0000 1.0000
29.8500 1508.0000 1.0000
29.8600 1470.0000 1.0000
29.8700 1442.0000 1.0000
29.8800 1432.0000 1.0000
29.8900 1428.0000 1.0000
29.9000 1434.0000 1.0000
29.9100 1462.0000 1.0000
29.9200 1467.0000 1.0000
29.9300 1490.0000 1.0000
29.9400 1477.0000 1.0000
29.9500 1384.0000 1.0000
29.9600 1395.0000 1.0000
29.9700 1445.0000 1.0000
29.9800 1460.0000 1.0000
29.9900 1478.0000 1.0000
30.0000 1426.0000 1.0000
30.0100 1504.0000 1.0000
30.0200 1432.0000 1.0000
30.0300 1439.0000 1.0000
30.0400 1391.0000 1.0000
30.0500 1461.0000 1.0000
30.0600 1471.0000 1.0000
30.0700 1414.0000 1.0000
30.0800 1434.0000 1.0000
30.0900 1526.0000 1.0000
30.1000 1427.0000 1.0000
30.1100 1404.0000 1.0000
30.1200 1424.0000 1.0000
30.1300 1417.0000 1.0000
30.1400 1453.0000 1.0000
30.1500 1505.0000 1.0000
30.1600 1438.0000 1.0000
30.1700 1438.0000 1.0000
30.1800 1453.0000 1.0000
30.1900 1442.0000 1.0000
30.2000 1441.0000 1.0000
30.2100 1440.0000 1.0000
30.2200 1481.0000 1.0000
30.2300 1415.0000 1.0000
30.2400 1404.0000 1.0000
30.2500 1459.0000 1.0000
30.2600 1487.0000 1.0000
30.2700 1458.0000 1.0000
30.2800 1477.0000 1.0000
30.2900 1478.0000 1.0000
30.3000 1417.0000 1.0000
30.3100 1403.0000 1.0000
30.3200 1402.0000 1.0000
30.3300 1445.0000 1.0000
30.3400 1509.0000 1.0000
30.3500 1380.0000 1.0000
30.3600 1401.0000 1.0000
30.3700 1426.0000 1.0000
30.3800 1453.0000 1.0000
30.3900 1431.0000 1.0000
30.4000 1441.0000 1.0000
30.4100 1471.0000 1.0000
30.4200 1452.0000 1.0000
30.4300 1431.0000 1.0000
30.4400 1445.0000 1.0000
30.4500 1415.0000 1.0000
30.4600 1451.0000 1.0000
30.4700 1442.0000 1.0000
30.4800 1455.0000 1.0000
30.4900 1436.0000 1.0000
30.5000 1425.0000 1.0000
30.5100 1434.0000 1.0000
30.5200 1447.0000 1.0000
30.5300 1371.0000 1.0000
30.5400 1405.0000 1.0000
30.5500 1395.0000 1.0000
30.5600 1421.0000 1.0000
30.5700 1397.0000 1.0000
30.5800 1372.0000 1.0000
30.5900 1443.0000 1.0000
30.6000 1407.0000 1.0000
30.6100 1406.0000 1.0000
30.6200 1405.0000 1.0000
30.6300 1445.0000 1.0000
30.6400 1428.0000 1.0000
30.6500 1348.0000 1.0000
30.6600 1429.0000 1.0000
30.6700 1421.0000 1.0000
30.6800 1426.0000 1.0000
30.6900 1413.0000 1.0000
30.7000 1403.0000 1.0000
30.7100 1373.0000 1.0000
30.7200 1412.0000 1.0000
30.7300 1425.0000 1.0000
30.7400 1432.0000 1.0000
30.7500 1376.0000 1.0000
30.7600 1425.0000 1.0000
30.7700 1429.0000 1.0000
30.7800 1404.0000 1.0000
30.7900 1422.0000 1.0000
30.8000 1443.0000 1.0000
30.8100 1349.0000 1.0000
30.8200 1398.0000 1.0000
30.8300 1394.0000 1.0000
30.8400 1389.0000 1.0000
30.8500 1398.0000 1.0000
30.8600 1404.0000 1.0000
30.8700 1435.0000 1.0000
30.8800 1408.0000 1.0000
30.8900 1391.0000 1.0000
30.9000 1401.0000 1.0000
30.9100 1370.0000 1.0000
30.9200 1381.0000 1.0000
30.9300 1408.0000 1.0000
30.9400 1418.0000 1.0000
30.9500 1407.0000 1.0000
30.9600 1394.0000 1.0000
30.9700 1369.0000 1.0000
30.9800 1356.0000 1.0000
30.9900 1425.0000 1.0000
31.0000 1377.0000 1.0000
31.0100 1404.0000 1.0000
31.0200 1372.0000 1.0000
31.0300 1382.0000 1.0000
31.0400 1394.0000 1.0000
31.0500 1350.0000 1.0000
31.0600 1419.0000 1.0000
31.0700 1398.0000 1.0000
31.0800 1395.0000 1.0000
31.0900 1419.0000 1.0000
31.1000 1439.0000 1.0000
31.1100 1440.0000 1.0000
31.1200 1429.0000 1.0000
31.1300 1414.0000 1.0000
31.1400 1383.0000 1.0000
31.1500 1356.0000 1.0000
31.1600 1427.0000 1.0000
31.1700 1359.0000 1.0000
31.1800 1413.0000 1.0000
31.1900 1395.0000 1.0000
31.2000 1410.0000 1.0000
31.2100 1357.0000 1.0000
31.2200 1314.0000 1.0000
31.2300 1362.0000 1.0000
31.2400 1389.0000 1.0000
31.2500 1420.0000 1.0000
31.2600 1372.0000 1.0000
31.2700 1398.0000 1.0000
31.2800 1392.0000 1.0000
31.2900 1443.0000 1.0000
31.3000 1332.0000 1.0000
31.3100 1378.0000 1.0000
31.3200 1387.0000 1.0000
31.3300 1327.0000 1.0000
31.3400 1341.0000 1.0000
31.3500 1327.0000 1.0000
31.3600 1358.0000 1.0000
31.3700 1378.0000 1.0000
31.3800 1390.0000 1.0000
31.3900 1446.0000 1.0000
31.4000 1369.0000 1.0000
31.4100 1348.0000 1.0000
31.4200 1338.0000 1.0000
31.4300 1374.0000 1.0000
31.4400 1329.0000 1.0000
31.4500 1377.0000 1.0000
31.4600 1359.0000 1.0000
31.4700 1350.0000 1.0000
31.4800 1355.0000 1.0000
31.4900 1328.0000 1.0000
31.5000 1367.0000 1.0000
31.5100 1340.0000 1.0000
31.5200 1385.0000 1.0000
31.5300 1402.0000 1.0000
31.5400 1421.0000 1.0000
31.5500 1445.0000 1.0000
31.5600 1329.0000 1.0000
31.5700 1388.0000 1.0000
31.5800 1356.0000 1.0000
31.5900 1382.0000 1.0000
31.6000 1396.0000 1.0000
31.6100 1379.0000 1.0000
31.6200 1362.0000 1.0000
31.6300 1325.0000 1.0000
31.6400 1327.0000 1.0000
31.6500 1324.0000 1.0000
31.6600 1375.0000 1.0000
31.6700 1378.0000 1.0000
31.6800 1352.0000 1.0000
31.6900 1344.0000 1.0000
31.7000 1396.0000 1.0000
31.7100 1383.0000 1.0000
31.7200 1413.0000 1.0000
31.7300 1341.0000 1.0000
31.7400 1338.0000 1.0000
31.7500 1341.0000 1.0000
31.7600 1274.0000 1.0000
31.7700 1311.0000 1.0000
31.7800 1402.0000 1.0000
31.7900 1380.0000 1.0000
31.8000 1426.0000 1.0000
31.8100 1425.0000 1.0000
31.8200 1442.0000 1.0000
31.8300 1391.0000 1.0000
31.8400 1337.0000 1.0000
31.8500 1351.0000 1.0000
31.8600 1332.0000 1.0000
31.8700 1284.0000 1.0000
31.8800 1362.0000 1.0000
31.8900 1369.0000 1.0000
31.9000 1397.0000 1.0000
31.9100 1364.0000 1.0000
31.9200 1368.0000 1.0000
31.9300 1354.0000 1.0000
31.9400 1414.0000 1.0000
31.9500 1431.0000 1.0000
31.9600 1429.0000 1.0000
31.9700 1380.0000 1.0000
31.9800 1425.0000 1.0000
31.9900 1382.0000 1.0000
32.0000 1386.0000 1.0000
32.0100 1419.0000 1.0000
32.0200 1435.0000 1.0000
32.0300 1396.0000 1.0000
32.0400 1365.0000 1.0000
32.0500 1345.0000 1.0000
32.0600 1358.0000 1.0000
32.0700 1383.0000 1.0000
32.0800 1378.0000 1.0000
32.0900 1415.0000 1.0000
32.1000 1345.0000 1.0000
32.1100 1400.0000 1.0000
32.1200 1371.0000 1.0000
32.1300 1381.0000 1.0000
32.1400 1383.0000 1.0000
32.1500 1332.0000 1.0000
32.1600 1348.0000 1.0000
32.1700 1330.0000 1.0000
32.1800 1357.0000 1.0000
32.1900 1356.0000 1.0000
32.2000 1377.0000 1.0000
32.2100 1413.0000 1.0000
32.2200 1348.0000 1.0000
32.2300 1320.0000 1.0000
32.2400 1334.0000 1.0000
32.2500 1394.0000 1.0000
32.2600 1413.0000 1.0000
32.2700 1325.0000 1.0000
32.2800 1355.0000 1.0000
32.2900 1363.0000 1.0000
32.3000 1360.0000 1.0000
32.3100 1313.0000 1.0000
32.3200 1310.0000 1.0000
32.3300 1322.0000 1.0000
32.3400 1320.0000 1.0000
32.3500 1357.0000 1.0000
32.3600 1310.0000 1.0000
32.3700 1297.0000 1.0000
32.3800 1296.0000 1.0000
32.3900 1310.0000 1.0000
32.4000 1306.0000 1.0000
32.4100 1365.0000 1.0000
32.4200 1379.0000 1.0000
32.4300 1370.0000 1.0000
32.4400 1321.0000 1.0000
32.4500 1352.0000 1.0000
32.4600 1328.0000 1.0000
32.4700 1354.0000 1.0000
32.4800 1328.0000 1.0000
32.4900 1343.0000 1.0000
32.5000 1418.0000 1.0000
32.5100 1353.0000 1.0000
32.5200 1294.0000 1.0000
32.5300 1362.0000 1.0000
32.5400 1340.0000 1.0000
32.5500 1306.0000 1.0000
32.5600 1320.0000 1.0000
32.5700 1296.0000 1.0000
32.5800 1292.0000 1.0000
32.5900 1347.0000 1.0000
32.6000 1321.0000 1.0000
32.6100 1287.0000 1.0000
32.6200 1349.0000 1.0000
32.6300 1370.0000 1.0000
32.6400 1317.0000 1.0000
32.6500 1345.0000 1.0000
32.6600 1299.0000 1.0000
32.6700 1287.0000 1.0000
32.6800 1335.0000 1.0000
32.6900 1323.0000 1.0000
32.7000 1345.0000 1.0000
32.7100 1327.0000 1.0000
32.7200 1299.0000 1.0000
32.7300 1292.0000 1.0000
32.7400 1300.0000 1.0000
32.7500 1316.0000 1.0000
32.7600 1295.0000 1.0000
32.7700 1358.0000 1.0000
32.7800 1334.0000 1.0000
32.7900 1321.0000 1.0000
32.8000 1296.0000 1.0000
32.8100 1272.0000 1.0000
32.8200 1315.0000 1.0000
32.8300 1334.0000 1.0000
32.8400 1293.0000 1.0000
32.8500 1298.0000 1.0000
32.8600 1286.0000 1.0000
32.8700 1327.0000 1.0000
32.8800 1348.0000 1.0000
32.8900 1332.0000 1.0000
32.9000 1302.0000 1.0000
32.9100 1316.0000 1.0000
32.9200 1329.0000 1.0000
32.9300 1315.0000 1.0000
32.9400 1336.0000 1.0000
32.9500 1316.0000 1.0000
32.9600 1279.0000 1.0000
32.9700 1261.0000 1.0000
32.9800 1235.0000 1.0000
32.9900 1242.0000 1.0000
33.0000 1307.0000 1.0000
33.0100 1307.0000 1.0000
33.0200 1250.0000 1.0000
33.0300 1274.0000 1.0000
33.0400 1301.0000 1.0000
33.0500 1235.0000 1.0000
33.0600 1298.0000 1.0000
33.0700 1342.0000 1.0000
33.0800 1235.0000 1.0000
33.0900 1206.0000 1.0000
33.1000 1294.0000 1.0000
33.1100 1276.0000 1.0000
33.1200 1264.0000 1.0000
33.1300 1276.0000 1.0000
33.1400 1265.0000 1.0000
33.1500 1282.0000 1.0000
33.1600 1323.0000 1.0000
33.1700 1316.0000 1.0000
33.1800 1336.0000 1.0000
33.1900 1314.0000 1.0000
33.2000 1258.0000 1.0000
33.2100 1328.0000 1.0000
33.2200 1300.0000 1.0000
33.2300 1295.0000 1.0000
33.2400 1266.0000 1.0000
33.2500 1300.0000 1.0000
33.2600 1292.0000 1.0000
33.2700 1322.0000 1.0000
33.2800 1244.0000 1.0000
33.2900 1228.0000 1.0000
33.3000 1275.0000 1.0000
33.3100 1276.0000 1.0000
33.3200 1246.0000 1.0000
33.3300 1298.0000 1.0000
33.3400 1297.0000 1.0000
33.3500 1317.0000 1.0000
33.3600 1312.0000 1.0000
33.3700 1234.0000 1.0000
33.3800 1264.0000 1.0000
33.3900 1271.0000 1.0000
33.4000 1270.0000 1.0000
33.4100 1367.0000 1.0000
33.4200 1277.0000 1.0000
33.4300 1303.0000 1.0000
33.4400 1273.0000 1.0000
33.4500 1276.0000 1.0000
33.4600 1268.0000 1.0000
33.4700 1355.0000 1.0000
33.4800 1242.0000 1.0000
33.4900 1253.0000 1.0000
33.5000 1283.0000 1.0000
33.5100 1295.0000 1.0000
33.5200 1217.0000 1.0000
33.5300 1262.0000 1.0000
33.5400 1249.0000 1.0000
33.5500 1292.0000 1.0000
33.5600 1251.0000 1.0000
33.5700 1351.0000 1.0000
33.5800 1253.0000 1.0000
33.5900 1296.0000 1.0000
33.6000 1359.0000 1.0000
33.6100 1333.0000 1.0000
33.6200 1308.0000 1.0000
33.6300 1274.0000 1.0000
33.6400 1281.0000 1.0000
33.6500 1315.0000 1.0000
33.6600 1317.0000 1.0000
33.6700 1287.0000 1.0000
33.6800 1294.0000 1.0000
33.6900 1319.0000 1.0000
33.7000 1299.0000 1.0000
33.7100 1324.0000 1.0000
33.7200 1311.0000 1.0000
33.7300 1309.0000 1.0000
33.7400 1318.0000 1.0000
33.7500 1339.0000 1.0000
33.7600 1337.0000 1.0000
33.7700 1377.0000 1.0000
33.7800 1349.0000 1.0000
33.7900 1365.0000 1.0000
33.8000 1314.0000 1.0000
33.8100 1354.0000 1.0000
33.8200 1358.0000 1.0000
33.8300 1364.0000 1.0000
33.8400 1446.0000 1.0000
33.8500 1407.0000 1.0000
33.8600 1390.0000 1.0000
33.8700 1462.0000 1.0000
33.8800 1469.0000 1.0000
33.8900 1488.0000 1.0000
33.9000 1551.0000 1.0000
33.9100 1513.0000 1.0000
33.9200 1499.0000 1.0000
33.9300 1519.0000 1.0000
33.9400 1505.0000 1.0000
33.9500 1501.0000 1.0000
33.9600 1477.0000 1.0000
33.9700 1486.0000 1.0000
33.9800 1474.0000 1.0000
33.9900 1519.0000 1.0000
34.0000 1508.0000 1.0000
34.0100 1543.0000 1.0000
34.0200 1502.0000 1.0000
34.0300 1451.0000 1.0000
34.0400 1502.0000 1.0000
34.0500 1469.0000 1.0000
34.0600 1412.0000 1.0000
34.0700 1424.0000 1.0000
34.0800 1427.0000 1.0000
34.0900 1478.0000 1.0000
34.1000 1400.0000 1.0000
34.1100 1407.0000 1.0000
34.1200 1455.0000 1.0000
34.1300 1417.0000 1.0000
34.1400 1406.0000 1.0000
34.1500 1452.0000 1.0000
34.1600 1460.0000 1.0000
34.1700 1482.0000 1.0000
34.1800 1465.0000 1.0000
34.1900 1523.0000 1.0000
34.2000 1537.0000 1.0000
34.2100 1549.0000 1.0000
34.2200 1558.0000 1.0000
34.2300 1584.0000 1.0000
34.2400 1626.0000 1.0000
34.2500 1654.0000 1.0000
34.2600 1631.0000 1.0000
34.2700 1665.0000 1.0000
34.2800 1651.0000 1.0000
34.2900 1739.0000 1.0000
34.3000 1736.0000 1.0000
34.3100 1741.0000 1.0000
34.3200 1868.0000 1.0000
34.3300 1869.0000 1.0000
34.3400 1965.0000 1.0000
34.3500 2112.0000 1.0000
34.3600 2165.0000 1.0000
34.3700 2130.0000 1.0000
34.3800 2265.0000 1.0000
34.3900 2407.0000 1.0000
34.4000 2501.0000 1.0000
34.4100 2581.0000 1.0000
34.4200 2703.0000 1.0000
34.4300 2665.0000 1.0000
34.4400 2888.0000 1.0000
34.4500 3024.0000 1.0000
34.4600 3103.0000 1.0000
34.4700 3136.0000 1.0000
34.4800 3198.0000 1.0000
34.4900 3203.0000 1.0000
34.5000 3234.0000 1.0000
34.5100 3253.0000 1.0000
34.5200 3240.0000 1.0000
34.5300 3158.0000 1.0000
34.5400 3197.0000 1.0000
34.5500 3047.0000 1.0000
34.5600 3023.0000 1.0000
34.5700 2915.0000 1.0000
34.5800 2785.0000 1.0000
34.5900 2648.0000 1.0000
34.6000 2572.0000 1.0000
34.6100 2478.0000 1.0000
34.6200 2421.0000 1.0000
34.6300 2358.0000 1.0000
34.6400 2227.0000 1.0000
34.6500 2168.0000 1.0000
34.6600 2088.0000 1.0000
34.6700 1980.0000 1.0000
34.6800 1993.0000 1.0000
34.6900 1877.0000 1.0000
34.7000 1790.0000 1.0000
34.7100 1721.0000 1.0000
34.7200 1783.0000 1.0000
34.7300 1666.0000 1.0000
34.7400 1679.0000 1.0000
34.7500 1638.0000 1.0000
34.7600 1629.0000 1.0000
34.7700 1552.0000 1.0000
34.7800 1480.0000 1.0000
34.7900 1548.0000 1.0000
34.8000 1559.0000 1.0000
34.8100 1458.0000 1.0000
34.8200 1443.0000 1.0000
34.8300 1509.0000 1.0000
34.8400 1404.0000 1.0000
34.8500 1466.0000 1.0000
34.8600 1416.0000 1.0000
34.8700 1416.0000 1.0000
34.8800 1435.0000 1.0000
34.8900 1352.0000 1.0000
34.9000 1379.0000 1.0000
34.9100 1311.0000 1.0000
34.9200 1359.0000 1.0000
34.9300 1312.0000 1.0000
34.9400 1324.0000 1.0000
34.9500 1376.0000 1.0000
34.9600 1337.0000 1.0000
34.9700 1311.0000 1.0000
34.9800 1228.0000 1.0000
34.9900 1278.0000 1.0000
35.0000 1261.0000 1.0000
35.0100 1250.0000 1.0000
35.0200 1229.0000 1.0000
35.0300 1230.0000 1.0000
35.0400 1278.0000 1.0000
35.0500 1206.0000 1.0000
35.0600 1178.0000 1.0000
35.0700 1195.0000 1.0000
35.0800 1178.0000 1.0000
35.0900 1186.0000 1.0000
35.1000 1198.0000 1.0000
35.1100 1194.0000 1.0000
35.1200 1176.0000 1.0000
35.1300 1250.0000 1.0000
35.1400 1178.0000 1.0000
35.1500 1178.0000 1.0000
35.1600 1255.0000 1.0000
35.1700 1198.0000 1.0000
35.1800 1197.0000 1.0000
35.1900 1184.0000 1.0000
35.2000 1152.0000 1.0000
35.2100 1199.0000 1.0000
35.2200 1197.0000 1.0000
35.2300 1137.0000 1.0000
35.2400 1125.0000 1.0000
35.2500 1179.0000 1.0000
35.2600 1217.0000 1.0000
35.2700 1234.0000 1.0000
35.2800 1209.0000 1.0000
35.2900 1139.0000 1.0000
35.3000 1230.0000 1.0000
35.3100 1160.0000 1.0000
35.3200 1144.0000 1.0000
35.3300 1191.0000 1.0000
35.3400 1184.0000 1.0000
35.3500 1120.0000 1.0000
35.3600 1177.0000 1.0000
35.3700 1118.0000 1.0000
35.3800 1095.0000 1.0000
35.3900 1171.0000 1.0000
35.4000 1129.0000 1.0000
35.4100 1112.0000 1.0000
35.4200 1159.0000 1.0000
35.4300 1190.0000 1.0000
35.4400 1131.0000 1.0000
35.4500 1127.0000 1.0000
35.4600 1104.0000 1.0000
35.4700 1144.0000 1.0000
35.4800 1131.0000 1.0000
35.4900 1086.0000 1.0000
35.5000 1076.0000 1.0000
35.5100 1122.0000 1.0000
35.5200 1136.0000 1.0000
35.5300 1153.0000 1.0000
35.5400 1142.0000 1.0000
35.5500 1148.0000 1.0000
35.5600 1152.0000 1.0000
35.5700 1129.0000 1.0000
35.5800 1177.0000 1.0000
35.5900 1100.0000 1.0000
35.6000 1161.0000 1.0000
35.6100 1130.0000 1.0000
35.6200 1134.0000 1.0000
35.6300 1021.0000 1.0000
35.6400 1092.0000 1.0000
35.6500 1106.0000 1.0000
35.6600 1069.0000 1.0000
35.6700 1122.0000 1.0000
35.6800 1173.0000 1.0000
35.6900 1108.0000 1.0000
35.7000 1059.0000 1.0000
35.7100 1028.0000 1.0000
35.7200 1136.0000 1.0000
35.7300 1143.0000 1.0000
35.7400 1117.0000 1.0000
35.7500 1065.0000 1.0000
35.7600 1072.0000 1.0000
35.7700 1086.0000 1.0000
35.7800 1108.0000 1.0000
35.7900 1045.0000 1.0000
35.8000 1112.0000 1.0000
35.8100 1133.0000 1.0000
35.8200 1113.0000 1.0000
35.8300 1059.0000 1.0000
35.8400 1099.0000 1.0000
35.8500 1092.0000 1.0000
35.8600 1096.0000 1.0000
35.8700 1120.0000 1.0000
35.8800 1074.0000 1.0000
35.8900 1101.0000 1.0000
35.9000 1117.0000 1.0000
35.9100 1070.0000 1.0000
35.9200 1128.0000 1.0000
35.9300 1080.0000 1.0000
35.9400 1063.0000 1.0000
35.9500 1099.0000 1.0000
35.9600 1092.0000 1.0000
35.9700 1114.0000 1.0000
35.9800 1112.0000 1.0000
35.9900 1103.0000 1.0000
36.0000 1129.0000 1.0000
36.0100 1130.0000 1.0000
36.0200 1073.0000 1.0000
36.0300 1142.0000 1.0000
36.0400 1110.0000 1.0000
36.0500 1073.0000 1.0000
36.0600 1081.0000 1.0000
36.0700 1097.0000 1.0000
36.0800 1065.0000 1.0000
36.0900 1142.0000 1.0000
36.1000 1153.0000 1.0000
36.1100 1094.0000 1.0000
36.1200 1128.0000 1.0000
36.1300 1127.0000 1.0000
36.1400 1131.0000 1.0000
36.1500 1169.0000 1.0000
36.1600 1142.0000 1.0000
36.1700 1151.0000 1.0000
36.1800 1153.0000 1.0000
36.1900 1215.0000 1.0000
36.2000 1199.0000 1.0000
36.2100 1142.0000 1.0000
36.2200 1201.0000 1.0000
36.2300 1219.0000 1.0000
36.2400 1240.0000 1.0000
36.2500 1250.0000 1.0000
36.2600 1259.0000 1.0000
36.2700 1318.0000 1.0000
36.2800 1361.0000 1.0000
36.2900 1370.0000 1.0000
36.3000 1348.0000 1.0000
36.3100 1447.0000 1.0000
36.3200 1522.0000 1.0000
36.3300 1654.0000 1.0000
36.3400 1654.0000 1.0000
36.3500 1660.0000 1.0000
36.3600 1742.0000 1.0000
36.3700 1768.0000 1.0000
36.3800 1862.0000 1.0000
36.3900 1916.0000 1.0000
36.4000 1877.0000 1.0000
36.4100 1913.0000 1.0000
36.4200 1941.0000 1.0000
36.4300 1910.0000 1.0000
36.4400 1967.0000 1.0000
36.4500 1875.0000 1.0000
36.4600 1779.0000 1.0000
36.4700 1763.0000 1.0000
36.4800 1772.0000 1.0000
36.4900 1663.0000 1.0000
36.5000 1636.0000 1.0000
36.5100 1540.0000 1.0000
36.5200 1549.0000 1.0000
36.5300 1532.0000 1.0000
36.5400 1379.0000 1.0000
36.5500 1357.0000 1.0000
36.5600 1301.0000 1.0000
36.5700 1243.0000 1.0000
36.5800 1263.0000 1.0000
36.5900 1234.0000 1.0000
36.6000 1200.0000 1.0000
36.6100 1166.0000 1.0000
36.6200 1191.0000 1.0000
36.6300 1112.0000 1.0000
36.6400 1157.0000 1.0000
36.6500 1090.0000 1.0000
36.6600 1137.0000 1.0000
36.6700 1087.0000 1.0000
36.6800 1101.0000 1.0000
36.6900 1104.0000 1.0000
36.7000 1012.0000 1.0000
36.7100 1077.0000 1.0000
36.7200 1105.0000 1.0000
36.7300 1078.0000 1.0000
36.7400 1084.0000 1.0000
36.7500 1016.0000 1.0000
36.7600 1061.0000 1.0000
36.7700 1079.0000 1.0000
36.7800 1007.0000 1.0000
36.7900 1075.0000 1.0000
36.8000 1033.0000 1.0000
36.8100 986.0000 1.0000
36.8200 1037.0000 1.0000
36.8300 1022.0000 1.0000
36.8400 1038.0000 1.0000
36.8500 1008.0000 1.0000
36.8600 1055.0000 1.0000
36.8700 1045.0000 1.0000
36.8800 1028.0000 1.0000
36.8900 974.0000 1.0000
36.9000 995.0000 1.0000
36.9100 1036.0000 1.0000
36.9200 1054.0000 1.0000
36.9300 1018.0000 1.0000
36.9400 984.0000 1.0000
36.9500 1008.0000 1.0000
36.9600 1028.0000 1.0000
36.9700 1018.0000 1.0000
36.9800 1057.0000 1.0000
36.9900 1016.0000 1.0000
37.0000 988.0000 1.0000
37.0100 972.0000 1.0000
37.0200 958.0000 1.0000
37.0300 1068.0000 1.0000
37.0400 1021.0000 1.0000
37.0500 1023.0000 1.0000
37.0600 1004.0000 1.0000
37.0700 1061.0000 1.0000
37.0800 1049.0000 1.0000
37.0900 1022.0000 1.0000
37.1000 1041.0000 1.0000
37.1100 1013.0000 1.0000
37.1200 1004.0000 1.0000
37.1300 1050.0000 1.0000
37.1400 1057.0000 1.0000
37.1500 1018.0000 1.0000
37.1600 1055.0000 1.0000
37.1700 995.0000 1.0000
37.1800 1033.0000 1.0000
37.1900 976.0000 1.0000
37.2000 983.0000 1.0000
37.2100 1054.0000 1.0000
37.2200 1009.0000 1.0000
37.2300 965.0000 1.0000
37.2400 1035.0000 1.0000
37.2500 1003.0000 1.0000
37.2600 989.0000 1.0000
37.2700 1016.0000 1.0000
37.2800 1026.0000 1.0000
37.2900 1026.0000 1.0000
37.3000 1039.0000 1.0000
37.3100 1054.0000 1.0000
37.3200 1006.0000 1.0000
37.3300 1055.0000 1.0000
37.3400 1008.0000 1.0000
37.3500 987.0000 1.0000
37.3600 1017.0000 1.0000
37.3700 983.0000 1.0000
37.3800 968.0000 1.0000
37.3900 1020.0000 1.0000
37.4000 989.0000 1.0000
37.4100 1026.0000 1.0000
37.4200 1055.0000 1.0000
37.4300 1021.0000 1.0000
37.4400 971.0000 1.0000
37.4500 1026.0000 1.0000
37.4600 973.0000 1.0000
37.4700 1027.0000 1.0000
37.4800 1026.0000 1.0000
37.4900 1035.0000 1.0000
37.5000 1007.0000 1.0000
37.5100 1009.0000 1.0000
37.5200 953.0000 1.0000
37.5300 984.0000 1.0000
37.5400 1009.0000 1.0000
37.5500 995.0000 1.0000
37.5600 995.0000 1.0000
37.5700 959.0000 1.0000
37.5800 1003.0000 1.0000
37.5900 996.0000 1.0000
37.6000 991.0000 1.0000
37.6100 1030.0000 1.0000
37.6200 1003.0000 1.0000
37.6300 971.0000 1.0000
37.6400 1012.0000 1.0000
37.6500 972.0000 1.0000
37.6600 1015.0000 1.0000
37.6700 1011.0000 1.0000
37.6800 1048.0000 1.0000
37.6900 1006.0000 1.0000
37.7000 1016.0000 1.0000
37.7100 1038.0000 1.0000
37.7200 1034.0000 1.0000
37.7300 999.0000 1.0000
37.7400 1008.0000 1.0000
37.7500 976.0000 1.0000
37.7600 1003.0000 1.0000
37.7700 993.0000 1.0000
37.7800 992.0000 1.0000
37.7900 1027.0000 1.0000
37.8000 1006.0000 1.0000
37.8100 993.0000 1.0000
37.8200 1021.0000 1.0000
37.8300 1024.0000 1.0000
37.8400 1018.0000 1.0000
37.8500 985.0000 1.0000
37.8600 987.0000 1.0000
37.8700 1026.0000 1.0000
37.8800 1044.0000 1.0000
37.8900 1103.0000 1.0000
37.9000 1035.0000 1.0000
37.9100 1012.0000 1.0000
37.9200 1047.0000 1.0000
37.9300 1016.0000 1.0000
37.9400 1023.0000 1.0000
37.9500 1027.0000 1.0000
37.9600 1023.0000 1.0000
37.9700 1063.0000 1.0000
37.9800 1064.0000 1.0000
37.9900 1038.0000 1.0000
38.0000 1038.0000 1.0000
38.0100 1116.0000 1.0000
38.0200 1048.0000 1.0000
38.0300 1085.0000 1.0000
38.0400 1086.0000 1.0000
38.0500 1065.0000 1.0000
38.0600 1175.0000 1.0000
38.0700 1107.0000 1.0000
38.0800 1144.0000 1.0000
38.0900 1097.0000 1.0000
38.1000 1129.0000 1.0000
38.1100 1160.0000 1.0000
38.1200 1120.0000 1.0000
38.1300 1195.0000 1.0000
38.1400 1274.0000 1.0000
38.1500 1239.0000 1.0000
38.1600 1244.0000 1.0000
38.1700 1310.0000 1.0000
38.1800 1281.0000 1.0000
38.1900 1349.0000 1.0000
38.2000 1410.0000 1.0000
38.2100 1386.0000 1.0000
38.2200 1376.0000 1.0000
38.2300 1450.0000 1.0000
38.2400 1524.0000 1.0000
38.2500 1503.0000 1.0000
38.2600 1562.0000 1.0000
38.2700 1645.0000 1.0000
38.2800 1649.0000 1.0000
38.2900 1792.0000 1.0000
38.3000 1783.0000 1.0000
38.3100 1884.0000 1.0000
38.3200 1974.0000 1.0000
38.3300 2019.0000 1.0000
38.3400 2207.0000 1.0000
38.3500 2217.0000 1.0000
38.3600 2287.0000 1.0000
38.3700 2535.0000 1.0000
38.3800 2723.0000 1.0000
38.3900 2883.0000 1.0000
38.4000 3058.0000 1.0000
38.4100 3175.0000 1.0000
38.4200 3505.0000 1.0000
38.4300 3792.0000 1.0000
38.4400 4043.0000 1.0000
38.4500 4208.0000 1.0000
38.4600 4555.0000 1.0000
38.4700 4761.0000 1.0000
38.4800 5128.0000 1.0000
38.4900 5409.0000 1.0000
38.5000 5610.0000 1.0000
38.5100 5794.0000 1.0000
38.5200 6014.0000 1.0000
38.5300 5985.0000 1.0000
38.5400 6147.0000 1.0000
38.5500 6109.0000 1.0000
38.5600 6024.0000 1.0000
38.5700 5908.0000 1.0000
38.5800 5986.0000 1.0000
38.5900 5838.0000 1.0000
38.6000 5648.0000 1.0000
38.6100 5429.0000 1.0000
38.6200 5128.0000 1.0000
38.6300 4926.0000 1.0000
38.6400 4759.0000 1.0000
38.6500 4604.0000 1.0000
38.6600 4240.0000 1.0000
38.6700 3996.0000 1.0000
38.6800 3848.0000 1.0000
38.6900 3591.0000 1.0000
38.7000 3469.0000 1.0000
38.7100 3156.0000 1.0000
38.7200 3002.0000 1.0000
38.7300 2802.0000 1.0000
38.7400 2519.0000 1.0000
38.7500 2383.0000 1.0000
38.7600 2318.0000 1.0000
38.7700 2251.0000 1.0000
38.7800 2104.0000 1.0000
38.7900 1998.0000 1.0000
38.8000 1849.0000 1.0000
38.8100 1722.0000 1.0000
38.8200 1636.0000 1.0000
38.8300 1655.0000 1.0000
38.8400 1573.0000 1.0000
38.8500 1515.0000 1.0000
38.8600 1513.0000 1.0000
38.8700 1402.0000 1.0000
38.8800 1370.0000 1.0000
38.8900 1372.0000 1.0000
38.9000 1404.0000 1.0000
38.9100 1305.0000 1.0000
38.9200 1256.0000 1.0000
38.9300 1245.0000 1.0000
38.9400 1134.0000 1.0000
38.9500 1164.0000 1.0000
38.9600 1124.0000 1.0000
38.9700 1140.0000 1.0000
38.9800 1112.0000 1.0000
38.9900 1090.0000 1.0000
39.0000 1113.0000 1.0000
39.0100 1024.0000 1.0000
39.0200 1078.0000 1.0000
39.0300 1057.0000 1.0000
39.0400 1008.0000 1.0000
39.0500 1027.0000 1.0000
39.0600 981.0000 1.0000
39.0700 1042.0000 1.0000
39.0800 1040.0000 1.0000
39.0900 1016.0000 1.0000
39.1000 963.0000 1.0000
39.1100 973.0000 1.0000
39.1200 932.0000 1.0000
39.1300 980.0000 1.0000
39.1400 963.0000 1.0000
39.1500 1019.0000 1.0000
39.1600 992.0000 1.0000
39.1700 1023.0000 1.0000
39.1800 957.0000 1.0000
39.1900 935.0000 1.0000
39.2000 960.0000 1.0000
39.2100 1000.0000 1.0000
39.2200 902.0000 1.0000
39.2300 930.0000 1.0000
39.2400 944.0000 1.0000
39.2500 921.0000 1.0000
39.2600 908.0000 1.0000
39.2700 925.0000 1.0000
39.2800 945.0000 1.0000
39.2900 930.0000 1.0000
39.3000 914.0000 1.0000
39.3100 900.0000 1.0000
39.3200 948.0000 1.0000
39.3300 968.0000 1.0000
39.3400 890.0000 1.0000
39.3500 937.0000 1.0000
39.3600 918.0000 1.0000
39.3700 922.0000 1.0000
39.3800 892.0000 1.0000
39.3900 940.0000 1.0000
39.4000 981.0000 1.0000
39.4100 961.0000 1.0000
39.4200 931.0000 1.0000
39.4300 932.0000 1.0000
39.4400 957.0000 1.0000
39.4500 956.0000 1.0000
39.4600 956.0000 1.0000
39.4700 935.0000 1.0000
39.4800 927.0000 1.0000
39.4900 845.0000 1.0000
39.5000 883.0000 1.0000
39.5100 867.0000 1.0000
39.5200 978.0000 1.0000
39.5300 949.0000 1.0000
39.5400 973.0000 1.0000
39.5500 986.0000 1.0000
39.5600 978.0000 1.0000
39.5700 938.0000 1.0000
39.5800 942.0000 1.0000
39.5900 977.0000 1.0000
39.6000 940.0000 1.0000
39.6100 938.0000 1.0000
39.6200 937.0000 1.0000
39.6300 983.0000 1.0000
39.6400 960.0000 1.0000
39.6500 959.0000 1.0000
39.6600 922.0000 1.0000
39.6700 950.0000 1.0000
39.6800 962.0000 1.0000
39.6900 959.0000 1.0000
39.7000 930.0000 1.0000
39.7100 922.0000 1.0000
39.7200 889.0000 1.0000
39.7300 906.0000 1.0000
39.7400 929.0000 1.0000
39.7500 895.0000 1.0000
39.7600 935.0000 1.0000
39.7700 932.0000 1.0000
39.7800 925.0000 1.0000
39.7900 868.0000 1.0000
39.8000 892.0000 1.0000
39.8100 883.0000 1.0000
39.8200 936.0000 1.0000
39.8300 863.0000 1.0000
39.8400 907.0000 1.0000
39.8500 893.0000 1.0000
39.8600 945.0000 1.0000
39.8700 920.0000 1.0000
39.8800 895.0000 1.0000
39.8900 891.0000 1.0000
39.9000 840.0000 1.0000
39.9100 900.0000 1.0000
39.9200 867.0000 1.0000
39.9300 914.0000 1.0000
39.9400 840.0000 1.0000
39.9500 861.0000 1.0000
39.9600 931.0000 1.0000
39.9700 846.0000 1.0000
39.9800 871.0000 1.0000
39.9900 907.0000 1.0000
40.0000 918.0000 1.0000
40.0100 898.0000 1.0000
40.0200 836.0000 1.0000
40.0300 887.0000 1.0000
40.0400 873.0000 1.0000
40.0500 866.0000 1.0000
40.0600 884.0000 1.0000
40.0700 849.0000 1.0000
40.0800 845.0000 1.0000
40.0900 864.0000 1.0000
40.1000 849.0000 1.0000
40.1100 887.0000 1.0000
40.1200 862.0000 1.0000
40.1300 844.0000 1.0000
40.1400 889.0000 1.0000
40.1500 854.0000 1.0000
40.1600 844.0000 1.0000
40.1700 866.0000 1.0000
40.1800 880.0000 1.0000
40.1900 842.0000 1.0000
40.2000 863.0000 1.0000
40.2100 863.0000 1.0000
40.2200 858.0000 1.0000
40.2300 823.0000 1.0000
40.2400 845.0000 1.0000
40.2500 850.0000 1.0000
40.2600 866.0000 1.0000
40.2700 874.0000 1.0000
40.2800 854.0000 1.0000
40.2900 852.0000 1.0000
40.3000 853.0000 1.0000
40.3100 868.0000 1.0000
40.3200 874.0000 1.0000
40.3300 872.0000 1.0000
40.3400 907.0000 1.0000
40.3500 840.0000 1.0000
40.3600 828.0000 1.0000
40.3700 855.0000 1.0000
40.3800 888.0000 1.0000
40.3900 863.0000 1.0000
40.4000 854.0000 1.0000
40.4100 802.0000 1.0000
40.4200 862.0000 1.0000
40.4300 857.0000 1.0000
40.4400 886.0000 1.0000
40.4500 857.0000 1.0000
40.4600 797.0000 1.0000
40.4700 857.0000 1.0000
40.4800 878.0000 1.0000
40.4900 833.0000 1.0000
40.5000 798.0000 1.0000
40.5100 815.0000 1.0000
40.5200 801.0000 1.0000
40.5300 844.0000 1.0000
40.5400 872.0000 1.0000
40.5500 837.0000 1.0000
40.5600 800.0000 1.0000
40.5700 868.0000 1.0000
40.5800 819.0000 1.0000
40.5900 855.0000 1.0000
40.6000 865.0000 1.0000
40.6100 834.0000 1.0000
40.6200 805.0000 1.0000
40.6300 852.0000 1.0000
40.6400 834.0000 1.0000
40.6500 830.0000 1.0000
40.6600 860.0000 1.0000
40.6700 864.0000 1.0000
40.6800 855.0000 1.0000
40.6900 864.0000 1.0000
40.7000 869.0000 1.0000
40.7100 790.0000 1.0000
40.7200 878.0000 1.0000
40.7300 859.0000 1.0000
40.7400 839.0000 1.0000
40.7500 863.0000 1.0000
40.7600 859.0000 1.0000
40.7700 791.0000 1.0000
40.7800 820.0000 1.0000
40.7900 816.0000 1.0000
40.8000 838.0000 1.0000
40.8100 860.0000 1.0000
40.8200 790.0000 1.0000
40.8300 795.0000 1.0000
40.8400 843.0000 1.0000
40.8500 859.0000 1.0000
40.8600 841.0000 1.0000
40.8700 827.0000 1.0000
40.8800 821.0000 1.0000
40.8900 867.0000 1.0000
40.9000 871.0000 1.0000
40.9100 814.0000 1.0000
40.9200 836.0000 1.0000
40.9300 834.0000 1.0000
40.9400 831.0000 1.0000
40.9500 834.0000 1.0000
40.9600 824.0000 1.0000
40.9700 856.0000 1.0000
40.9800 864.0000 1.0000
40.9900 843.0000 1.0000
41.0000 820.0000 1.0000
41.0100 837.0000 1.0000
41.0200 837.0000 1.0000
41.0300 852.0000 1.0000
41.0400 843.0000 1.0000
41.0500 833.0000 1.0000
41.0600 859.0000 1.0000
41.0700 836.0000 1.0000
41.0800 867.0000 1.0000
41.0900 811.0000 1.0000
41.1000 821.0000 1.0000
41.1100 865.0000 1.0000
41.1200 836.0000 1.0000
41.1300 833.0000 1.0000
41.1400 857.0000 1.0000
41.1500 816.0000 1.0000
41.1600 852.0000 1.0000
41.1700 832.0000 1.0000
41.1800 830.0000 1.0000
41.1900 844.0000 1.0000
41.2000 836.0000 1.0000
41.2100 840.0000 1.0000
41.2200 881.0000 1.0000
41.2300 840.0000 1.0000
41.2400 829.0000 1.0000
41.2500 887.0000 1.0000
41.2600 842.0000 1.0000
41.2700 834.0000 1.0000
41.2800 867.0000 1.0000
41.2900 809.0000 1.0000
41.3000 841.0000 1.0000
41.3100 806.0000 1.0000
41.3200 843.0000 1.0000
41.3300 797.0000 1.0000
41.3400 887.0000 1.0000
41.3500 855.0000 1.0000
41.3600 853.0000 1.0000
41.3700 840.0000 1.0000
41.3800 872.0000 1.0000
41.3900 854.0000 1.0000
41.4000 836.0000 1.0000
41.4100 833.0000 1.0000
41.4200 848.0000 1.0000
41.4300 844.0000 1.0000
41.4400 886.0000 1.0000
41.4500 828.0000 1.0000
41.4600 845.0000 1.0000
41.4700 836.0000 1.0000
41.4800 852.0000 1.0000
41.4900 839.0000 1.0000
41.5000 891.0000 1.0000
41.5100 884.0000 1.0000
41.5200 832.0000 1.0000
41.5300 853.0000 1.0000
41.5400 876.0000 1.0000
41.5500 868.0000 1.0000
41.5600 885.0000 1.0000
41.5700 823.0000 1.0000
41.5800 855.0000 1.0000
41.5900 891.0000 1.0000
41.6000 897.0000 1.0000
41.6100 867.0000 1.0000
41.6200 839.0000 1.0000
41.6300 866.0000 1.0000
41.6400 860.0000 1.0000
41.6500 843.0000 1.0000
41.6600 860.0000 1.0000
41.6700 838.0000 1.0000
41.6800 833.0000 1.0000
41.6900 840.0000 1.0000
41.7000 808.0000 1.0000
41.7100 857.0000 1.0000
41.7200 839.0000 1.0000
41.7300 857.0000 1.0000
41.7400 855.0000 1.0000
41.7500 839.0000 1.0000
41.7600 843.0000 1.0000
41.7700 832.0000 1.0000
41.7800 825.0000 1.0000
41.7900 821.0000 1.0000
41.8000 886.0000 1.0000
41.8100 837.0000 1.0000
41.8200 807.0000 1.0000
41.8300 827.0000 1.0000
41.8400 842.0000 1.0000
41.8500 836.0000 1.0000
41.8600 818.0000 1.0000
41.8700 800.0000 1.0000
41.8800 819.0000 1.0000
41.8900 806.0000 1.0000
41.9000 793.0000 1.0000
41.9100 869.0000 1.0000
41.9200 836.0000 1.0000
41.9300 828.0000 1.0000
41.9400 832.0000 1.0000
41.9500 851.0000 1.0000
41.9600 841.0000 1.0000
41.9700 853.0000 1.0000
41.9800 805.0000 1.0000
41.9900 843.0000 1.0000
42.0000 828.0000 1.0000
42.0100 820.0000 1.0000
42.0200 797.0000 1.0000
42.0300 802.0000 1.0000
42.0400 832.0000 1.0000
42.0500 845.0000 1.0000
42.0600 808.0000 1.0000
42.0700 843.0000 1.0000
42.0800 823.0000 1.0000
42.0900 813.0000 1.0000
42.1000 806.0000 1.0000
42.1100 811.0000 1.0000
42.1200 802.0000 1.0000
42.1300 798.0000 1.0000
42.1400 773.0000 1.0000
42.1500 805.0000 1.0000
42.1600 863.0000 1.0000
42.1700 827.0000 1.0000
42.1800 782.0000 1.0000
42.1900 803.0000 1.0000
42.2000 828.0000 1.0000
42.2100 842.0000 1.0000
42.2200 809.0000 1.0000
42.2300 812.0000 1.0000
42.2400 816.0000 1.0000
42.2500 815.0000 1.0000
42.2600 832.0000 1.0000
42.2700 774.0000 1.0000
42.2800 837.0000 1.0000
42.2900 814.0000 1.0000
42.3000 843.0000 1.0000
42.3100 811.0000 1.0000
42.3200 807.0000 1.0000
42.3300 836.0000 1.0000
42.3400 812.0000 1.0000
42.3500 817.0000 1.0000
42.3600 865.0000 1.0000
42.3700 817.0000 1.0000
42.3800 786.0000 1.0000
42.3900 803.0000 1.0000
42.4000 780.0000 1.0000
42.4100 850.0000 1.0000
42.4200 828.0000 1.0000
42.4300 816.0000 1.0000
42.4400 788.0000 1.0000
42.4500 800.0000 1.0000
42.4600 817.0000 1.0000
42.4700 815.0000 1.0000
42.4800 793.0000 1.0000
42.4900 823.0000 1.0000
42.5000 809.0000 1.0000
42.5100 835.0000 1.0000
42.5200 814.0000 1.0000
42.5300 809.0000 1.0000
42.5400 869.0000 1.0000
42.5500 779.0000 1.0000
42.5600 839.0000 1.0000
42.5700 824.0000 1.0000
42.5800 782.0000 1.0000
42.5900 828.0000 1.0000
42.6000 789.0000 1.0000
42.6100 765.0000 1.0000
42.6200 800.0000 1.0000
42.6300 829.0000 1.0000
42.6400 822.0000 1.0000
42.6500 810.0000 1.0000
42.6600 820.0000 1.0000
42.6700 803.0000 1.0000
42.6800 816.0000 1.0000
42.6900 797.0000 1.0000
42.7000 797.0000 1.0000
42.7100 811.0000 1.0000
42.7200 839.0000 1.0000
42.7300 809.0000 1.0000
42.7400 794.0000 1.0000
42.7500 824.0000 1.0000
42.7600 810.0000 1.0000
42.7700 813.0000 1.0000
42.7800 766.0000 1.0000
42.7900 769.0000 1.0000
42.8000 811.0000 1.0000
42.8100 820.0000 1.0000
42.8200 807.0000 1.0000
42.8300 797.0000 1.0000
42.8400 816.0000 1.0000
42.8500 810.0000 1.0000
42.8600 817.0000 1.0000
42.8700 816.0000 1.0000
42.8800 796.0000 1.0000
42.8900 825.0000 1.0000
42.9000 849.0000 1.0000
42.9100 801.0000 1.0000
42.9200 787.0000 1.0000
42.9300 770.0000 1.0000
42.9400 814.0000 1.0000
42.9500 853.0000 1.0000
42.9600 836.0000 1.0000
42.9700 804.0000 1.0000
42.9800 785.0000 1.0000
42.9900 817.0000 1.0000
43.0000 842.0000 1.0000
43.0100 815.0000 1.0000
43.0200 803.0000 1.0000
43.0300 806.0000 1.0000
43.0400 829.0000 1.0000
43.0500 789.0000 1.0000
43.0600 799.0000 1.0000
43.0700 842.0000 1.0000
43.0800 822.0000 1.0000
43.0900 823.0000 1.0000
43.1000 820.0000 1.0000
43.1100 814.0000 1.0000
43.1200 873.0000 1.0000
43.1300 871.0000 1.0000
43.1400 817.0000 1.0000
43.1500 847.0000 1.0000
43.1600 844.0000 1.0000
43.1700 854.0000 1.0000
43.1800 866.0000 1.0000
43.1900 882.0000 1.0000
43.2000 900.0000 1.0000
43.2100 919.0000 1.0000
43.2200 920.0000 1.0000
43.2300 915.0000 1.0000
43.2400 881.0000 1.0000
43.2500 898.0000 1.0000
43.2600 900.0000 1.0000
43.2700 843.0000 1.0000
43.2800 849.0000 1.0000
43.2900 854.0000 1.0000
43.3000 900.0000 1.0000
43.3100 863.0000 1.0000
43.3200 863.0000 1.0000
43.3300 893.0000 1.0000
43.3400 950.0000 1.0000
43.3500 892.0000 1.0000
43.3600 862.0000 1.0000
43.3700 863.0000 1.0000
43.3800 859.0000 1.0000
43.3900 822.0000 1.0000
43.4000 813.0000 1.0000
43.4100 856.0000 1.0000
43.4200 877.0000 1.0000
43.4300 858.0000 1.0000
43.4400 847.0000 1.0000
43.4500 835.0000 1.0000
43.4600 876.0000 1.0000
43.4700 803.0000 1.0000
43.4800 856.0000 1.0000
43.4900 832.0000 1.0000
43.5000 773.0000 1.0000
43.5100 846.0000 1.0000
43.5200 852.0000 1.0000
43.5300 834.0000 1.0000
43.5400 831.0000 1.0000
43.5500 847.0000 1.0000
43.5600 852.0000 1.0000
43.5700 826.0000 1.0000
43.5800 799.0000 1.0000
43.5900 819.0000 1.0000
43.6000 804.0000 1.0000
43.6100 772.0000 1.0000
43.6200 789.0000 1.0000
43.6300 784.0000 1.0000
43.6400 777.0000 1.0000
43.6500 759.0000 1.0000
43.6600 812.0000 1.0000
43.6700 805.0000 1.0000
43.6800 809.0000 1.0000
43.6900 764.0000 1.0000
43.7000 798.0000 1.0000
43.7100 771.0000 1.0000
43.7200 768.0000 1.0000
43.7300 806.0000 1.0000
43.7400 792.0000 1.0000
43.7500 757.0000 1.0000
43.7600 801.0000 1.0000
43.7700 800.0000 1.0000
43.7800 798.0000 1.0000
43.7900 782.0000 1.0000
43.8000 781.0000 1.0000
43.8100 777.0000 1.0000
43.8200 791.0000 1.0000
43.8300 789.0000 1.0000
43.8400 812.0000 1.0000
43.8500 812.0000 1.0000
43.8600 805.0000 1.0000
43.8700 812.0000 1.0000
43.8800 807.0000 1.0000
43.8900 815.0000 1.0000
43.9000 801.0000 1.0000
43.9100 807.0000 1.0000
43.9200 762.0000 1.0000
43.9300 805.0000 1.0000
43.9400 828.0000 1.0000
43.9500 810.0000 1.0000
43.9600 788.0000 1.0000
43.9700 787.0000 1.0000
43.9800 800.0000 1.0000
43.9900 740.0000 1.0000
44.0000 808.0000 1.0000
44.0100 788.0000 1.0000
44.0200 803.0000 1.0000
44.0300 724.0000 1.0000
44.0400 793.0000 1.0000
44.0500 804.0000 1.0000
44.0600 780.0000 1.0000
44.0700 847.0000 1.0000
44.0800 809.0000 1.0000
44.0900 809.0000 1.0000
44.1000 767.0000 1.0000
44.1100 758.0000 1.0000
44.1200 776.0000 1.0000
44.1300 767.0000 1.0000
44.1400 781.0000 1.0000
44.1500 800.0000 1.0000
44.1600 801.0000 1.0000
44.1700 791.0000 1.0000
44.1800 786.0000 1.0000
44.1900 812.0000 1.0000
44.2000 868.0000 1.0000
44.2100 776.0000 1.0000
44.2200 808.0000 1.0000
44.2300 815.0000 1.0000
44.2400 809.0000 1.0000
44.2500 816.0000 1.0000
44.2600 790.0000 1.0000
44.2700 803.0000 1.0000
44.2800 834.0000 1.0000
44.2900 804.0000 1.0000
44.3000 781.0000 1.0000
44.3100 808.0000 1.0000
44.3200 794.0000 1.0000
44.3300 759.0000 1.0000
44.3400 764.0000 1.0000
44.3500 779.0000 1.0000
44.3600 785.0000 1.0000
44.3700 811.0000 1.0000
44.3800 788.0000 1.0000
44.3900 779.0000 1.0000
44.4000 827.0000 1.0000
44.4100 823.0000 1.0000
44.4200 768.0000 1.0000
44.4300 792.0000 1.0000
44.4400 805.0000 1.0000
44.4500 760.0000 1.0000
44.4600 801.0000 1.0000
44.4700 738.0000 1.0000
44.4800 814.0000 1.0000
44.4900 796.0000 1.0000
44.5000 756.0000 1.0000
44.5100 749.0000 1.0000
44.5200 775.0000 1.0000
44.5300 786.0000 1.0000
44.5400 790.0000 1.0000
44.5500 772.0000 1.0000
44.5600 789.0000 1.0000
44.5700 828.0000 1.0000
44.5800 792.0000 1.0000
44.5900 777.0000 1.0000
44.6000 755.0000 1.0000
44.6100 806.0000 1.0000
44.6200 789.0000 1.0000
44.6300 779.0000 1.0000
44.6400 768.0000 1.0000
44.6500 757.0000 1.0000
44.6600 771.0000 1.0000
44.6700 832.0000 1.0000
44.6800 775.0000 1.0000
44.6900 783.0000 1.0000
44.7000 821.0000 1.0000
44.7100 764.0000 1.0000
44.7200 791.0000 1.0000
44.7300 790.0000 1.0000
44.7400 800.0000 1.0000
44.7500 816.0000 1.0000
44.7600 795.0000 1.0000
44.7700 802.0000 1.0000
44.7800 807.0000 1.0000
44.7900 775.0000 1.0000
44.8000 797.0000 1.0000
44.8100 737.0000 1.0000
44.8200 751.0000 1.0000
44.8300 812.0000 1.0000
44.8400 784.0000 1.0000
44.8500 724.0000 1.0000
44.8600 795.0000 1.0000
44.8700 766.0000 1.0000
44.8800 771.0000 1.0000
44.8900 784.0000 1.0000
44.9000 774.0000 1.0000
44.9100 770.0000 1.0000
44.9200 743.0000 1.0000
44.9300 789.0000 1.0000
44.9400 751.0000 1.0000
44.9500 747.0000 1.0000
44.9600 776.0000 1.0000
44.9700 791.0000 1.0000
44.9800 792.0000 1.0000
44.9900 764.0000 1.0000
45.0000 782.0000 1.0000
45.0100 810.0000 1.0000
45.0200 770.0000 1.0000
45.0300 807.0000 1.0000
45.0400 760.0000 1.0000
45.0500 761.0000 1.0000
45.0600 787.0000 1.0000
45.0700 760.0000 1.0000
45.0800 767.0000 1.0000
45.0900 777.0000 1.0000
45.1000 777.0000 1.0000
45.1100 802.0000 1.0000
45.1200 746.0000 1.0000
45.1300 773.0000 1.0000
45.1400 809.0000 1.0000
45.1500 774.0000 1.0000
45.1600 791.0000 1.0000
45.1700 767.0000 1.0000
45.1800 746.0000 1.0000
45.1900 788.0000 1.0000
45.2000 774.0000 1.0000
45.2100 837.0000 1.0000
45.2200 765.0000 1.0000
45.2300 766.0000 1.0000
45.2400 756.0000 1.0000
45.2500 769.0000 1.0000
45.2600 761.0000 1.0000
45.2700 780.0000 1.0000
45.2800 763.0000 1.0000
45.2900 744.0000 1.0000
45.3000 770.0000 1.0000
45.3100 765.0000 1.0000
45.3200 826.0000 1.0000
45.3300 794.0000 1.0000
45.3400 773.0000 1.0000
45.3500 763.0000 1.0000
45.3600 745.0000 1.0000
45.3700 786.0000 1.0000
45.3800 761.0000 1.0000
45.3900 736.0000 1.0000
45.4000 742.0000 1.0000
45.4100 791.0000 1.0000
45.4200 776.0000 1.0000
45.4300 770.0000 1.0000
45.4400 698.0000 1.0000
45.4500 730.0000 1.0000
45.4600 786.0000 1.0000
45.4700 789.0000 1.0000
45.4800 775.0000 1.0000
45.4900 820.0000 1.0000
45.5000 739.0000 1.0000
45.5100 746.0000 1.0000
45.5200 753.0000 1.0000
45.5300 728.0000 1.0000
45.5400 743.0000 1.0000
45.5500 757.0000 1.0000
45.5600 787.0000 1.0000
45.5700 762.0000 1.0000
45.5800 755.0000 1.0000
45.5900 784.0000 1.0000
45.6000 742.0000 1.0000
45.6100 771.0000 1.0000
45.6200 809.0000 1.0000
45.6300 749.0000 1.0000
45.6400 728.0000 1.0000
45.6500 754.0000 1.0000
45.6600 753.0000 1.0000
45.6700 745.0000 1.0000
45.6800 731.0000 1.0000
45.6900 762.0000 1.0000
45.7000 743.0000 1.0000
45.7100 750.0000 1.0000
45.7200 795.0000 1.0000
45.7300 818.0000 1.0000
45.7400 759.0000 1.0000
45.7500 761.0000 1.0000
45.7600 778.0000 1.0000
45.7700 760.0000 1.0000
45.7800 749.0000 1.0000
45.7900 715.0000 1.0000
45.8000 788.0000 1.0000
45.8100 775.0000 1.0000
45.8200 751.0000 1.0000
45.8300 750.0000 1.0000
45.8400 773.0000 1.0000
45.8500 745.0000 1.0000
45.8600 726.0000 1.0000
45.8700 795.0000 1.0000
45.8800 738.0000 1.0000
45.8900 764.0000 1.0000
45.9000 765.0000 1.0000
45.9100 770.0000 1.0000
45.9200 738.0000 1.0000
45.9300 728.0000 1.0000
45.9400 744.0000 1.0000
45.9500 734.0000 1.0000
45.9600 800.0000 1.0000
45.9700 794.0000 1.0000
45.9800 753.0000 1.0000
45.9900 744.0000 1.0000
46.0000 734.0000 1.0000
46.0100 746.0000 1.0000
46.0200 752.0000 1.0000
46.0300 738.0000 1.0000
46.0400 760.0000 1.0000
46.0500 764.0000 1.0000
46.0600 750.0000 1.0000
46.0700 750.0000 1.0000
46.0800 747.0000 1.0000
46.0900 734.0000 1.0000
46.1000 770.0000 1.0000
46.1100 768.0000 1.0000
46.1200 759.0000 1.0000
46.1300 775.0000 1.0000
46.1400 736.0000 1.0000
46.1500 750.0000 1.0000
46.1600 707.0000 1.0000
46.1700 746.0000 1.0000
46.1800 734.0000 1.0000
46.1900 709.0000 1.0000
46.2000 731.0000 1.0000
46.2100 750.0000 1.0000
46.2200 757.0000 1.0000
46.2300 683.0000 1.0000
46.2400 729.0000 1.0000
46.2500 736.0000 1.0000
46.2600 755.0000 1.0000
46.2700 753.0000 1.0000
46.2800 765.0000 1.0000
46.2900 740.0000 1.0000
46.3000 730.0000 1.0000
46.3100 734.0000 1.0000
46.3200 755.0000 1.0000
46.3300 745.0000 1.0000
46.3400 702.0000 1.0000
46.3500 733.0000 1.0000
46.3600 754.0000 1.0000
46.3700 742.0000 1.0000
46.3800 728.0000 1.0000
46.3900 716.0000 1.0000
46.4000 742.0000 1.0000
46.4100 769.0000 1.0000
46.4200 724.0000 1.0000
46.4300 743.0000 1.0000
46.4400 781.0000 1.0000
46.4500 742.0000 1.0000
46.4600 738.0000 1.0000
46.4700 741.0000 1.0000
46.4800 760.0000 1.0000
46.4900 767.0000 1.0000
46.5000 722.0000 1.0000
46.5100 740.0000 1.0000
46.5200 696.0000 1.0000
46.5300 729.0000 1.0000
46.5400 723.0000 1.0000
46.5500 754.0000 1.0000
46.5600 772.0000 1.0000
46.5700 769.0000 1.0000
46.5800 731.0000 1.0000
46.5900 708.0000 1.0000
46.6000 752.0000 1.0000
46.6100 780.0000 1.0000
46.6200 732.0000 1.0000
46.6300 722.0000 1.0000
46.6400 720.0000 1.0000
46.6500 741.0000 1.0000
46.6600 770.0000 1.0000
46.6700 753.0000 1.0000
46.6800 743.0000 1.0000
46.6900 745.0000 1.0000
46.7000 756.0000 1.0000
46.7100 765.0000 1.0000
46.7200 769.0000 1.0000
46.7300 751.0000 1.0000
46.7400 743.0000 1.0000
46.7500 773.0000 1.0000
46.7600 757.0000 1.0000
46.7700 731.0000 1.0000
46.7800 753.0000 1.0000
46.7900 733.0000 1.0000
46.8000 768.0000 1.0000
46.8100 773.0000 1.0000
46.8200 768.0000 1.0000
46.8300 750.0000 1.0000
46.8400 754.0000 1.0000
46.8500 762.0000 1.0000
46.8600 779.0000 1.0000
46.8700 768.0000 1.0000
46.8800 754.0000 1.0000
46.8900 721.0000 1.0000
46.9000 746.0000 1.0000
46.9100 706.0000 1.0000
46.9200 765.0000 1.0000
46.9300 744.0000 1.0000
46.9400 718.0000 1.0000
46.9500 749.0000 1.0000
46.9600 752.0000 1.0000
46.9700 789.0000 1.0000
46.9800 768.0000 1.0000
46.9900 789.0000 1.0000
47.0000 799.0000 1.0000
47.0100 772.0000 1.0000
47.0200 737.0000 1.0000
47.0300 734.0000 1.0000
47.0400 731.0000 1.0000
47.0500 761.0000 1.0000
47.0600 749.0000 1.0000
47.0700 756.0000 1.0000
47.0800 741.0000 1.0000
47.0900 747.0000 1.0000
47.1000 765.0000 1.0000
47.1100 749.0000 1.0000
47.1200 758.0000 1.0000
47.1300 715.0000 1.0000
47.1400 707.0000 1.0000
47.1500 749.0000 1.0000
47.1600 740.0000 1.0000
47.1700 716.0000 1.0000
47.1800 772.0000 1.0000
47.1900 726.0000 1.0000
47.2000 733.0000 1.0000
47.2100 737.0000 1.0000
47.2200 734.0000 1.0000
47.2300 712.0000 1.0000
47.2400 720.0000 1.0000
47.2500 722.0000 1.0000
47.2600 685.0000 1.0000
47.2700 751.0000 1.0000
47.2800 719.0000 1.0000
47.2900 737.0000 1.0000
47.3000 757.0000 1.0000
47.3100 708.0000 1.0000
47.3200 714.0000 1.0000
47.3300 701.0000 1.0000
47.3400 752.0000 1.0000
47.3500 750.0000 1.0000
47.3600 752.0000 1.0000
47.3700 739.0000 1.0000
47.3800 741.0000 1.0000
47.3900 723.0000 1.0000
47.4000 763.0000 1.0000
47.4100 748.0000 1.0000
47.4200 724.0000 1.0000
47.4300 751.0000 1.0000
47.4400 767.0000 1.0000
47.4500 739.0000 1.0000
47.4600 745.0000 1.0000
47.4700 762.0000 1.0000
47.4800 755.0000 1.0000
47.4900 732.0000 1.0000
47.5000 713.0000 1.0000
47.5100 716.0000 1.0000
47.5200 736.0000 1.0000
47.5300 709.0000 1.0000
47.5400 683.0000 1.0000
47.5500 693.0000 1.0000
47.5600 694.0000 1.0000
47.5700 732.0000 1.0000
47.5800 727.0000 1.0000
47.5900 752.0000 1.0000
47.6000 722.0000 1.0000
47.6100 748.0000 1.0000
47.6200 691.0000 1.0000
47.6300 734.0000 1.0000
47.6400 716.0000 1.0000
47.6500 769.0000 1.0000
47.6600 723.0000 1.0000
47.6700 751.0000 1.0000
47.6800 747.0000 1.0000
47.6900 722.0000 1.0000
47.7000 738.0000 1.0000
47.7100 706.0000 1.0000
47.7200 700.0000 1.0000
47.7300 677.0000 1.0000
47.7400 732.0000 1.0000
47.7500 720.0000 1.0000
47.7600 690.0000 1.0000
47.7700 689.0000 1.0000
47.7800 753.0000 1.0000
47.7900 709.0000 1.0000
47.8000 728.0000 1.0000
47.8100 709.0000 1.0000
47.8200 719.0000 1.0000
47.8300 720.0000 1.0000
47.8400 705.0000 1.0000
47.8500 702.0000 1.0000
47.8600 726.0000 1.0000
47.8700 695.0000 1.0000
47.8800 720.0000 1.0000
47.8900 789.0000 1.0000
47.9000 734.0000 1.0000
47.9100 711.0000 1.0000
47.9200 739.0000 1.0000
47.9300 705.0000 1.0000
47.9400 749.0000 1.0000
47.9500 770.0000 1.0000
47.9600 730.0000 1.0000
47.9700 783.0000 1.0000
47.9800 743.0000 1.0000
47.9900 689.0000 1.0000
48.0000 726.0000 1.0000
48.0100 690.0000 1.0000
48.0200 711.0000 1.0000
48.0300 752.0000 1.0000
48.0400 688.0000 1.0000
48.0500 706.0000 1.0000
48.0600 705.0000 1.0000
48.0700 672.0000 1.0000
48.0800 703.0000 1.0000
48.0900 717.0000 1.0000
48.1000 686.0000 1.0000
48.1100 716.0000 1.0000
48.1200 707.0000 1.0000
48.1300 714.0000 1.0000
48.1400 740.0000 1.0000
48.1500 733.0000 1.0000
48.1600 734.0000 1.0000
48.1700 754.0000 1.0000
48.1800 687.0000 1.0000
48.1900 703.0000 1.0000
48.2000 686.0000 1.0000
48.2100 684.0000 1.0000
48.2200 716.0000 1.0000
48.2300 674.0000 1.0000
48.2400 720.0000 1.0000
48.2500 707.0000 1.0000
48.2600 705.0000 1.0000
48.2700 722.0000 1.0000
48.2800 691.0000 1.0000
48.2900 735.0000 1.0000
48.3000 736.0000 1.0000
48.3100 678.0000 1.0000
48.3200 720.0000 1.0000
48.3300 728.0000 1.0000
48.3400 725.0000 1.0000
48.3500 714.0000 1.0000
48.3600 706.0000 1.0000
48.3700 730.0000 1.0000
48.3800 734.0000 1.0000
48.3900 716.0000 1.0000
48.4000 699.0000 1.0000
48.4100 725.0000 1.0000
48.4200 729.0000 1.0000
48.4300 681.0000 1.0000
48.4400 704.0000 1.0000
48.4500 702.0000 1.0000
48.4600 739.0000 1.0000
48.4700 678.0000 1.0000
48.4800 753.0000 1.0000
48.4900 714.0000 1.0000
48.5000 674.0000 1.0000
48.5100 667.0000 1.0000
48.5200 718.0000 1.0000
48.5300 716.0000 1.0000
48.5400 704.0000 1.0000
48.5500 722.0000 1.0000
48.5600 721.0000 1.0000
48.5700 692.0000 1.0000
48.5800 707.0000 1.0000
48.5900 710.0000 1.0000
48.6000 696.0000 1.0000
48.6100 727.0000 1.0000
48.6200 675.0000 1.0000
48.6300 731.0000 1.0000
48.6400 742.0000 1.0000
48.6500 694.0000 1.0000
48.6600 723.0000 1.0000
48.6700 710.0000 1.0000
48.6800 692.0000 1.0000
48.6900 748.0000 1.0000
48.7000 693.0000 1.0000
48.7100 667.0000 1.0000
48.7200 716.0000 1.0000
48.7300 706.0000 1.0000
48.7400 722.0000 1.0000
48.7500 723.0000 1.0000
48.7600 715.0000 1.0000
48.7700 662.0000 1.0000
48.7800 712.0000 1.0000
48.7900 684.0000 1.0000
48.8000 697.0000 1.0000
48.8100 670.0000 1.0000
48.8200 707.0000 1.0000
48.8300 708.0000 1.0000
48.8400 725.0000 1.0000
48.8500 689.0000 1.0000
48.8600 724.0000 1.0000
48.8700 731.0000 1.0000
48.8800 699.0000 1.0000
48.8900 688.0000 1.0000
48.9000 669.0000 1.0000
48.9100 701.0000 1.0000
48.9200 708.0000 1.0000
48.9300 693.0000 1.0000
48.9400 668.0000 1.0000
48.9500 716.0000 1.0000
48.9600 707.0000 1.0000
48.9700 734.0000 1.0000
48.9800 726.0000 1.0000
48.9900 704.0000 1.0000
49.0000 668.0000 1.0000
49.0100 735.0000 1.0000
49.0200 682.0000 1.0000
49.0300 713.0000 1.0000
49.0400 710.0000 1.0000
49.0500 729.0000 1.0000
49.0600 683.0000 1.0000
49.0700 729.0000 1.0000
49.0800 717.0000 1.0000
49.0900 735.0000 1.0000
49.1000 743.0000 1.0000
49.1100 660.0000 1.0000
49.1200 701.0000 1.0000
49.1300 669.0000 1.0000
49.1400 704.0000 1.0000
49.1500 724.0000 1.0000
49.1600 737.0000 1.0000
49.1700 728.0000 1.0000
49.1800 662.0000 1.0000
49.1900 725.0000 1.0000
49.2000 650.0000 1.0000
49.2100 709.0000 1.0000
49.2200 678.0000 1.0000
49.2300 660.0000 1.0000
49.2400 723.0000 1.0000
49.2500 690.0000 1.0000
49.2600 738.0000 1.0000
49.2700 698.0000 1.0000
49.2800 743.0000 1.0000
49.2900 709.0000 1.0000
49.3000 705.0000 1.0000
49.3100 688.0000 1.0000
49.3200 706.0000 1.0000
49.3300 695.0000 1.0000
49.3400 671.0000 1.0000
49.3500 697.0000 1.0000
49.3600 708.0000 1.0000
49.3700 673.0000 1.0000
49.3800 679.0000 1.0000
49.3900 705.0000 1.0000
49.4000 667.0000 1.0000
49.4100 705.0000 1.0000
49.4200 715.0000 1.0000
49.4300 675.0000 1.0000
49.4400 690.0000 1.0000
49.4500 701.0000 1.0000
49.4600 675.0000 1.0000
49.4700 705.0000 1.0000
49.4800 710.0000 1.0000
49.4900 682.0000 1.0000
49.5000 710.0000 1.0000
49.5100 713.0000 1.0000
49.5200 666.0000 1.0000
49.5300 696.0000 1.0000
49.5400 665.0000 1.0000
49.5500 667.0000 1.0000
49.5600 688.0000 1.0000
49.5700 698.0000 1.0000
49.5800 678.0000 1.0000
49.5900 707.0000 1.0000
49.6000 708.0000 1.0000
49.6100 664.0000 1.0000
49.6200 709.0000 1.0000
49.6300 698.0000 1.0000
49.6400 739.0000 1.0000
49.6500 671.0000 1.0000
49.6600 672.0000 1.0000
49.6700 675.0000 1.0000
49.6800 671.0000 1.0000
49.6900 724.0000 1.0000
49.7000 675.0000 1.0000
49.7100 704.0000 1.0000
49.7200 695.0000 1.0000
49.7300 714.0000 1.0000
49.7400 718.0000 1.0000
49.7500 697.0000 1.0000
49.7600 679.0000 1.0000
49.7700 715.0000 1.0000
49.7800 718.0000 1.0000
49.7900 693.0000 1.0000
49.8000 670.0000 1.0000
49.8100 693.0000 1.0000
49.8200 667.0000 1.0000
49.8300 669.0000 1.0000
49.8400 721.0000 1.0000
49.8500 689.0000 1.0000
49.8600 688.0000 1.0000
49.8700 727.0000 1.0000
49.8800 745.0000 1.0000
49.8900 688.0000 1.0000
49.9000 695.0000 1.0000
49.9100 674.0000 1.0000
49.9200 705.0000 1.0000
49.9300 669.0000 1.0000
49.9400 691.0000 1.0000
49.9500 690.0000 1.0000
49.9600 697.0000 1.0000
49.9700 684.0000 1.0000
49.9800 700.0000 1.0000
49.9900 696.0000 1.0000
50.0000 701.0000 1.0000
50.0100 693.0000 1.0000
50.0200 669.0000 1.0000
50.0300 690.0000 1.0000
50.0400 694.0000 1.0000
50.0500 683.0000 1.0000
50.0600 692.0000 1.0000
50.0700 727.0000 1.0000
50.0800 693.0000 1.0000
50.0900 730.0000 1.0000
50.1000 697.0000 1.0000
50.1100 714.0000 1.0000
50.1200 738.0000 1.0000
50.1300 731.0000 1.0000
50.1400 703.0000 1.0000
50.1500 740.0000 1.0000
50.1600 704.0000 1.0000
50.1700 748.0000 1.0000
50.1800 751.0000 1.0000
50.1900 731.0000 1.0000
50.2000 746.0000 1.0000
50.2100 727.0000 1.0000
50.2200 749.0000 1.0000
50.2300 711.0000 1.0000
50.2400 730.0000 1.0000
50.2500 694.0000 1.0000
50.2600 738.0000 1.0000
50.2700 719.0000 1.0000
50.2800 740.0000 1.0000
50.2900 709.0000 1.0000
50.3000 739.0000 1.0000
50.3100 713.0000 1.0000
50.3200 707.0000 1.0000
50.3300 752.0000 1.0000
50.3400 718.0000 1.0000
50.3500 711.0000 1.0000
50.3600 732.0000 1.0000
50.3700 722.0000 1.0000
50.3800 744.0000 1.0000
50.3900 738.0000 1.0000
50.4000 744.0000 1.0000
50.4100 740.0000 1.0000
50.4200 746.0000 1.0000
50.4300 768.0000 1.0000
50.4400 724.0000 1.0000
50.4500 689.0000 1.0000
50.4600 710.0000 1.0000
50.4700 743.0000 1.0000
50.4800 727.0000 1.0000
50.4900 709.0000 1.0000
50.5000 733.0000 1.0000
50.5100 690.0000 1.0000
50.5200 690.0000 1.0000
50.5300 711.0000 1.0000
50.5400 688.0000 1.0000
50.5500 712.0000 1.0000
50.5600 703.0000 1.0000
50.5700 697.0000 1.0000
50.5800 699.0000 1.0000
50.5900 722.0000 1.0000
50.6000 704.0000 1.0000
50.6100 743.0000 1.0000
50.6200 681.0000 1.0000
50.6300 723.0000 1.0000
50.6400 708.0000 1.0000
50.6500 699.0000 1.0000
50.6600 732.0000 1.0000
50.6700 731.0000 1.0000
50.6800 695.0000 1.0000
50.6900 704.0000 1.0000
50.7000 698.0000 1.0000
50.7100 705.0000 1.0000
50.7200 724.0000 1.0000
50.7300 700.0000 1.0000
50.7400 712.0000 1.0000
50.7500 728.0000 1.0000
50.7600 724.0000 1.0000
50.7700 733.0000 1.0000
50.7800 716.0000 1.0000
50.7900 761.0000 1.0000
50.8000 713.0000 1.0000
50.8100 720.0000 1.0000
50.8200 711.0000 1.0000
50.8300 710.0000 1.0000
50.8400 704.0000 1.0000
50.8500 676.0000 1.0000
50.8600 709.0000 1.0000
50.8700 701.0000 1.0000
50.8800 692.0000 1.0000
50.8900 692.0000 1.0000
50.9000 708.0000 1.0000
50.9100 722.0000 1.0000
50.9200 710.0000 1.0000
50.9300 708.0000 1.0000
50.9400 718.0000 1.0000
50.9500 727.0000 1.0000
50.9600 728.0000 1.0000
50.9700 748.0000 1.0000
50.9800 739.0000 1.0000
50.9900 711.0000 1.0000
51.0000 684.0000 1.0000
51.0100 686.0000 1.0000
51.0200 744.0000 1.0000
51.0300 690.0000 1.0000
51.0400 715.0000 1.0000
51.0500 713.0000 1.0000
51.0600 701.0000 1.0000
51.0700 703.0000 1.0000
51.0800 706.0000 1.0000
51.0900 753.0000 1.0000
51.1000 702.0000 1.0000
51.1100 720.0000 1.0000
51.1200 711.0000 1.0000
51.1300 708.0000 1.0000
51.1400 661.0000 1.0000
51.1500 699.0000 1.0000
51.1600 712.0000 1.0000
51.1700 738.0000 1.0000
51.1800 761.0000 1.0000
51.1900 726.0000 1.0000
51.2000 703.0000 1.0000
51.2100 695.0000 1.0000
51.2200 715.0000 1.0000
51.2300 711.0000 1.0000
51.2400 715.0000 1.0000
51.2500 735.0000 1.0000
51.2600 753.0000 1.0000
51.2700 680.0000 1.0000
51.2800 671.0000 1.0000
51.2900 694.0000 1.0000
51.3000 704.0000 1.0000
51.3100 713.0000 1.0000
51.3200 762.0000 1.0000
51.3300 705.0000 1.0000
51.3400 736.0000 1.0000
51.3500 733.0000 1.0000
51.3600 716.0000 1.0000
51.3700 716.0000 1.0000
51.3800 737.0000 1.0000
51.3900 722.0000 1.0000
51.4000 695.0000 1.0000
51.4100 744.0000 1.0000
51.4200 728.0000 1.0000
51.4300 744.0000 1.0000
51.4400 703.0000 1.0000
51.4500 705.0000 1.0000
51.4600 723.0000 1.0000
51.4700 739.0000 1.0000
51.4800 723.0000 1.0000
51.4900 753.0000 1.0000
51.5000 715.0000 1.0000
51.5100 710.0000 1.0000
51.5200 701.0000 1.0000
51.5300 737.0000 1.0000
51.5400 708.0000 1.0000
51.5500 713.0000 1.0000
51.5600 718.0000 1.0000
51.5700 736.0000 1.0000
51.5800 697.0000 1.0000
51.5900 812.0000 1.0000
51.6000 752.0000 1.0000
51.6100 745.0000 1.0000
51.6200 753.0000 1.0000
51.6300 747.0000 1.0000
51.6400 712.0000 1.0000
51.6500 710.0000 1.0000
51.6600 737.0000 1.0000
51.6700 709.0000 1.0000
51.6800 757.0000 1.0000
51.6900 779.0000 1.0000
51.7000 772.0000 1.0000
51.7100 742.0000 1.0000
51.7200 735.0000 1.0000
51.7300 782.0000 1.0000
51.7400 794.0000 1.0000
51.7500 777.0000 1.0000
51.7600 775.0000 1.0000
51.7700 789.0000 1.0000
51.7800 812.0000 1.0000
51.7900 797.0000 1.0000
51.8000 824.0000 1.0000
51.8100 841.0000 1.0000
51.8200 840.0000 1.0000
51.8300 876.0000 1.0000
51.8400 805.0000 1.0000
51.8500 831.0000 1.0000
51.8600 798.0000 1.0000
51.8700 814.0000 1.0000
51.8800 852.0000 1.0000
51.8900 897.0000 1.0000
51.9000 854.0000 1.0000
51.9100 911.0000 1.0000
51.9200 928.0000 1.0000
51.9300 975.0000 1.0000
51.9400 1005.0000 1.0000
51.9500 960.0000 1.0000
51.9600 1019.0000 1.0000
51.9700 981.0000 1.0000
51.9800 1068.0000 1.0000
51.9900 1073.0000 1.0000
52.0000 1114.0000 1.0000
52.0100 1177.0000 1.0000
52.0200 1187.0000 1.0000
52.0300 1252.0000 1.0000
52.0400 1303.0000 1.0000
52.0500 1305.0000 1.0000
52.0600 1341.0000 1.0000
52.0700 1372.0000 1.0000
52.0800 1551.0000 1.0000
52.0900 1516.0000 1.0000
52.1000 1606.0000 1.0000
52.1100 1801.0000 1.0000
52.1200 1853.0000 1.0000
52.1300 1958.0000 1.0000
52.1400 2129.0000 1.0000
52.1500 2361.0000 1.0000
52.1600 2544.0000 1.0000
52.1700 2715.0000 1.0000
52.1800 2963.0000 1.0000
52.1900 3280.0000 1.0000
52.2000 3540.0000 1.0000
52.2100 3798.0000 1.0000
52.2200 4192.0000 1.0000
52.2300 4367.0000 1.0000
52.2400 4742.0000 1.0000
52.2500 5004.0000 1.0000
52.2600 5085.0000 1.0000
52.2700 5180.0000 1.0000
52.2800 5378.0000 1.0000
52.2900 5324.0000 1.0000
52.3000 5258.0000 1.0000
52.3100 5122.0000 1.0000
52.3200 5152.0000 1.0000
52.3300 4869.0000 1.0000
52.3400 4653.0000 1.0000
52.3500 4595.0000 1.0000
52.3600 4446.0000 1.0000
52.3700 4390.0000 1.0000
52.3800 4224.0000 1.0000
52.3900 4163.0000 1.0000
52.4000 3978.0000 1.0000
52.4100 3840.0000 1.0000
52.4200 3771.0000 1.0000
52.4300 3667.0000 1.0000
52.4400 3423.0000 1.0000
52.4500 3321.0000 1.0000
52.4600 3170.0000 1.0000
52.4700 2858.0000 1.0000
52.4800 2718.0000 1.0000
52.4900 2578.0000 1.0000
52.5000 2375.0000 1.0000
52.5100 2182.0000 1.0000
52.5200 2010.0000 1.0000
52.5300 1934.0000 1.0000
52.5400 1815.0000 1.0000
52.5500 1642.0000 1.0000
52.5600 1540.0000 1.0000
52.5700 1516.0000 1.0000
52.5800 1469.0000 1.0000
52.5900 1313.0000 1.0000
52.6000 1277.0000 1.0000
52.6100 1247.0000 1.0000
52.6200 1172.0000 1.0000
52.6300 1138.0000 1.0000
52.6400 1135.0000 1.0000
52.6500 1097.0000 1.0000
52.6600 1119.0000 1.0000
52.6700 1116.0000 1.0000
52.6800 1080.0000 1.0000
52.6900 1012.0000 1.0000
52.7000 967.0000 1.0000
52.7100 999.0000 1.0000
52.7200 910.0000 1.0000
52.7300 911.0000 1.0000
52.7400 892.0000 1.0000
52.7500 889.0000 1.0000
52.7600 906.0000 1.0000
52.7700 907.0000 1.0000
52.7800 870.0000 1.0000
52.7900 874.0000 1.0000
52.8000 857.0000 1.0000
52.8100 840.0000 1.0000
52.8200 785.0000 1.0000
52.8300 841.0000 1.0000
52.8400 813.0000 1.0000
52.8500 819.0000 1.0000
52.8600 802.0000 1.0000
52.8700 814.0000 1.0000
52.8800 785.0000 1.0000
52.8900 823.0000 1.0000
52.9000 789.0000 1.0000
52.9100 801.0000 1.0000
52.9200 783.0000 1.0000
52.9300 805.0000 1.0000
52.9400 811.0000 1.0000
52.9500 790.0000 1.0000
52.9600 775.0000 1.0000
52.9700 761.0000 1.0000
52.9800 768.0000 1.0000
52.9900 738.0000 1.0000
53.0000 766.0000 1.0000
53.0100 768.0000 1.0000
53.0200 673.0000 1.0000
53.0300 710.0000 1.0000
53.0400 734.0000 1.0000
53.0500 735.0000 1.0000
53.0600 748.0000 1.0000
53.0700 737.0000 1.0000
53.0800 739.0000 1.0000
53.0900 750.0000 1.0000
53.1000 734.0000 1.0000
53.1100 756.0000 1.0000
53.1200 741.0000 1.0000
53.1300 727.0000 1.0000
53.1400 716.0000 1.0000
53.1500 759.0000 1.0000
53.1600 726.0000 1.0000
53.1700 724.0000 1.0000
53.1800 715.0000 1.0000
53.1900 706.0000 1.0000
53.2000 747.0000 1.0000
53.2100 678.0000 1.0000
53.2200 680.0000 1.0000
53.2300 734.0000 1.0000
53.2400 725.0000 1.0000
53.2500 708.0000 1.0000
53.2600 719.0000 1.0000
53.2700 686.0000 1.0000
53.2800 701.0000 1.0000
53.2900 691.0000 1.0000
53.3000 695.0000 1.0000
53.3100 683.0000 1.0000
53.3200 750.0000 1.0000
53.3300 694.0000 1.0000
53.3400 697.0000 1.0000
53.3500 689.0000 1.0000
53.3600 711.0000 1.0000
53.3700 710.0000 1.0000
53.3800 718.0000 1.0000
53.3900 713.0000 1.0000
53.4000 709.0000 1.0000
53.4100 733.0000 1.0000
53.4200 683.0000 1.0000
53.4300 688.0000 1.0000
53.4400 703.0000 1.0000
53.4500 729.0000 1.0000
53.4600 681.0000 1.0000
53.4700 715.0000 1.0000
53.4800 693.0000 1.0000
53.4900 680.0000 1.0000
53.5000 719.0000 1.0000
53.5100 722.0000 1.0000
53.5200 720.0000 1.0000
53.5300 669.0000 1.0000
53.5400 711.0000 1.0000
53.5500 698.0000 1.0000
53.5600 701.0000 1.0000
53.5700 690.0000 1.0000
53.5800 699.0000 1.0000
53.5900 688.0000 1.0000
53.6000 659.0000 1.0000
53.6100 701.0000 1.0000
53.6200 715.0000 1.0000
53.6300 704.0000 1.0000
53.6400 718.0000 1.0000
53.6500 703.0000 1.0000
53.6600 693.0000 1.0000
53.6700 701.0000 1.0000
53.6800 708.0000 1.0000
53.6900 673.0000 1.0000
53.7000 694.0000 1.0000
53.7100 707.0000 1.0000
53.7200 706.0000 1.0000
53.7300 692.0000 1.0000
53.7400 676.0000 1.0000
53.7500 704.0000 1.0000
53.7600 701.0000 1.0000
53.7700 735.0000 1.0000
53.7800 670.0000 1.0000
53.7900 733.0000 1.0000
53.8000 722.0000 1.0000
53.8100 704.0000 1.0000
53.8200 657.0000 1.0000
53.8300 676.0000 1.0000
53.8400 707.0000 1.0000
53.8500 694.0000 1.0000
53.8600 709.0000 1.0000
53.8700 684.0000 1.0000
53.8800 633.0000 1.0000
53.8900 715.0000 1.0000
53.9000 689.0000 1.0000
53.9100 708.0000 1.0000
53.9200 668.0000 1.0000
53.9300 682.0000 1.0000
53.9400 679.0000 1.0000
53.9500 641.0000 1.0000
53.9600 692.0000 1.0000
53.9700 722.0000 1.0000
53.9800 730.0000 1.0000
53.9900 706.0000 1.0000
54.0000 668.0000 1.0000
54.0100 709.0000 1.0000
54.0200 681.0000 1.0000
54.0300 698.0000 1.0000
54.0400 682.0000 1.0000
54.0500 711.0000 1.0000
54.0600 674.0000 1.0000
54.0700 665.0000 1.0000
54.0800 690.0000 1.0000
54.0900 673.0000 1.0000
54.1000 673.0000 1.0000
54.1100 692.0000 1.0000
54.1200 695.0000 1.0000
54.1300 666.0000 1.0000
54.1400 674.0000 1.0000
54.1500 727.0000 1.0000
54.1600 703.0000 1.0000
54.1700 658.0000 1.0000
54.1800 694.0000 1.0000
54.1900 659.0000 1.0000
54.2000 664.0000 1.0000
54.2100 660.0000 1.0000
54.2200 693.0000 1.0000
54.2300 700.0000 1.0000
54.2400 661.0000 1.0000
54.2500 661.0000 1.0000
54.2600 673.0000 1.0000
54.2700 711.0000 1.0000
54.2800 692.0000 1.0000
54.2900 636.0000 1.0000
54.3000 656.0000 1.0000
54.3100 713.0000 1.0000
54.3200 683.0000 1.0000
54.3300 696.0000 1.0000
54.3400 673.0000 1.0000
54.3500 708.0000 1.0000
54.3600 684.0000 1.0000
54.3700 672.0000 1.0000
54.3800 721.0000 1.0000
54.3900 686.0000 1.0000
54.4000 694.0000 1.0000
54.4100 708.0000 1.0000
54.4200 732.0000 1.0000
54.4300 696.0000 1.0000
54.4400 707.0000 1.0000
54.4500 711.0000 1.0000
54.4600 676.0000 1.0000
54.4700 646.0000 1.0000
54.4800 693.0000 1.0000
54.4900 693.0000 1.0000
54.5000 709.0000 1.0000
54.5100 713.0000 1.0000
54.5200 704.0000 1.0000
54.5300 686.0000 1.0000
54.5400 671.0000 1.0000
54.5500 719.0000 1.0000
54.5600 692.0000 1.0000
54.5700 688.0000 1.0000
54.5800 658.0000 1.0000
54.5900 712.0000 1.0000
54.6000 688.0000 1.0000
54.6100 725.0000 1.0000
54.6200 748.0000 1.0000
54.6300 678.0000 1.0000
54.6400 672.0000 1.0000
54.6500 687.0000 1.0000
54.6600 713.0000 1.0000
54.6700 688.0000 1.0000
54.6800 733.0000 1.0000
54.6900 697.0000 1.0000
54.7000 719.0000 1.0000
54.7100 725.0000 1.0000
54.7200 751.0000 1.0000
54.7300 733.0000 1.0000
54.7400 739.0000 1.0000
54.7500 732.0000 1.0000
54.7600 752.0000 1.0000
54.7700 729.0000 1.0000
54.7800 738.0000 1.0000
54.7900 749.0000 1.0000
54.8000 689.0000 1.0000
54.8100 713.0000 1.0000
54.8200 761.0000 1.0000
54.8300 799.0000 1.0000
54.8400 714.0000 1.0000
54.8500 730.0000 1.0000
54.8600 725.0000 1.0000
54.8700 751.0000 1.0000
54.8800 781.0000 1.0000
54.8900 731.0000 1.0000
54.9000 734.0000 1.0000
54.9100 756.0000 1.0000
54.9200 729.0000 1.0000
54.9300 768.0000 1.0000
54.9400 726.0000 1.0000
54.9500 756.0000 1.0000
54.9600 768.0000 1.0000
54.9700 738.0000 1.0000
54.9800 764.0000 1.0000
54.9900 778.0000 1.0000
55.0000 777.0000 1.0000
55.0100 786.0000 1.0000
55.0200 768.0000 1.0000
55.0300 766.0000 1.0000
55.0400 772.0000 1.0000
55.0500 804.0000 1.0000
55.0600 792.0000 1.0000
55.0700 749.0000 1.0000
55.0800 751.0000 1.0000
55.0900 837.0000 1.0000
55.1000 846.0000 1.0000
55.1100 857.0000 1.0000
55.1200 791.0000 1.0000
55.1300 854.0000 1.0000
55.1400 849.0000 1.0000
55.1500 865.0000 1.0000
55.1600 855.0000 1.0000
55.1700 864.0000 1.0000
55.1800 906.0000 1.0000
55.1900 925.0000 1.0000
55.2000 958.0000 1.0000
55.2100 956.0000 1.0000
55.2200 976.0000 1.0000
55.2300 956.0000 1.0000
55.2400 1016.0000 1.0000
55.2500 1014.0000 1.0000
55.2600 1031.0000 1.0000
55.2700 1039.0000 1.0000
55.2800 1046.0000 1.0000
55.2900 1062.0000 1.0000
55.3000 1099.0000 1.0000
55.3100 1078.0000 1.0000
55.3200 1036.0000 1.0000
55.3300 1097.0000 1.0000
55.3400 1078.0000 1.0000
55.3500 1063.0000 1.0000
55.3600 1015.0000 1.0000
55.3700 1045.0000 1.0000
55.3800 1016.0000 1.0000
55.3900 960.0000 1.0000
55.4000 986.0000 1.0000
55.4100 1011.0000 1.0000
55.4200 985.0000 1.0000
55.4300 999.0000 1.0000
55.4400 960.0000 1.0000
55.4500 936.0000 1.0000
55.4600 917.0000 1.0000
55.4700 884.0000 1.0000
55.4800 915.0000 1.0000
55.4900 907.0000 1.0000
55.5000 933.0000 1.0000
55.5100 881.0000 1.0000
55.5200 848.0000 1.0000
55.5300 874.0000 1.0000
55.5400 819.0000 1.0000
55.5500 842.0000 1.0000
55.5600 840.0000 1.0000
55.5700 803.0000 1.0000
55.5800 784.0000 1.0000
55.5900 804.0000 1.0000
55.6000 823.0000 1.0000
55.6100 795.0000 1.0000
55.6200 796.0000 1.0000
55.6300 735.0000 1.0000
55.6400 776.0000 1.0000
55.6500 774.0000 1.0000
55.6600 749.0000 1.0000
55.6700 767.0000 1.0000
55.6800 719.0000 1.0000
55.6900 732.0000 1.0000
55.7000 711.0000 1.0000
55.7100 737.0000 1.0000
55.7200 712.0000 1.0000
55.7300 729.0000 1.0000
55.7400 742.0000 1.0000
55.7500 757.0000 1.0000
55.7600 763.0000 1.0000
55.7700 739.0000 1.0000
55.7800 706.0000 1.0000
55.7900 702.0000 1.0000
55.8000 696.0000 1.0000
55.8100 725.0000 1.0000
55.8200 715.0000 1.0000
55.8300 700.0000 1.0000
55.8400 693.0000 1.0000
55.8500 693.0000 1.0000
55.8600 687.0000 1.0000
55.8700 688.0000 1.0000
55.8800 684.0000 1.0000
55.8900 657.0000 1.0000
55.9000 709.0000 1.0000
55.9100 689.0000 1.0000
55.9200 664.0000 1.0000
55.9300 700.0000 1.0000
55.9400 716.0000 1.0000
55.9500 724.0000 1.0000
55.9600 708.0000 1.0000
55.9700 719.0000 1.0000
55.9800 691.0000 1.0000
55.9900 679.0000 1.0000
56.0000 678.0000 1.0000
56.0100 708.0000 1.0000
56.0200 661.0000 1.0000
56.0300 715.0000 1.0000
56.0400 699.0000 1.0000
56.0500 651.0000 1.0000
56.0600 706.0000 1.0000
56.0700 683.0000 1.0000
56.0800 650.0000 1.0000
56.0900 649.0000 1.0000
56.1000 698.0000 1.0000
56.1100 681.0000 1.0000
56.1200 640.0000 1.0000
56.1300 662.0000 1.0000
56.1400 643.0000 1.0000
56.1500 634.0000 1.0000
56.1600 674.0000 1.0000
56.1700 679.0000 1.0000
56.1800 680.0000 1.0000
56.1900 688.0000 1.0000
56.2000 674.0000 1.0000
56.2100 684.0000 1.0000
56.2200 657.0000 1.0000
56.2300 669.0000 1.0000
56.2400 663.0000 1.0000
56.2500 696.0000 1.0000
56.2600 666.0000 1.0000
56.2700 699.0000 1.0000
56.2800 693.0000 1.0000
56.2900 650.0000 1.0000
56.3000 677.0000 1.0000
56.3100 687.0000 1.0000
56.3200 695.0000 1.0000
56.3300 683.0000 1.0000
56.3400 663.0000 1.0000
56.3500 665.0000 1.0000
56.3600 642.0000 1.0000
56.3700 681.0000 1.0000
56.3800 649.0000 1.0000
56.3900 645.0000 1.0000
56.4000 688.0000 1.0000
56.4100 682.0000 1.0000
56.4200 649.0000 1.0000
56.4300 662.0000 1.0000
56.4400 664.0000 1.0000
56.4500 700.0000 1.0000
56.4600 633.0000 1.0000
56.4700 664.0000 1.0000
56.4800 659.0000 1.0000
56.4900 640.0000 1.0000
56.5000 643.0000 1.0000
56.5100 661.0000 1.0000
56.5200 673.0000 1.0000
56.5300 677.0000 1.0000
56.5400 637.0000 1.0000
56.5500 638.0000 1.0000
56.5600 640.0000 1.0000
56.5700 684.0000 1.0000
56.5800 689.0000 1.0000
56.5900 707.0000 1.0000
56.6000 697.0000 1.0000
56.6100 664.0000 1.0000
56.6200 672.0000 1.0000
56.6300 649.0000 1.0000
56.6400 614.0000 1.0000
56.6500 687.0000 1.0000
56.6600 681.0000 1.0000
56.6700 712.0000 1.0000
56.6800 682.0000 1.0000
56.6900 652.0000 1.0000
56.7000 676.0000 1.0000
56.7100 681.0000 1.0000
56.7200 711.0000 1.0000
56.7300 666.0000 1.0000
56.7400 640.0000 1.0000
56.7500 675.0000 1.0000
56.7600 653.0000 1.0000
56.7700 643.0000 1.0000
56.7800 674.0000 1.0000
56.7900 697.0000 1.0000
56.8000 654.0000 1.0000
56.8100 684.0000 1.0000
56.8200 648.0000 1.0000
56.8300 611.0000 1.0000
56.8400 680.0000 1.0000
56.8500 651.0000 1.0000
56.8600 676.0000 1.0000
56.8700 670.0000 1.0000
56.8800 633.0000 1.0000
56.8900 667.0000 1.0000
56.9000 666.0000 1.0000
56.9100 658.0000 1.0000
56.9200 664.0000 1.0000
56.9300 675.0000 1.0000
56.9400 644.0000 1.0000
56.9500 681.0000 1.0000
56.9600 700.0000 1.0000
56.9700 656.0000 1.0000
56.9800 644.0000 1.0000
56.9900 646.0000 1.0000
57.0000 692.0000 1.0000
57.0100 709.0000 1.0000
57.0200 682.0000 1.0000
57.0300 644.0000 1.0000
57.0400 674.0000 1.0000
57.0500 608.0000 1.0000
57.0600 704.0000 1.0000
57.0700 689.0000 1.0000
57.0800 694.0000 1.0000
57.0900 661.0000 1.0000
57.1000 689.0000 1.0000
57.1100 662.0000 1.0000
57.1200 685.0000 1.0000
57.1300 716.0000 1.0000
57.1400 691.0000 1.0000
57.1500 659.0000 1.0000
57.1600 678.0000 1.0000
57.1700 656.0000 1.0000
57.1800 720.0000 1.0000
57.1900 663.0000 1.0000
57.2000 680.0000 1.0000
57.2100 672.0000 1.0000
57.2200 641.0000 1.0000
57.2300 712.0000 1.0000
57.2400 657.0000 1.0000
57.2500 689.0000 1.0000
57.2600 711.0000 1.0000
57.2700 670.0000 1.0000
57.2800 707.0000 1.0000
57.2900 679.0000 1.0000
57.3000 680.0000 1.0000
57.3100 641.0000 1.0000
57.3200 686.0000 1.0000
57.3300 611.0000 1.0000
57.3400 698.0000 1.0000
57.3500 712.0000 1.0000
57.3600 659.0000 1.0000
57.3700 676.0000 1.0000
57.3800 654.0000 1.0000
57.3900 728.0000 1.0000
57.4000 663.0000 1.0000
57.4100 666.0000 1.0000
57.4200 675.0000 1.0000
57.4300 674.0000 1.0000
57.4400 651.0000 1.0000
57.4500 639.0000 1.0000
57.4600 670.0000 1.0000
57.4700 662.0000 1.0000
57.4800 652.0000 1.0000
57.4900 655.0000 1.0000
57.5000 648.0000 1.0000
57.5100 699.0000 1.0000
57.5200 676.0000 1.0000
57.5300 646.0000 1.0000
57.5400 660.0000 1.0000
57.5500 642.0000 1.0000
57.5600 650.0000 1.0000
57.5700 650.0000 1.0000
57.5800 654.0000 1.0000
57.5900 641.0000 1.0000
57.6000 622.0000 1.0000
57.6100 649.0000 1.0000
57.6200 668.0000 1.0000
57.6300 671.0000 1.0000
57.6400 639.0000 1.0000
57.6500 658.0000 1.0000
57.6600 640.0000 1.0000
57.6700 687.0000 1.0000
57.6800 713.0000 1.0000
57.6900 667.0000 1.0000
57.7000 706.0000 1.0000
57.7100 642.0000 1.0000
57.7200 661.0000 1.0000
57.7300 633.0000 1.0000
57.7400 657.0000 1.0000
57.7500 648.0000 1.0000
57.7600 604.0000 1.0000
57.7700 653.0000 1.0000
57.7800 638.0000 1.0000
57.7900 666.0000 1.0000
57.8000 619.0000 1.0000
57.8100 657.0000 1.0000
57.8200 672.0000 1.0000
57.8300 654.0000 1.0000
57.8400 605.0000 1.0000
57.8500 694.0000 1.0000
57.8600 677.0000 1.0000
57.8700 696.0000 1.0000
57.8800 651.0000 1.0000
57.8900 639.0000 1.0000
57.9000 672.0000 1.0000
57.9100 680.0000 1.0000
57.9200 674.0000 1.0000
57.9300 653.0000 1.0000
57.9400 656.0000 1.0000
57.9500 638.0000 1.0000
57.9600 653.0000 1.0000
57.9700 695.0000 1.0000
57.9800 703.0000 1.0000
57.9900 675.0000 1.0000
58.0000 682.0000 1.0000
58.0100 675.0000 1.0000
58.0200 687.0000 1.0000
58.0300 665.0000 1.0000
58.0400 680.0000 1.0000
58.0500 669.0000 1.0000
58.0600 699.0000 1.0000
58.0700 647.0000 1.0000
58.0800 716.0000 1.0000
58.0900 663.0000 1.0000
58.1000 728.0000 1.0000
58.1100 643.0000 1.0000
58.1200 633.0000 1.0000
58.1300 626.0000 1.0000
58.1400 701.0000 1.0000
58.1500 686.0000 1.0000
58.1600 677.0000 1.0000
58.1700 715.0000 1.0000
58.1800 649.0000 1.0000
58.1900 650.0000 1.0000
58.2000 683.0000 1.0000
58.2100 702.0000 1.0000
58.2200 694.0000 1.0000
58.2300 683.0000 1.0000
58.2400 647.0000 1.0000
58.2500 679.0000 1.0000
58.2600 655.0000 1.0000
58.2700 717.0000 1.0000
58.2800 658.0000 1.0000
58.2900 697.0000 1.0000
58.3000 676.0000 1.0000
58.3100 699.0000 1.0000
58.3200 708.0000 1.0000
58.3300 679.0000 1.0000
58.3400 712.0000 1.0000
58.3500 702.0000 1.0000
58.3600 649.0000 1.0000
58.3700 660.0000 1.0000
58.3800 646.0000 1.0000
58.3900 641.0000 1.0000
58.4000 654.0000 1.0000
58.4100 681.0000 1.0000
58.4200 632.0000 1.0000
58.4300 662.0000 1.0000
58.4400 702.0000 1.0000
58.4500 694.0000 1.0000
58.4600 697.0000 1.0000
58.4700 682.0000 1.0000
58.4800 654.0000 1.0000
58.4900 704.0000 1.0000
58.5000 681.0000 1.0000
58.5100 644.0000 1.0000
58.5200 651.0000 1.0000
58.5300 629.0000 1.0000
58.5400 651.0000 1.0000
58.5500 663.0000 1.0000
58.5600 655.0000 1.0000
58.5700 647.0000 1.0000
58.5800 650.0000 1.0000
58.5900 658.0000 1.0000
58.6000 674.0000 1.0000
58.6100 635.0000 1.0000
58.6200 641.0000 1.0000
58.6300 643.0000 1.0000
58.6400 700.0000 1.0000
58.6500 664.0000 1.0000
58.6600 659.0000 1.0000
58.6700 651.0000 1.0000
58.6800 635.0000 1.0000
58.6900 648.0000 1.0000
58.7000 632.0000 1.0000
58.7100 652.0000 1.0000
58.7200 680.0000 1.0000
58.7300 668.0000 1.0000
58.7400 709.0000 1.0000
58.7500 698.0000 1.0000
58.7600 654.0000 1.0000
58.7700 652.0000 1.0000
58.7800 684.0000 1.0000
58.7900 654.0000 1.0000
58.8000 635.0000 1.0000
58.8100 632.0000 1.0000
58.8200 625.0000 1.0000
58.8300 642.0000 1.0000
58.8400 664.0000 1.0000
58.8500 675.0000 1.0000
58.8600 692.0000 1.0000
58.8700 625.0000 1.0000
58.8800 625.0000 1.0000
58.8900 660.0000 1.0000
58.9000 637.0000 1.0000
58.9100 626.0000 1.0000
58.9200 665.0000 1.0000
58.9300 632.0000 1.0000
58.9400 650.0000 1.0000
58.9500 691.0000 1.0000
58.9600 694.0000 1.0000
58.9700 625.0000 1.0000
58.9800 656.0000 1.0000
58.9900 621.0000 1.0000
59.0000 645.0000 1.0000
59.0100 651.0000 1.0000
59.0200 636.0000 1.0000
59.0300 689.0000 1.0000
59.0400 631.0000 1.0000
59.0500 628.0000 1.0000
59.0600 667.0000 1.0000
59.0700 659.0000 1.0000
59.0800 644.0000 1.0000
59.0900 637.0000 1.0000
59.1000 703.0000 1.0000
59.1100 687.0000 1.0000
59.1200 640.0000 1.0000
59.1300 649.0000 1.0000
59.1400 702.0000 1.0000
59.1500 677.0000 1.0000
59.1600 680.0000 1.0000
59.1700 672.0000 1.0000
59.1800 668.0000 1.0000
59.1900 675.0000 1.0000
59.2000 703.0000 1.0000
59.2100 663.0000 1.0000
59.2200 677.0000 1.0000
59.2300 695.0000 1.0000
59.2400 696.0000 1.0000
59.2500 678.0000 1.0000
59.2600 657.0000 1.0000
59.2700 659.0000 1.0000
59.2800 691.0000 1.0000
59.2900 682.0000 1.0000
59.3000 625.0000 1.0000
59.3100 686.0000 1.0000
59.3200 660.0000 1.0000
59.3300 717.0000 1.0000
59.3400 655.0000 1.0000
59.3500 685.0000 1.0000
59.3600 661.0000 1.0000
59.3700 655.0000 1.0000
59.3800 672.0000 1.0000
59.3900 683.0000 1.0000
59.4000 668.0000 1.0000
59.4100 658.0000 1.0000
59.4200 637.0000 1.0000
59.4300 662.0000 1.0000
59.4400 643.0000 1.0000
59.4500 654.0000 1.0000
59.4600 660.0000 1.0000
59.4700 661.0000 1.0000
59.4800 652.0000 1.0000
59.4900 659.0000 1.0000
59.5000 659.0000 1.0000
59.5100 662.0000 1.0000
59.5200 661.0000 1.0000
59.5300 678.0000 1.0000
59.5400 642.0000 1.0000
59.5500 593.0000 1.0000
59.5600 629.0000 1.0000
59.5700 664.0000 1.0000
59.5800 672.0000 1.0000
59.5900 643.0000 1.0000
59.6000 616.0000 1.0000
59.6100 678.0000 1.0000
59.6200 660.0000 1.0000
59.6300 640.0000 1.0000
59.6400 619.0000 1.0000
59.6500 646.0000 1.0000
59.6600 661.0000 1.0000
59.6700 660.0000 1.0000
59.6800 680.0000 1.0000
59.6900 649.0000 1.0000
59.7000 641.0000 1.0000
59.7100 641.0000 1.0000
59.7200 666.0000 1.0000
59.7300 700.0000 1.0000
59.7400 648.0000 1.0000
59.7500 669.0000 1.0000
59.7600 669.0000 1.0000
59.7700 668.0000 1.0000
59.7800 670.0000 1.0000
59.7900 681.0000 1.0000
59.8000 641.0000 1.0000
59.8100 651.0000 1.0000
59.8200 633.0000 1.0000
59.8300 625.0000 1.0000
59.8400 630.0000 1.0000
59.8500 668.0000 1.0000
59.8600 646.0000 1.0000
59.8700 688.0000 1.0000
59.8800 623.0000 1.0000
59.8900 598.0000 1.0000
59.9000 681.0000 1.0000
59.9100 710.0000 1.0000
59.9200 651.0000 1.0000
59.9300 693.0000 1.0000
59.9400 663.0000 1.0000
59.9500 614.0000 1.0000
59.9600 687.0000 1.0000
59.9700 618.0000 1.0000
59.9800 706.0000 1.0000
59.9900 701.0000 1.0000
60.0000 677.0000 1.0000
60.0100 666.0000 1.0000
60.0200 661.0000 1.0000
60.0300 641.0000 1.0000
60.0400 663.0000 1.0000
60.0500 659.0000 1.0000
60.0600 652.0000 1.0000
60.0700 686.0000 1.0000
60.0800 632.0000 1.0000
60.0900 638.0000 1.0000
60.1000 654.0000 1.0000
60.1100 676.0000 1.0000
60.1200 648.0000 1.0000
60.1300 657.0000 1.0000
60.1400 677.0000 1.0000
60.1500 691.0000 1.0000
60.1600 632.0000 1.0000
60.1700 689.0000 1.0000
60.1800 635.0000 1.0000
60.1900 693.0000 1.0000
60.2000 632.0000 1.0000
60.2100 616.0000 1.0000
60.2200 641.0000 1.0000
60.2300 665.0000 1.0000
60.2400 641.0000 1.0000
60.2500 648.0000 1.0000
60.2600 657.0000 1.0000
60.2700 653.0000 1.0000
60.2800 651.0000 1.0000
60.2900 626.0000 1.0000
60.3000 629.0000 1.0000
60.3100 679.0000 1.0000
60.3200 677.0000 1.0000
60.3300 636.0000 1.0000
60.3400 660.0000 1.0000
60.3500 634.0000 1.0000
60.3600 681.0000 1.0000
60.3700 682.0000 1.0000
60.3800 670.0000 1.0000
60.3900 624.0000 1.0000
60.4000 645.0000 1.0000
60.4100 662.0000 1.0000
60.4200 656.0000 1.0000
60.4300 614.0000 1.0000
60.4400 662.0000 1.0000
60.4500 685.0000 1.0000
60.4600 661.0000 1.0000
60.4700 636.0000 1.0000
60.4800 694.0000 1.0000
60.4900 646.0000 1.0000
60.5000 655.0000 1.0000
60.5100 645.0000 1.0000
60.5200 674.0000 1.0000
60.5300 631.0000 1.0000
60.5400 634.0000 1.0000
60.5500 688.0000 1.0000
60.5600 639.0000 1.0000
60.5700 630.0000 1.0000
60.5800 620.0000 1.0000
60.5900 668.0000 1.0000
60.6000 653.0000 1.0000
60.6100 663.0000 1.0000
60.6200 666.0000 1.0000
60.6300 643.0000 1.0000
60.6400 612.0000 1.0000
60.6500 664.0000 1.0000
60.6600 694.0000 1.0000
60.6700 688.0000 1.0000
60.6800 673.0000 1.0000
60.6900 642.0000 1.0000
60.7000 672.0000 1.0000
60.7100 687.0000 1.0000
60.7200 677.0000 1.0000
60.7300 678.0000 1.0000
60.7400 647.0000 1.0000
60.7500 692.0000 1.0000
60.7600 657.0000 1.0000
60.7700 648.0000 1.0000
60.7800 612.0000 1.0000
60.7900 596.0000 1.0000
60.8000 657.0000 1.0000
60.8100 654.0000 1.0000
60.8200 654.0000 1.0000
60.8300 609.0000 1.0000
60.8400 633.0000 1.0000
60.8500 671.0000 1.0000
60.8600 643.0000 1.0000
60.8700 695.0000 1.0000
60.8800 674.0000 1.0000
60.8900 645.0000 1.0000
60.9000 679.0000 1.0000
60.9100 692.0000 1.0000
60.9200 663.0000 1.0000
60.9300 644.0000 1.0000
60.9400 632.0000 1.0000
60.9500 644.0000 1.0000
60.9600 658.0000 1.0000
60.9700 687.0000 1.0000
60.9800 664.0000 1.0000
60.9900 662.0000 1.0000
61.0000 668.0000 1.0000
61.0100 622.0000 1.0000
61.0200 646.0000 1.0000
61.0300 671.0000 1.0000
61.0400 625.0000 1.0000
61.0500 663.0000 1.0000
61.0600 631.0000 1.0000
61.0700 635.0000 1.0000
61.0800 607.0000 1.0000
61.0900 670.0000 1.0000
61.1000 688.0000 1.0000
61.1100 684.0000 1.0000
61.1200 673.0000 1.0000
61.1300 657.0000 1.0000
61.1400 662.0000 1.0000
61.1500 652.0000 1.0000
61.1600 651.0000 1.0000
61.1700 650.0000 1.0000
61.1800 694.0000 1.0000
61.1900 692.0000 1.0000
61.2000 655.0000 1.0000
61.2100 677.0000 1.0000
61.2200 666.0000 1.0000
61.2300 664.0000 1.0000
61.2400 641.0000 1.0000
61.2500 698.0000 1.0000
61.2600 635.0000 1.0000
61.2700 662.0000 1.0000
61.2800 636.0000 1.0000
61.2900 653.0000 1.0000
61.3000 687.0000 1.0000
61.3100 668.0000 1.0000
61.3200 653.0000 1.0000
61.3300 690.0000 1.0000
61.3400 660.0000 1.0000
61.3500 655.0000 1.0000
61.3600 673.0000 1.0000
61.3700 647.0000 1.0000
61.3800 699.0000 1.0000
61.3900 628.0000 1.0000
61.4000 656.0000 1.0000
61.4100 635.0000 1.0000
61.4200 694.0000 1.0000
61.4300 654.0000 1.0000
61.4400 663.0000 1.0000
61.4500 681.0000 1.0000
61.4600 648.0000 1.0000
61.4700 690.0000 1.0000
61.4800 698.0000 1.0000
61.4900 640.0000 1.0000
61.5000 670.0000 1.0000
61.5100 674.0000 1.0000
61.5200 686.0000 1.0000
61.5300 700.0000 1.0000
61.5400 668.0000 1.0000
61.5500 669.0000 1.0000
61.5600 639.0000 1.0000
61.5700 661.0000 1.0000
61.5800 670.0000 1.0000
61.5900 670.0000 1.0000
61.6000 699.0000 1.0000
61.6100 722.0000 1.0000
61.6200 694.0000 1.0000
61.6300 713.0000 1.0000
61.6400 682.0000 1.0000
61.6500 722.0000 1.0000
61.6600 708.0000 1.0000
61.6700 674.0000 1.0000
61.6800 693.0000 1.0000
61.6900 746.0000 1.0000
61.7000 687.0000 1.0000
61.7100 663.0000 1.0000
61.7200 695.0000 1.0000
61.7300 632.0000 1.0000
61.7400 676.0000 1.0000
61.7500 721.0000 1.0000
61.7600 666.0000 1.0000
61.7700 656.0000 1.0000
61.7800 648.0000 1.0000
61.7900 704.0000 1.0000
61.8000 700.0000 1.0000
61.8100 731.0000 1.0000
61.8200 740.0000 1.0000
61.8300 724.0000 1.0000
61.8400 720.0000 1.0000
61.8500 741.0000 1.0000
61.8600 706.0000 1.0000
61.8700 772.0000 1.0000
61.8800 768.0000 1.0000
61.8900 751.0000 1.0000
61.9000 731.0000 1.0000
61.9100 742.0000 1.0000
61.9200 719.0000 1.0000
61.9300 739.0000 1.0000
61.9400 767.0000 1.0000
61.9500 771.0000 1.0000
61.9600 745.0000 1.0000
61.9700 749.0000 1.0000
61.9800 833.0000 1.0000
61.9900 836.0000 1.0000
62.0000 819.0000 1.0000
62.0100 804.0000 1.0000
62.0200 781.0000 1.0000
62.0300 848.0000 1.0000
62.0400 900.0000 1.0000
62.0500 923.0000 1.0000
62.0600 883.0000 1.0000
62.0700 917.0000 1.0000
62.0800 972.0000 1.0000
62.0900 957.0000 1.0000
62.1000 992.0000 1.0000
62.1100 1044.0000 1.0000
62.1200 1028.0000 1.0000
62.1300 1056.0000 1.0000
62.1400 1089.0000 1.0000
62.1500 1113.0000 1.0000
62.1600 1199.0000 1.0000
62.1700 1224.0000 1.0000
62.1800 1214.0000 1.0000
62.1900 1237.0000 1.0000
62.2000 1262.0000 1.0000
62.2100 1319.0000 1.0000
62.2200 1375.0000 1.0000
62.2300 1355.0000 1.0000
62.2400 1420.0000 1.0000
62.2500 1480.0000 1.0000
62.2600 1458.0000 1.0000
62.2700 1477.0000 1.0000
62.2800 1450.0000 1.0000
62.2900 1499.0000 1.0000
62.3000 1554.0000 1.0000
62.3100 1530.0000 1.0000
62.3200 1490.0000 1.0000
62.3300 1436.0000 1.0000
62.3400 1484.0000 1.0000
62.3500 1452.0000 1.0000
62.3600 1428.0000 1.0000
62.3700 1431.0000 1.0000
62.3800 1503.0000 1.0000
62.3900 1442.0000 1.0000
62.4000 1444.0000 1.0000
62.4100 1427.0000 1.0000
62.4200 1383.0000 1.0000
62.4300 1356.0000 1.0000
62.4400 1386.0000 1.0000
62.4500 1335.0000 1.0000
62.4600 1245.0000 1.0000
62.4700 1275.0000 1.0000
62.4800 1251.0000 1.0000
62.4900 1277.0000 1.0000
62.5000 1236.0000 1.0000
62.5100 1191.0000 1.0000
62.5200 1244.0000 1.0000
62.5300 1180.0000 1.0000
62.5400 1109.0000 1.0000
62.5500 1108.0000 1.0000
62.5600 1132.0000 1.0000
62.5700 1063.0000 1.0000
62.5800 1021.0000 1.0000
62.5900 1024.0000 1.0000
62.6000 975.0000 1.0000
62.6100 955.0000 1.0000
62.6200 946.0000 1.0000
62.6300 953.0000 1.0000
62.6400 934.0000 1.0000
62.6500 944.0000 1.0000
62.6600 898.0000 1.0000
62.6700 860.0000 1.0000
62.6800 841.0000 1.0000
62.6900 879.0000 1.0000
62.7000 842.0000 1.0000
62.7100 798.0000 1.0000
62.7200 810.0000 1.0000
62.7300 821.0000 1.0000
62.7400 842.0000 1.0000
62.7500 820.0000 1.0000
62.7600 796.0000 1.0000
62.7700 822.0000 1.0000
62.7800 786.0000 1.0000
62.7900 740.0000 1.0000
62.8000 761.0000 1.0000
62.8100 766.0000 1.0000
62.8200 786.0000 1.0000
62.8300 773.0000 1.0000
62.8400 751.0000 1.0000
62.8500 763.0000 1.0000
62.8600 727.0000 1.0000
62.8700 776.0000 1.0000
62.8800 691.0000 1.0000
62.8900 768.0000 1.0000
62.9000 790.0000 1.0000
62.9100 737.0000 1.0000
62.9200 734.0000 1.0000
62.9300 714.0000 1.0000
62.9400 719.0000 1.0000
62.9500 759.0000 1.0000
62.9600 750.0000 1.0000
62.9700 738.0000 1.0000
62.9800 691.0000 1.0000
62.9900 749.0000 1.0000
63.0000 711.0000 1.0000
63.0100 702.0000 1.0000
63.0200 699.0000 1.0000
63.0300 686.0000 1.0000
63.0400 736.0000 1.0000
63.0500 731.0000 1.0000
63.0600 755.0000 1.0000
63.0700 723.0000 1.0000
63.0800 725.0000 1.0000
63.0900 707.0000 1.0000
63.1000 726.0000 1.0000
63.1100 726.0000 1.0000
63.1200 709.0000 1.0000
63.1300 713.0000 1.0000
63.1400 710.0000 1.0000
63.1500 742.0000 1.0000
63.1600 707.0000 1.0000
63.1700 692.0000 1.0000
63.1800 682.0000 1.0000
63.1900 684.0000 1.0000
63.2000 694.0000 1.0000
63.2100 719.0000 1.0000
63.2200 735.0000 1.0000
63.2300 694.0000 1.0000
63.2400 731.0000 1.0000
63.2500 689.0000 1.0000
63.2600 682.0000 1.0000
63.2700 702.0000 1.0000
63.2800 642.0000 1.0000
63.2900 632.0000 1.0000
63.3000 676.0000 1.0000
63.3100 725.0000 1.0000
63.3200 667.0000 1.0000
63.3300 696.0000 1.0000
63.3400 677.0000 1.0000
63.3500 713.0000 1.0000
63.3600 663.0000 1.0000
63.3700 673.0000 1.0000
63.3800 673.0000 1.0000
63.3900 685.0000 1.0000
63.4000 636.0000 1.0000
63.4100 666.0000 1.0000
63.4200 625.0000 1.0000
63.4300 664.0000 1.0000
63.4400 666.0000 1.0000
63.4500 650.0000 1.0000
63.4600 660.0000 1.0000
63.4700 713.0000 1.0000
63.4800 669.0000 1.0000
63.4900 656.0000 1.0000
63.5000 687.0000 1.0000
63.5100 657.0000 1.0000
63.5200 711.0000 1.0000
63.5300 628.0000 1.0000
63.5400 647.0000 1.0000
63.5500 664.0000 1.0000
63.5600 624.0000 1.0000
63.5700 662.0000 1.0000
63.5800 699.0000 1.0000
63.5900 660.0000 1.0000
63.6000 619.0000 1.0000
63.6100 639.0000 1.0000
63.6200 650.0000 1.0000
63.6300 633.0000 1.0000
63.6400 685.0000 1.0000
63.6500 656.0000 1.0000
63.6600 657.0000 1.0000
63.6700 669.0000 1.0000
63.6800 656.0000 1.0000
63.6900 649.0000 1.0000
63.7000 616.0000 1.0000
63.7100 669.0000 1.0000
63.7200 661.0000 1.0000
63.7300 616.0000 1.0000
63.7400 634.0000 1.0000
63.7500 671.0000 1.0000
63.7600 715.0000 1.0000
63.7700 680.0000 1.0000
63.7800 672.0000 1.0000
63.7900 653.0000 1.0000
63.8000 683.0000 1.0000
63.8100 657.0000 1.0000
63.8200 688.0000 1.0000
63.8300 673.0000 1.0000
63.8400 655.0000 1.0000
63.8500 690.0000 1.0000
63.8600 674.0000 1.0000
63.8700 688.0000 1.0000
63.8800 673.0000 1.0000
63.8900 657.0000 1.0000
63.9000 676.0000 1.0000
63.9100 659.0000 1.0000
63.9200 623.0000 1.0000
63.9300 661.0000 1.0000
63.9400 656.0000 1.0000
63.9500 624.0000 1.0000
63.9600 605.0000 1.0000
63.9700 640.0000 1.0000
63.9800 661.0000 1.0000
63.9900 663.0000 1.0000
64.0000 627.0000 1.0000
64.0100 676.0000 1.0000
64.0200 684.0000 1.0000
64.0300 663.0000 1.0000
64.0400 665.0000 1.0000
64.0500 653.0000 1.0000
64.0600 696.0000 1.0000
64.0700 636.0000 1.0000
64.0800 644.0000 1.0000
64.0900 698.0000 1.0000
64.1000 664.0000 1.0000
64.1100 650.0000 1.0000
64.1200 644.0000 1.0000
64.1300 677.0000 1.0000
64.1400 657.0000 1.0000
64.1500 637.0000 1.0000
64.1600 647.0000 1.0000
64.1700 653.0000 1.0000
64.1800 632.0000 1.0000
64.1900 655.0000 1.0000
64.2000 646.0000 1.0000
64.2100 684.0000 1.0000
64.2200 664.0000 1.0000
64.2300 650.0000 1.0000
64.2400 643.0000 1.0000
64.2500 694.0000 1.0000
64.2600 631.0000 1.0000
64.2700 672.0000 1.0000
64.2800 664.0000 1.0000
64.2900 652.0000 1.0000
64.3000 702.0000 1.0000
64.3100 700.0000 1.0000
64.3200 687.0000 1.0000
64.3300 691.0000 1.0000
64.3400 655.0000 1.0000
64.3500 663.0000 1.0000
64.3600 681.0000 1.0000
64.3700 665.0000 1.0000
64.3800 666.0000 1.0000
64.3900 672.0000 1.0000
64.4000 684.0000 1.0000
64.4100 664.0000 1.0000
64.4200 695.0000 1.0000
64.4300 687.0000 1.0000
64.4400 713.0000 1.0000
64.4500 694.0000 1.0000
64.4600 716.0000 1.0000
64.4700 676.0000 1.0000
64.4800 706.0000 1.0000
64.4900 694.0000 1.0000
64.5000 724.0000 1.0000
64.5100 716.0000 1.0000
64.5200 730.0000 1.0000
64.5300 685.0000 1.0000
64.5400 710.0000 1.0000
64.5500 701.0000 1.0000
64.5600 758.0000 1.0000
64.5700 739.0000 1.0000
64.5800 761.0000 1.0000
64.5900 738.0000 1.0000
64.6000 742.0000 1.0000
64.6100 773.0000 1.0000
64.6200 816.0000 1.0000
64.6300 782.0000 1.0000
64.6400 885.0000 1.0000
64.6500 834.0000 1.0000
64.6600 873.0000 1.0000
64.6700 863.0000 1.0000
64.6800 906.0000 1.0000
64.6900 892.0000 1.0000
64.7000 888.0000 1.0000
64.7100 906.0000 1.0000
64.7200 856.0000 1.0000
64.7300 841.0000 1.0000
64.7400 881.0000 1.0000
64.7500 812.0000 1.0000
64.7600 829.0000 1.0000
64.7700 817.0000 1.0000
64.7800 815.0000 1.0000
64.7900 827.0000 1.0000
64.8000 813.0000 1.0000
64.8100 817.0000 1.0000
64.8200 838.0000 1.0000
64.8300 820.0000 1.0000
64.8400 785.0000 1.0000
64.8500 845.0000 1.0000
64.8600 805.0000 1.0000
64.8700 782.0000 1.0000
64.8800 766.0000 1.0000
64.8900 802.0000 1.0000
64.9000 781.0000 1.0000
64.9100 808.0000 1.0000
64.9200 760.0000 1.0000
64.9300 776.0000 1.0000
64.9400 809.0000 1.0000
64.9500 794.0000 1.0000
64.9600 728.0000 1.0000
64.9700 748.0000 1.0000
64.9800 731.0000 1.0000
64.9900 724.0000 1.0000
65.0000 741.0000 1.0000
65.0100 700.0000 1.0000
65.0200 726.0000 1.0000
65.0300 697.0000 1.0000
65.0400 720.0000 1.0000
65.0500 723.0000 1.0000
65.0600 688.0000 1.0000
65.0700 677.0000 1.0000
65.0800 741.0000 1.0000
65.0900 726.0000 1.0000
65.1000 721.0000 1.0000
65.1100 719.0000 1.0000
65.1200 703.0000 1.0000
65.1300 685.0000 1.0000
65.1400 729.0000 1.0000
65.1500 720.0000 1.0000
65.1600 643.0000 1.0000
65.1700 681.0000 1.0000
65.1800 706.0000 1.0000
65.1900 711.0000 1.0000
65.2000 696.0000 1.0000
65.2100 681.0000 1.0000
65.2200 705.0000 1.0000
65.2300 731.0000 1.0000
65.2400 697.0000 1.0000
65.2500 661.0000 1.0000
65.2600 719.0000 1.0000
65.2700 723.0000 1.0000
65.2800 674.0000 1.0000
65.2900 693.0000 1.0000
65.3000 694.0000 1.0000
65.3100 712.0000 1.0000
65.3200 725.0000 1.0000
65.3300 681.0000 1.0000
65.3400 699.0000 1.0000
65.3500 682.0000 1.0000
65.3600 705.0000 1.0000
65.3700 704.0000 1.0000
65.3800 704.0000 1.0000
65.3900 712.0000 1.0000
65.4000 702.0000 1.0000
65.4100 725.0000 1.0000
65.4200 676.0000 1.0000
65.4300 717.0000 1.0000
65.4400 668.0000 1.0000
65.4500 679.0000 1.0000
65.4600 708.0000 1.0000
65.4700 678.0000 1.0000
65.4800 714.0000 1.0000
65.4900 667.0000 1.0000
65.5000 689.0000 1.0000
65.5100 739.0000 1.0000
65.5200 660.0000 1.0000
65.5300 698.0000 1.0000
65.5400 738.0000 1.0000
65.5500 695.0000 1.0000
65.5600 704.0000 1.0000
65.5700 709.0000 1.0000
65.5800 717.0000 1.0000
65.5900 742.0000 1.0000
65.6000 716.0000 1.0000
65.6100 698.0000 1.0000
65.6200 672.0000 1.0000
65.6300 720.0000 1.0000
65.6400 688.0000 1.0000
65.6500 676.0000 1.0000
65.6600 706.0000 1.0000
65.6700 748.0000 1.0000
65.6800 742.0000 1.0000
65.6900 724.0000 1.0000
65.7000 721.0000 1.0000
65.7100 709.0000 1.0000
65.7200 715.0000 1.0000
65.7300 772.0000 1.0000
65.7400 752.0000 1.0000
65.7500 746.0000 1.0000
65.7600 767.0000 1.0000
65.7700 755.0000 1.0000
65.7800 809.0000 1.0000
65.7900 761.0000 1.0000
65.8000 727.0000 1.0000
65.8100 771.0000 1.0000
65.8200 746.0000 1.0000
65.8300 764.0000 1.0000
65.8400 757.0000 1.0000
65.8500 790.0000 1.0000
65.8600 745.0000 1.0000
65.8700 790.0000 1.0000
65.8800 845.0000 1.0000
65.8900 855.0000 1.0000
65.9000 857.0000 1.0000
65.9100 816.0000 1.0000
65.9200 838.0000 1.0000
65.9300 835.0000 1.0000
65.9400 892.0000 1.0000
65.9500 900.0000 1.0000
65.9600 897.0000 1.0000
65.9700 937.0000 1.0000
65.9800 959.0000 1.0000
65.9900 959.0000 1.0000
66.0000 935.0000 1.0000
66.0100 966.0000 1.0000
66.0200 1020.0000 1.0000
66.0300 1088.0000 1.0000
66.0400 1079.0000 1.0000
66.0500 1165.0000 1.0000
66.0600 1148.0000 1.0000
66.0700 1186.0000 1.0000
66.0800 1245.0000 1.0000
66.0900 1329.0000 1.0000
66.1000 1364.0000 1.0000
66.1100 1415.0000 1.0000
66.1200 1449.0000 1.0000
66.1300 1624.0000 1.0000
66.1400 1676.0000 1.0000
66.1500 1636.0000 1.0000
66.1600 1851.0000 1.0000
66.1700 1979.0000 1.0000
66.1800 2086.0000 1.0000
66.1900 2167.0000 1.0000
66.2000 2303.0000 1.0000
66.2100 2347.0000 1.0000
66.2200 2494.0000 1.0000
66.2300 2651.0000 1.0000
66.2400 2670.0000 1.0000
66.2500 2641.0000 1.0000
66.2600 2729.0000 1.0000
66.2700 2764.0000 1.0000
66.2800 2746.0000 1.0000
66.2900 2698.0000 1.0000
66.3000 2651.0000 1.0000
66.3100 2721.0000 1.0000
66.3200 2688.0000 1.0000
66.3300 2596.0000 1.0000
66.3400 2496.0000 1.0000
66.3500 2497.0000 1.0000
66.3600 2448.0000 1.0000
66.3700 2412.0000 1.0000
66.3800 2381.0000 1.0000
66.3900 2374.0000 1.0000
66.4000 2347.0000 1.0000
66.4100 2274.0000 1.0000
66.4200 2286.0000 1.0000
66.4300 2230.0000 1.0000
66.4400 2180.0000 1.0000
66.4500 2181.0000 1.0000
66.4600 2042.0000 1.0000
66.4700 2112.0000 1.0000
66.4800 1957.0000 1.0000
66.4900 1894.0000 1.0000
66.5000 1896.0000 1.0000
66.5100 1753.0000 1.0000
66.5200 1742.0000 1.0000
66.5300 1637.0000 1.0000
66.5400 1545.0000 1.0000
66.5500 1498.0000 1.0000
66.5600 1416.0000 1.0000
66.5700 1371.0000 1.0000
66.5800 1379.0000 1.0000
66.5900 1309.0000 1.0000
66.6000 1269.0000 1.0000
66.6100 1218.0000 1.0000
66.6200 1135.0000 1.0000
66.6300 1101.0000 1.0000
66.6400 1061.0000 1.0000
66.6500 1069.0000 1.0000
66.6600 1043.0000 1.0000
66.6700 993.0000 1.0000
66.6800 1022.0000 1.0000
66.6900 966.0000 1.0000
66.7000 945.0000 1.0000
66.7100 893.0000 1.0000
66.7200 854.0000 1.0000
66.7300 874.0000 1.0000
66.7400 845.0000 1.0000
66.7500 836.0000 1.0000
66.7600 902.0000 1.0000
66.7700 876.0000 1.0000
66.7800 828.0000 1.0000
66.7900 816.0000 1.0000
66.8000 763.0000 1.0000
66.8100 778.0000 1.0000
66.8200 800.0000 1.0000
66.8300 779.0000 1.0000
66.8400 758.0000 1.0000
66.8500 755.0000 1.0000
66.8600 776.0000 1.0000
66.8700 718.0000 1.0000
66.8800 731.0000 1.0000
66.8900 725.0000 1.0000
66.9000 724.0000 1.0000
66.9100 710.0000 1.0000
66.9200 719.0000 1.0000
66.9300 760.0000 1.0000
66.9400 706.0000 1.0000
66.9500 680.0000 1.0000
66.9600 653.0000 1.0000
66.9700 689.0000 1.0000
66.9800 768.0000 1.0000
66.9900 643.0000 1.0000
67.0000 641.0000 1.0000
67.0100 678.0000 1.0000
67.0200 701.0000 1.0000
67.0300 657.0000 1.0000
67.0400 663.0000 1.0000
67.0500 679.0000 1.0000
67.0600 678.0000 1.0000
67.0700 686.0000 1.0000
67.0800 615.0000 1.0000
67.0900 625.0000 1.0000
67.1000 656.0000 1.0000
67.1100 618.0000 1.0000
67.1200 708.0000 1.0000
67.1300 678.0000 1.0000
67.1400 660.0000 1.0000
67.1500 669.0000 1.0000
67.1600 635.0000 1.0000
67.1700 650.0000 1.0000
67.1800 675.0000 1.0000
67.1900 645.0000 1.0000
67.2000 670.0000 1.0000
67.2100 649.0000 1.0000
67.2200 657.0000 1.0000
67.2300 624.0000 1.0000
67.2400 618.0000 1.0000
67.2500 662.0000 1.0000
67.2600 589.0000 1.0000
67.2700 656.0000 1.0000
67.2800 656.0000 1.0000
67.2900 660.0000 1.0000
67.3000 636.0000 1.0000
67.3100 636.0000 1.0000
67.3200 620.0000 1.0000
67.3300 615.0000 1.0000
67.3400 603.0000 1.0000
67.3500 647.0000 1.0000
67.3600 641.0000 1.0000
67.3700 601.0000 1.0000
67.3800 636.0000 1.0000
67.3900 649.0000 1.0000
67.4000 669.0000 1.0000
67.4100 613.0000 1.0000
67.4200 658.0000 1.0000
67.4300 634.0000 1.0000
67.4400 638.0000 1.0000
67.4500 641.0000 1.0000
67.4600 619.0000 1.0000
67.4700 652.0000 1.0000
67.4800 599.0000 1.0000
67.4900 647.0000 1.0000
67.5000 625.0000 1.0000
67.5100 666.0000 1.0000
67.5200 615.0000 1.0000
67.5300 603.0000 1.0000
67.5400 599.0000 1.0000
67.5500 637.0000 1.0000
67.5600 619.0000 1.0000
67.5700 610.0000 1.0000
67.5800 661.0000 1.0000
67.5900 633.0000 1.0000
67.6000 624.0000 1.0000
67.6100 629.0000 1.0000
67.6200 616.0000 1.0000
67.6300 629.0000 1.0000
67.6400 645.0000 1.0000
67.6500 615.0000 1.0000
67.6600 621.0000 1.0000
67.6700 641.0000 1.0000
67.6800 620.0000 1.0000
67.6900 636.0000 1.0000
67.7000 635.0000 1.0000
67.7100 581.0000 1.0000
67.7200 595.0000 1.0000
67.7300 629.0000 1.0000
67.7400 636.0000 1.0000
67.7500 620.0000 1.0000
67.7600 620.0000 1.0000
67.7700 617.0000 1.0000
67.7800 599.0000 1.0000
67.7900 617.0000 1.0000
67.8000 621.0000 1.0000
67.8100 630.0000 1.0000
67.8200 608.0000 1.0000
67.8300 614.0000 1.0000
67.8400 570.0000 1.0000
67.8500 591.0000 1.0000
67.8600 645.0000 1.0000
67.8700 645.0000 1.0000
67.8800 641.0000 1.0000
67.8900 646.0000 1.0000
67.9000 588.0000 1.0000
67.9100 637.0000 1.0000
67.9200 594.0000 1.0000
67.9300 606.0000 1.0000
67.9400 590.0000 1.0000
67.9500 609.0000 1.0000
67.9600 626.0000 1.0000
67.9700 617.0000 1.0000
67.9800 594.0000 1.0000
67.9900 580.0000 1.0000
68.0000 630.0000 1.0000
68.0100 606.0000 1.0000
68.0200 606.0000 1.0000
68.0300 608.0000 1.0000
68.0400 617.0000 1.0000
68.0500 605.0000 1.0000
68.0600 573.0000 1.0000
68.0700 624.0000 1.0000
68.0800 592.0000 1.0000
68.0900 596.0000 1.0000
68.1000 606.0000 1.0000
68.1100 598.0000 1.0000
68.1200 594.0000 1.0000
68.1300 653.0000 1.0000
68.1400 620.0000 1.0000
68.1500 647.0000 1.0000
68.1600 621.0000 1.0000
68.1700 657.0000 1.0000
68.1800 628.0000 1.0000
68.1900 595.0000 1.0000
68.2000 617.0000 1.0000
68.2100 590.0000 1.0000
68.2200 630.0000 1.0000
68.2300 601.0000 1.0000
68.2400 637.0000 1.0000
68.2500 614.0000 1.0000
68.2600 601.0000 1.0000
68.2700 594.0000 1.0000
68.2800 568.0000 1.0000
68.2900 565.0000 1.0000
68.3000 570.0000 1.0000
68.3100 634.0000 1.0000
68.3200 626.0000 1.0000
68.3300 614.0000 1.0000
68.3400 635.0000 1.0000
68.3500 600.0000 1.0000
68.3600 622.0000 1.0000
68.3700 635.0000 1.0000
68.3800 614.0000 1.0000
68.3900 605.0000 1.0000
68.4000 600.0000 1.0000
68.4100 583.0000 1.0000
68.4200 621.0000 1.0000
68.4300 664.0000 1.0000
68.4400 610.0000 1.0000
68.4500 586.0000 1.0000
68.4600 609.0000 1.0000
68.4700 570.0000 1.0000
68.4800 625.0000 1.0000
68.4900 588.0000 1.0000
68.5000 606.0000 1.0000
68.5100 630.0000 1.0000
68.5200 589.0000 1.0000
68.5300 571.0000 1.0000
68.5400 604.0000 1.0000
68.5500 600.0000 1.0000
68.5600 555.0000 1.0000
68.5700 590.0000 1.0000
68.5800 608.0000 1.0000
68.5900 605.0000 1.0000
68.6000 568.0000 1.0000
68.6100 618.0000 1.0000
68.6200 594.0000 1.0000
68.6300 631.0000 1.0000
68.6400 602.0000 1.0000
68.6500 593.0000 1.0000
68.6600 594.0000 1.0000
68.6700 612.0000 1.0000
68.6800 587.0000 1.0000
68.6900 581.0000 1.0000
68.7000 574.0000 1.0000
68.7100 561.0000 1.0000
68.7200 616.0000 1.0000
68.7300 578.0000 1.0000
68.7400 608.0000 1.0000
68.7500 586.0000 1.0000
68.7600 596.0000 1.0000
68.7700 597.0000 1.0000
68.7800 592.0000 1.0000
68.7900 595.0000 1.0000
68.8000 575.0000 1.0000
68.8100 612.0000 1.0000
68.8200 582.0000 1.0000
68.8300 566.0000 1.0000
68.8400 574.0000 1.0000
68.8500 602.0000 1.0000
68.8600 578.0000 1.0000
68.8700 612.0000 1.0000
68.8800 601.0000 1.0000
68.8900 588.0000 1.0000
68.9000 590.0000 1.0000
68.9100 591.0000 1.0000
68.9200 609.0000 1.0000
68.9300 632.0000 1.0000
68.9400 610.0000 1.0000
68.9500 569.0000 1.0000
68.9600 562.0000 1.0000
68.9700 563.0000 1.0000
68.9800 565.0000 1.0000
68.9900 568.0000 1.0000
69.0000 595.0000 1.0000
69.0100 528.0000 1.0000
69.0200 607.0000 1.0000
69.0300 584.0000 1.0000
69.0400 561.0000 1.0000
69.0500 588.0000 1.0000
69.0600 596.0000 1.0000
69.0700 618.0000 1.0000
69.0800 572.0000 1.0000
69.0900 581.0000 1.0000
69.1000 583.0000 1.0000
69.1100 598.0000 1.0000
69.1200 607.0000 1.0000
69.1300 583.0000 1.0000
69.1400 571.0000 1.0000
69.1500 554.0000 1.0000
69.1600 575.0000 1.0000
69.1700 582.0000 1.0000
69.1800 562.0000 1.0000
69.1900 605.0000 1.0000
69.2000 572.0000 1.0000
69.2100 610.0000 1.0000
69.2200 617.0000 1.0000
69.2300 540.0000 1.0000
69.2400 588.0000 1.0000
69.2500 601.0000 1.0000
69.2600 590.0000 1.0000
69.2700 606.0000 1.0000
69.2800 585.0000 1.0000
69.2900 594.0000 1.0000
69.3000 580.0000 1.0000
69.3100 585.0000 1.0000
69.3200 587.0000 1.0000
69.3300 591.0000 1.0000
69.3400 563.0000 1.0000
69.3500 589.0000 1.0000
69.3600 588.0000 1.0000
69.3700 597.0000 1.0000
69.3800 581.0000 1.0000
69.3900 579.0000 1.0000
69.4000 596.0000 1.0000
69.4100 590.0000 1.0000
69.4200 589.0000 1.0000
69.4300 611.0000 1.0000
69.4400 588.0000 1.0000
69.4500 602.0000 1.0000
69.4600 584.0000 1.0000
69.4700 601.0000 1.0000
69.4800 610.0000 1.0000
69.4900 589.0000 1.0000
69.5000 589.0000 1.0000
69.5100 611.0000 1.0000
69.5200 564.0000 1.0000
69.5300 564.0000 1.0000
69.5400 592.0000 1.0000
69.5500 590.0000 1.0000
69.5600 590.0000 1.0000
69.5700 591.0000 1.0000
69.5800 615.0000 1.0000
69.5900 605.0000 1.0000
69.6000 594.0000 1.0000
69.6100 582.0000 1.0000
69.6200 616.0000 1.0000
69.6300 602.0000 1.0000
69.6400 611.0000 1.0000
69.6500 613.0000 1.0000
69.6600 583.0000 1.0000
69.6700 594.0000 1.0000
69.6800 602.0000 1.0000
69.6900 600.0000 1.0000
69.7000 590.0000 1.0000
69.7100 589.0000 1.0000
69.7200 609.0000 1.0000
69.7300 605.0000 1.0000
69.7400 618.0000 1.0000
69.7500 611.0000 1.0000
69.7600 585.0000 1.0000
69.7700 596.0000 1.0000
69.7800 592.0000 1.0000
69.7900 605.0000 1.0000
69.8000 561.0000 1.0000
69.8100 572.0000 1.0000
69.8200 602.0000 1.0000
69.8300 631.0000 1.0000
69.8400 538.0000 1.0000
69.8500 625.0000 1.0000
69.8600 579.0000 1.0000
69.8700 596.0000 1.0000
69.8800 591.0000 1.0000
69.8900 588.0000 1.0000
69.9000 523.0000 1.0000
69.9100 556.0000 1.0000
69.9200 587.0000 1.0000
69.9300 557.0000 1.0000
69.9400 547.0000 1.0000
69.9500 619.0000 1.0000
69.9600 547.0000 1.0000
69.9700 602.0000 1.0000
69.9800 573.0000 1.0000
69.9900 560.0000 1.0000
70.0000 602.0000 1.0000
*RAS_INT_END
*RAS_TEMPERATURE_START
*RAS_TEMPERATURE_END
*RAS_DATA_END
