*RAS_DATA_START
*RAS_HEADER_START
*DISP_FMT_X "%.2f"
*DISP_FMT_Y "%.0f"
*DISP_FULLSCALE "13380.0000000000"
*DISP_LINE_COLOR "255.0000000000"
*DISP_LINE_STYLE "0.0000000000"
*DISP_LINE_WIDTH "0.2500000000"
*DISP_NOTE "測定データ-1"
*DISP_OFFSET_Y "0.0000000000"
*DISP_PEAKSEARCH_UNIT_Y "cps"
*DISP_RANGE_BOTTOM "0.0000000000"
*DISP_RANGE_LEFT "20.0000000000"
*DISP_RANGE_LOGCUTOFF "0.0100000000"
*DISP_RANGE_RIGHT "70.0000000000"
*DISP_RANGE_TOP "13380.0000000000"
*DISP_SCALE_MODE_Y "0.0000000000"
*DISP_TAB_NAME "2θ/θ"
*DISP_TITLE_Y "強度"
*DISP_UNIT_Y "cps"
*DISP_WINDOW_NAME "MSG_MACROENGINE"
*FILE_COMMENT " "
*FILE_MD5 ""
*FILE_MEMO " "
*FILE_OPERATOR "Administrator"
*FILE_SAMPLE " "
*FILE_TYPE "RAS_RAW"
*FILE_USERGROUP "システムマネージャ"
*FILE_VERSION "1.0000000000"
*HW_ATTACHMENT_ID "ATT0025"
*HW_ATTACHMENT_NAME "標準|Standard"
*HW_COUNTER_ID-0 "CUT0025"
*HW_COUNTER_ID-1 "CUT0020"
*HW_COUNTER_ID-2 "CUT0020"
*HW_COUNTER_ID-3 "CSL0021"
*HW_COUNTER_ID-4 "CMC0021"
*HW_COUNTER_NAME-0 "D/teX Ultra|D/teX Ultra"
*HW_COUNTER_NAME-1 "None|None"
*HW_COUNTER_NAME-2 "None|None"
*HW_COUNTER_NAME-3 "BBM|BBM"
*HW_COUNTER_NAME-4 "検出器モノクロメータ|Detector monochromator"
*HW_COUNTER_SELECT_NAME "D/teX Ultra|D/teX Ultra"
*HW_GONIOMETER_ID "GON0023"
*HW_GONIOMETER_NAME "SmartLab|SmartLab"
*HW_GONIOMETER_RADIUS-0 "90.0"
*HW_GONIOMETER_RADIUS-1 "114.0"
*HW_GONIOMETER_RADIUS-2 "190.0"
*HW_GONIOMETER_RADIUS-3 "300.0"
*HW_GONIOMETER_RADIUS-4 "187.0"
*HW_GONIOMETER_RADIUS-5 "300.0"
*HW_GONIOMETER_RADIUS-6 "113.0"
*HW_GONIOMETER_RADIUS-7 "331.0"
*HW_I_OPT_ID-0 "CBO0021"
*HW_I_OPT_ID-1 "ICR0023"
*HW_I_OPT_ID-2 "ISL0021"
*HW_I_OPT_ID-3 "ISO0021"
*HW_I_OPT_ID-4 "IAD0021"
*HW_I_OPT_ID-5 "IPR0001"
*HW_I_OPT_NAME-0 "CBOユニット|CBO unit"
*HW_I_OPT_NAME-1 "標準入射光学ユニット|Standard incident optical unit"
*HW_I_OPT_NAME-2 "標準入射スリットボックス|Standard incident slit box"
*HW_I_OPT_NAME-3 "入射平行スリット|Incident parallel slit"
*HW_I_OPT_NAME-4 "長手制限スリット|Length limiting slit"
*HW_I_OPT_NAME-5 "None|None"
*HW_R_ATTENUATER_AUTOMODE "0"
*HW_R_OPT_ID-0 "RSS0021"
*HW_R_OPT_ID-1 "RCR0023"
*HW_R_OPT_ID-2 "RSO0021"
*HW_R_OPT_ID-3 "RRS0021"
*HW_R_OPT_ID-4 "ATN0021"
*HW_R_OPT_ID-5 "RFL0021"
*HW_R_OPT_ID-6 "RAD0021"
*HW_R_OPT_NAME-0 "標準受光スリットボックス1|Standard receiving slit box # 1"
*HW_R_OPT_NAME-1 "標準受光光学ユニット1|Standard receiving unit # 1"
*HW_R_OPT_NAME-2 "標準受光光学ユニット2|Standard receiving optical unit # 2"
*HW_R_OPT_NAME-3 "標準受光スリットボックス2|Standard receiving slit box # 2"
*HW_R_OPT_NAME-4 "標準アッテネータ|Standard Attenuator"
*HW_R_OPT_NAME-5 "Cu Kβ|Cu K-beta"
*HW_R_OPT_NAME-6 "調整用受光スリット|Alignment receiving slit"
*HW_SAMPLE_HOLDER_ID "SMP0023"
*HW_SAMPLE_HOLDER_NAME "標準Zステージ|Standard Z stage"
*HW_XG_CURRENT_MAX "50"
*HW_XG_CURRENT_MIN "2"
*HW_XG_CURRENT_RESOLUTION "1"
*HW_XG_CURRENT_UNIT "mA"
*HW_XG_FOCUS "1mm x 10mm"
*HW_XG_FOCUS_TYPE "Normal"
*HW_XG_ID ""
*HW_XG_NAME "3kW 封入管(ID:1200)|3kW Sealed tube(ID:1200)"
*HW_XG_TARGET_ATOMIC_NUMBER "29.0000000000"
*HW_XG_TARGET_NAME "Cu"
*HW_XG_TYPE "Hermetic"
*HW_XG_VOLTAGE_MAX "60"
*HW_XG_VOLTAGE_MIN "20"
*HW_XG_VOLTAGE_RESOLUTION "1"
*HW_XG_VOLTAGE_UNIT "kV"
*HW_XG_WATT_MAX "1.500"
*HW_XG_WATT_UNIT "kW"
*HW_XG_WAVE_LENGTH_ALPHA1 "1.540593"
*HW_XG_WAVE_LENGTH_ALPHA2 "1.544414"
*HW_XG_WAVE_LENGTH_BETA "1.392250"
*MEAS_COND_AXIS_NAME-0 "2θ/θ"
*MEAS_COND_AXIS_NAME-1 "2θ"
*MEAS_COND_AXIS_NAME-2 "ω"
*MEAS_COND_AXIS_NAME-3 "Z"
*MEAS_COND_AXIS_NAME-4 "2θ/ω"
*MEAS_COND_AXIS_NAME-5 "θs"
*MEAS_COND_AXIS_NAME-6 "θd"
*MEAS_COND_AXIS_NAME-7 "Ts"
*MEAS_COND_AXIS_NAME-8 "CBO選択スリット"
*MEAS_COND_AXIS_NAME-9 "M"
*MEAS_COND_AXIS_NAME-10 "入射平行スリット"
*MEAS_COND_AXIS_NAME-11 "入射スリット"
*MEAS_COND_AXIS_NAME-12 ""
*MEAS_COND_AXIS_NAME-13 "Zs"
*MEAS_COND_AXIS_NAME-14 "入射光学素子"
*MEAS_COND_AXIS_NAME-15 "長手制限スリット"
*MEAS_COND_AXIS_NAME-16 "センタースリット"
*MEAS_COND_AXIS_NAME-17 "フィルター"
*MEAS_COND_AXIS_NAME-18 "受光スリット1"
*MEAS_COND_AXIS_NAME-19 "受光スリット2"
*MEAS_COND_AXIS_NAME-20 "受光光学素子"
*MEAS_COND_AXIS_NAME-21 "受光平行スリット"
*MEAS_COND_AXIS_NAME-22 "調整用受光スリット"
*MEAS_COND_AXIS_NAME-23 ""
*MEAS_COND_AXIS_NAME-24 ""
*MEAS_COND_AXIS_NAME-25 "Zd"
*MEAS_COND_AXIS_NAME-26 "アッテネータ"
*MEAS_COND_AXIS_NAME-27 "検出器モノクロメータ"
*MEAS_COND_AXIS_NAME-28 "モノクロメータスリット"
*MEAS_COND_AXIS_NAME-29 "プライマリビーム"
*MEAS_COND_AXIS_NAME-30 "PHA"
*MEAS_COND_AXIS_NAME_INTERNAL-0 "TwoThetaTheta"
*MEAS_COND_AXIS_NAME_INTERNAL-1 "TwoTheta"
*MEAS_COND_AXIS_NAME_INTERNAL-2 "Omega"
*MEAS_COND_AXIS_NAME_INTERNAL-3 "Z"
*MEAS_COND_AXIS_NAME_INTERNAL-4 "TwoThetaOmega"
*MEAS_COND_AXIS_NAME_INTERNAL-5 "ThetaS"
*MEAS_COND_AXIS_NAME_INTERNAL-6 "ThetaD"
*MEAS_COND_AXIS_NAME_INTERNAL-7 "Ts"
*MEAS_COND_AXIS_NAME_INTERNAL-8 "CBO"
*MEAS_COND_AXIS_NAME_INTERNAL-9 "CBO-M"
*MEAS_COND_AXIS_NAME_INTERNAL-10 "IncidentSollerSlit"
*MEAS_COND_AXIS_NAME_INTERNAL-11 "IncidentSlitBox"
*MEAS_COND_AXIS_NAME_INTERNAL-12 "IncidentSlitBox-_Axis"
*MEAS_COND_AXIS_NAME_INTERNAL-13 "Zs"
*MEAS_COND_AXIS_NAME_INTERNAL-14 "IncidentMonochromator"
*MEAS_COND_AXIS_NAME_INTERNAL-15 "IncidentAxdSlit"
*MEAS_COND_AXIS_NAME_INTERNAL-16 "CenterSlit"
*MEAS_COND_AXIS_NAME_INTERNAL-17 "Filter"
*MEAS_COND_AXIS_NAME_INTERNAL-18 "ReceivingSlitBox1"
*MEAS_COND_AXIS_NAME_INTERNAL-19 "ReceivingSlitBox2"
*MEAS_COND_AXIS_NAME_INTERNAL-20 "ReceivingOptics"
*MEAS_COND_AXIS_NAME_INTERNAL-21 "ReceivingSollerSlit"
*MEAS_COND_AXIS_NAME_INTERNAL-22 "ReceivingAxdSlit"
*MEAS_COND_AXIS_NAME_INTERNAL-23 "ReceivingSlitBox1-_Axis"
*MEAS_COND_AXIS_NAME_INTERNAL-24 "ReceivingSlitBox2-_Axis"
*MEAS_COND_AXIS_NAME_INTERNAL-25 "ReceivingSlitBox2-Zd"
*MEAS_COND_AXIS_NAME_INTERNAL-26 "Attenuator"
*MEAS_COND_AXIS_NAME_INTERNAL-27 "CounterMonochromator"
*MEAS_COND_AXIS_NAME_INTERNAL-28 "CounterSlit"
*MEAS_COND_AXIS_NAME_INTERNAL-29 "IncidentPrimary"
*MEAS_COND_AXIS_NAME_INTERNAL-30 "PHA"
*MEAS_COND_AXIS_NAME_MAGICNO-0 "83951616.0000000000"
*MEAS_COND_AXIS_NAME_MAGICNO-1 "268632064.0000000000"
*MEAS_COND_AXIS_NAME_MAGICNO-2 "268500992.0000000000"
*MEAS_COND_AXIS_NAME_MAGICNO-3 "285278208.0000000000"
*MEAS_COND_AXIS_NAME_MAGICNO-4 "83951616.0000000000"
*MEAS_COND_AXIS_NAME_MAGICNO-5 "131072.0000000000"
*MEAS_COND_AXIS_NAME_MAGICNO-6 "131072.0000000000"
*MEAS_COND_AXIS_NAME_MAGICNO-7 "318898176.0000000000"
*MEAS_COND_AXIS_NAME_MAGICNO-8 "20971521.0000000000"
*MEAS_COND_AXIS_NAME_MAGICNO-9 "285343744.0000000000"
*MEAS_COND_AXIS_NAME_MAGICNO-10 "20971521.0000000000"
*MEAS_COND_AXIS_NAME_MAGICNO-11 "22020097.0000000000"
*MEAS_COND_AXIS_NAME_MAGICNO-12 "25165824.0000000000"
*MEAS_COND_AXIS_NAME_MAGICNO-13 "318898176.0000000000"
*MEAS_COND_AXIS_NAME_MAGICNO-14 "1.0000000000"
*MEAS_COND_AXIS_NAME_MAGICNO-15 "20971521.0000000000"
*MEAS_COND_AXIS_NAME_MAGICNO-16 "20971521.0000000000"
*MEAS_COND_AXIS_NAME_MAGICNO-17 "20971521.0000000000"
*MEAS_COND_AXIS_NAME_MAGICNO-18 "23068673.0000000000"
*MEAS_COND_AXIS_NAME_MAGICNO-19 "23068673.0000000000"
*MEAS_COND_AXIS_NAME_MAGICNO-20 "20971521.0000000000"
*MEAS_COND_AXIS_NAME_MAGICNO-21 "20971521.0000000000"
*MEAS_COND_AXIS_NAME_MAGICNO-22 "20971521.0000000000"
*MEAS_COND_AXIS_NAME_MAGICNO-23 "25165824.0000000000"
*MEAS_COND_AXIS_NAME_MAGICNO-24 "25165824.0000000000"
*MEAS_COND_AXIS_NAME_MAGICNO-25 "285343744.0000000000"
*MEAS_COND_AXIS_NAME_MAGICNO-26 "17301505.0000000000"
*MEAS_COND_AXIS_NAME_MAGICNO-27 "20971521.0000000000"
*MEAS_COND_AXIS_NAME_MAGICNO-28 "20971521.0000000000"
*MEAS_COND_AXIS_NAME_MAGICNO-29 "20971521.0000000000"
*MEAS_COND_AXIS_NAME_MAGICNO-30 "0.0000000000"
*MEAS_COND_AXIS_OFFSET-0 "-"
*MEAS_COND_AXIS_OFFSET-1 "-0.1081000000"
*MEAS_COND_AXIS_OFFSET-2 "0.3758000000"
*MEAS_COND_AXIS_OFFSET-3 "-"
*MEAS_COND_AXIS_OFFSET-4 "-"
*MEAS_COND_AXIS_OFFSET-5 "0.3758000000"
*MEAS_COND_AXIS_OFFSET-6 "-0.4839000000"
*MEAS_COND_AXIS_OFFSET-7 "-"
*MEAS_COND_AXIS_OFFSET-8 "-"
*MEAS_COND_AXIS_OFFSET-9 "-"
*MEAS_COND_AXIS_OFFSET-10 "-"
*MEAS_COND_AXIS_OFFSET-11 "-"
*MEAS_COND_AXIS_OFFSET-12 "-"
*MEAS_COND_AXIS_OFFSET-13 "-"
*MEAS_COND_AXIS_OFFSET-14 "-"
*MEAS_COND_AXIS_OFFSET-15 "-"
*MEAS_COND_AXIS_OFFSET-16 "-"
*MEAS_COND_AXIS_OFFSET-17 "-"
*MEAS_COND_AXIS_OFFSET-18 "-"
*MEAS_COND_AXIS_OFFSET-19 "-"
*MEAS_COND_AXIS_OFFSET-20 "-"
*MEAS_COND_AXIS_OFFSET-21 "-"
*MEAS_COND_AXIS_OFFSET-22 "-"
*MEAS_COND_AXIS_OFFSET-23 "-"
*MEAS_COND_AXIS_OFFSET-24 "-"
*MEAS_COND_AXIS_OFFSET-25 "-"
*MEAS_COND_AXIS_OFFSET-26 "-"
*MEAS_COND_AXIS_OFFSET-27 "-"
*MEAS_COND_AXIS_OFFSET-28 "-"
*MEAS_COND_AXIS_OFFSET-29 "-"
*MEAS_COND_AXIS_OFFSET-30 "-"
*MEAS_COND_AXIS_POSITION-0 "0.0000000000"
*MEAS_COND_AXIS_POSITION-1 "0.0000000000"
*MEAS_COND_AXIS_POSITION-2 "0.0000000000"
*MEAS_COND_AXIS_POSITION-3 "-0.5500000000"
*MEAS_COND_AXIS_POSITION-4 "0.0000000000"
*MEAS_COND_AXIS_POSITION-5 "0.0000000000"
*MEAS_COND_AXIS_POSITION-6 "0.0000000000"
*MEAS_COND_AXIS_POSITION-7 "-0.4278800000"
*MEAS_COND_AXIS_POSITION-8 "BB"
*MEAS_COND_AXIS_POSITION-9 "0.0000000000"
*MEAS_COND_AXIS_POSITION-10 "Soller_slit_5.0deg"
*MEAS_COND_AXIS_POSITION-11 "2/3deg"
*MEAS_COND_AXIS_POSITION-12 "2.2088000000"
*MEAS_COND_AXIS_POSITION-13 "-0.4140600000"
*MEAS_COND_AXIS_POSITION-14 "0.0000000000"
*MEAS_COND_AXIS_POSITION-15 "10.0mm"
*MEAS_COND_AXIS_POSITION-16 "None"
*MEAS_COND_AXIS_POSITION-17 "Cu_K-beta"
*MEAS_COND_AXIS_POSITION-18 "13.000mm"
*MEAS_COND_AXIS_POSITION-19 "13.000mm"
*MEAS_COND_AXIS_POSITION-20 "No_unit"
*MEAS_COND_AXIS_POSITION-21 "Soller_slit_5.0deg"
*MEAS_COND_AXIS_POSITION-22 "None"
*MEAS_COND_AXIS_POSITION-23 "13.0000000000"
*MEAS_COND_AXIS_POSITION-24 "13.0000000000"
*MEAS_COND_AXIS_POSITION-25 "0.0109400000"
*MEAS_COND_AXIS_POSITION-26 "Open"
*MEAS_COND_AXIS_POSITION-27 "None"
*MEAS_COND_AXIS_POSITION-28 "None"
*MEAS_COND_AXIS_POSITION-29 "None"
*MEAS_COND_AXIS_POSITION-30 "38.0000000000"
*MEAS_COND_AXIS_UNIT-0 "deg"
*MEAS_COND_AXIS_UNIT-1 "deg"
*MEAS_COND_AXIS_UNIT-2 "deg"
*MEAS_COND_AXIS_UNIT-3 "mm"
*MEAS_COND_AXIS_UNIT-4 "deg"
*MEAS_COND_AXIS_UNIT-5 "deg"
*MEAS_COND_AXIS_UNIT-6 "deg"
*MEAS_COND_AXIS_UNIT-7 "mm"
*MEAS_COND_AXIS_UNIT-8 ""
*MEAS_COND_AXIS_UNIT-9 "pulse"
*MEAS_COND_AXIS_UNIT-10 ""
*MEAS_COND_AXIS_UNIT-11 ""
*MEAS_COND_AXIS_UNIT-12 "mm"
*MEAS_COND_AXIS_UNIT-13 "mm"
*MEAS_COND_AXIS_UNIT-14 ""
*MEAS_COND_AXIS_UNIT-15 ""
*MEAS_COND_AXIS_UNIT-16 ""
*MEAS_COND_AXIS_UNIT-17 ""
*MEAS_COND_AXIS_UNIT-18 ""
*MEAS_COND_AXIS_UNIT-19 ""
*MEAS_COND_AXIS_UNIT-20 ""
*MEAS_COND_AXIS_UNIT-21 ""
*MEAS_COND_AXIS_UNIT-22 ""
*MEAS_COND_AXIS_UNIT-23 "mm"
*MEAS_COND_AXIS_UNIT-24 "mm"
*MEAS_COND_AXIS_UNIT-25 "mm"
*MEAS_COND_AXIS_UNIT-26 ""
*MEAS_COND_AXIS_UNIT-27 ""
*MEAS_COND_AXIS_UNIT-28 ""
*MEAS_COND_AXIS_UNIT-29 ""
*MEAS_COND_AXIS_UNIT-30 "div"
*MEAS_COND_COUNTER_CNTLOSS_CORR "0.0000000000"
*MEAS_COND_COUNTER_PHABASE "38.0000000000"
*MEAS_COND_COUNTER_PHAWINDOW "16.0000000000"
*MEAS_COND_COUNTER_PHA_UNIT "div"
*MEAS_COND_COUNTER_TAUDIFF "30.0000000000"
*MEAS_COND_COUNTER_TAUINT "0.0000000000"
*MEAS_COND_IRRADIATION_MODE "OFF"
*MEAS_COND_IRRADIATION_WIDTH ""
*MEAS_COND_OPT_ATTR "集中法"
*MEAS_COND_OPT_NAME "@集中法"
*MEAS_COND_UNSYMMETRIC_MODE "OFF"
*MEAS_COND_XG_CURRENT "30.0000000000"
*MEAS_COND_XG_VOLTAGE "40.0000000000"
*MEAS_COND_XG_WAVE_TYPE "Ka"
*MEAS_DATA_COUNT "5001.0000000000"
*MEAS_SCAN_AXIS_X "2θ/θ"
*MEAS_SCAN_AXIS_X_INTERNAL "TwoThetaTheta"
*MEAS_SCAN_END_TIME "06/30/21 12:25:16"
*MEAS_SCAN_MODE "CONTINUOUS"
*MEAS_SCAN_MONITOR "0"
*MEAS_SCAN_RESOLUTION_X "0.0002"
*MEAS_SCAN_SPEED "1.0"
*MEAS_SCAN_SPEED_UNIT "deg/min"
*MEAS_SCAN_START "20.0000000000"
*MEAS_SCAN_START_TIME "06/30/21 11:32:23"
*MEAS_SCAN_STEP "0.0100000000"
*MEAS_SCAN_STOP "70.0000000000"
*MEAS_SCAN_UNIT_X "deg"
*MEAS_SCAN_UNIT_Y "counts"
*RAS_HEADER_END
*RAS_INT_START
20.0000 1511.0000 1.0000
20.0100 1659.0000 1.0000
20.0200 1651.0000 1.0000
20.0300 1657.0000 1.0000
20.0400 1654.0000 1.0000
20.0500 1641.0000 1.0000
20.0600 1578.0000 1.0000
20.0700 1567.0000 1.0000
20.0800 1609.0000 1.0000
20.0900 1701.0000 1.0000
20.1000 1600.0000 1.0000
20.1100 1602.0000 1.0000
20.1200 1603.0000 1.0000
20.1300 1556.0000 1.0000
20.1400 1585.0000 1.0000
20.1500 1590.0000 1.0000
20.1600 1649.0000 1.0000
20.1700 1613.0000 1.0000
20.1800 1662.0000 1.0000
20.1900 1677.0000 1.0000
20.2000 1631.0000 1.0000
20.2100 1588.0000 1.0000
20.2200 1660.0000 1.0000
20.2300 1638.0000 1.0000
20.2400 1632.0000 1.0000
20.2500 1658.0000 1.0000
20.2600 1651.0000 1.0000
20.2700 1605.0000 1.0000
20.2800 1596.0000 1.0000
20.2900 1634.0000 1.0000
20.3000 1644.0000 1.0000
20.3100 1638.0000 1.0000
20.3200 1596.0000 1.0000
20.3300 1610.0000 1.0000
20.3400 1613.0000 1.0000
20.3500 1578.0000 1.0000
20.3600 1606.0000 1.0000
20.3700 1647.0000 1.0000
20.3800 1567.0000 1.0000
20.3900 1595.0000 1.0000
20.4000 1599.0000 1.0000
20.4100 1668.0000 1.0000
20.4200 1638.0000 1.0000
20.4300 1685.0000 1.0000
20.4400 1626.0000 1.0000
20.4500 1605.0000 1.0000
20.4600 1543.0000 1.0000
20.4700 1642.0000 1.0000
20.4800 1662.0000 1.0000
20.4900 1670.0000 1.0000
20.5000 1629.0000 1.0000
20.5100 1632.0000 1.0000
20.5200 1581.0000 1.0000
20.5300 1579.0000 1.0000
20.5400 1573.0000 1.0000
20.5500 1592.0000 1.0000
20.5600 1675.0000 1.0000
20.5700 1677.0000 1.0000
20.5800 1658.0000 1.0000
20.5900 1627.0000 1.0000
20.6000 1651.0000 1.0000
20.6100 1613.0000 1.0000
20.6200 1588.0000 1.0000
20.6300 1646.0000 1.0000
20.6400 1654.0000 1.0000
20.6500 1610.0000 1.0000
20.6600 1607.0000 1.0000
20.6700 1613.0000 1.0000
20.6800 1639.0000 1.0000
20.6900 1605.0000 1.0000
20.7000 1687.0000 1.0000
20.7100 1642.0000 1.0000
20.7200 1649.0000 1.0000
20.7300 1663.0000 1.0000
20.7400 1612.0000 1.0000
20.7500 1658.0000 1.0000
20.7600 1645.0000 1.0000
20.7700 1691.0000 1.0000
20.7800 1585.0000 1.0000
20.7900 1661.0000 1.0000
20.8000 1661.0000 1.0000
20.8100 1663.0000 1.0000
20.8200 1603.0000 1.0000
20.8300 1631.0000 1.0000
20.8400 1605.0000 1.0000
20.8500 1588.0000 1.0000
20.8600 1593.0000 1.0000
20.8700 1670.0000 1.0000
20.8800 1641.0000 1.0000
20.8900 1602.0000 1.0000
20.9000 1620.0000 1.0000
20.9100 1639.0000 1.0000
20.9200 1613.0000 1.0000
20.9300 1561.0000 1.0000
20.9400 1627.0000 1.0000
20.9500 1669.0000 1.0000
20.9600 1616.0000 1.0000
20.9700 1599.0000 1.0000
20.9800 1574.0000 1.0000
20.9900 1711.0000 1.0000
21.0000 1642.0000 1.0000
21.0100 1636.0000 1.0000
21.0200 1645.0000 1.0000
21.0300 1644.0000 1.0000
21.0400 1592.0000 1.0000
21.0500 1658.0000 1.0000
21.0600 1599.0000 1.0000
21.0700 1545.0000 1.0000
21.0800 1635.0000 1.0000
21.0900 1703.0000 1.0000
21.1000 1603.0000 1.0000
21.1100 1645.0000 1.0000
21.1200 1678.0000 1.0000
21.1300 1661.0000 1.0000
21.1400 1587.0000 1.0000
21.1500 1606.0000 1.0000
21.1600 1654.0000 1.0000
21.1700 1607.0000 1.0000
21.1800 1564.0000 1.0000
21.1900 1606.0000 1.0000
21.2000 1601.0000 1.0000
21.2100 1625.0000 1.0000
21.2200 1669.0000 1.0000
21.2300 1620.0000 1.0000
21.2400 1628.0000 1.0000
21.2500 1608.0000 1.0000
21.2600 1538.0000 1.0000
21.2700 1594.0000 1.0000
21.2800 1664.0000 1.0000
21.2900 1648.0000 1.0000
21.3000 1626.0000 1.0000
21.3100 1611.0000 1.0000
21.3200 1619.0000 1.0000
21.3300 1691.0000 1.0000
21.3400 1616.0000 1.0000
21.3500 1630.0000 1.0000
21.3600 1627.0000 1.0000
21.3700 1625.0000 1.0000
21.3800 1627.0000 1.0000
21.3900 1659.0000 1.0000
21.4000 1658.0000 1.0000
21.4100 1639.0000 1.0000
21.4200 1608.0000 1.0000
21.4300 1620.0000 1.0000
21.4400 1611.0000 1.0000
21.4500 1632.0000 1.0000
21.4600 1594.0000 1.0000
21.4700 1585.0000 1.0000
21.4800 1619.0000 1.0000
21.4900 1665.0000 1.0000
21.5000 1647.0000 1.0000
21.5100 1616.0000 1.0000
21.5200 1717.0000 1.0000
21.5300 1655.0000 1.0000
21.5400 1593.0000 1.0000
21.5500 1614.0000 1.0000
21.5600 1596.0000 1.0000
21.5700 1655.0000 1.0000
21.5800 1630.0000 1.0000
21.5900 1596.0000 1.0000
21.6000 1524.0000 1.0000
21.6100 1616.0000 1.0000
21.6200 1586.0000 1.0000
21.6300 1664.0000 1.0000
21.6400 1636.0000 1.0000
21.6500 1590.0000 1.0000
21.6600 1645.0000 1.0000
21.6700 1609.0000 1.0000
21.6800 1637.0000 1.0000
21.6900 1592.0000 1.0000
21.7000 1624.0000 1.0000
21.7100 1584.0000 1.0000
21.7200 1683.0000 1.0000
21.7300 1652.0000 1.0000
21.7400 1606.0000 1.0000
21.7500 1628.0000 1.0000
21.7600 1587.0000 1.0000
21.7700 1586.0000 1.0000
21.7800 1621.0000 1.0000
21.7900 1646.0000 1.0000
21.8000 1684.0000 1.0000
21.8100 1675.0000 1.0000
21.8200 1672.0000 1.0000
21.8300 1694.0000 1.0000
21.8400 1636.0000 1.0000
21.8500 1655.0000 1.0000
21.8600 1609.0000 1.0000
21.8700 1607.0000 1.0000
21.8800 1576.0000 1.0000
21.8900 1648.0000 1.0000
21.9000 1617.0000 1.0000
21.9100 1571.0000 1.0000
21.9200 1579.0000 1.0000
21.9300 1629.0000 1.0000
21.9400 1654.0000 1.0000
21.9500 1699.0000 1.0000
21.9600 1626.0000 1.0000
21.9700 1641.0000 1.0000
21.9800 1645.0000 1.0000
21.9900 1685.0000 1.0000
22.0000 1664.0000 1.0000
22.0100 1659.0000 1.0000
22.0200 1626.0000 1.0000
22.0300 1672.0000 1.0000
22.0400 1750.0000 1.0000
22.0500 1700.0000 1.0000
22.0600 1606.0000 1.0000
22.0700 1639.0000 1.0000
22.0800 1652.0000 1.0000
22.0900 1605.0000 1.0000
22.1000 1601.0000 1.0000
22.1100 1680.0000 1.0000
22.1200 1660.0000 1.0000
22.1300 1676.0000 1.0000
22.1400 1637.0000 1.0000
22.1500 1660.0000 1.0000
22.1600 1621.0000 1.0000
22.1700 1676.0000 1.0000
22.1800 1628.0000 1.0000
22.1900 1640.0000 1.0000
22.2000 1615.0000 1.0000
22.2100 1651.0000 1.0000
22.2200 1769.0000 1.0000
22.2300 1711.0000 1.0000
22.2400 1737.0000 1.0000
22.2500 1749.0000 1.0000
22.2600 1647.0000 1.0000
22.2700 1601.0000 1.0000
22.2800 1632.0000 1.0000
22.2900 1636.0000 1.0000
22.3000 1630.0000 1.0000
22.3100 1663.0000 1.0000
22.3200 1665.0000 1.0000
22.3300 1620.0000 1.0000
22.3400 1619.0000 1.0000
22.3500 1688.0000 1.0000
22.3600 1666.0000 1.0000
22.3700 1707.0000 1.0000
22.3800 1671.0000 1.0000
22.3900 1655.0000 1.0000
22.4000 1596.0000 1.0000
22.4100 1734.0000 1.0000
22.4200 1643.0000 1.0000
22.4300 1705.0000 1.0000
22.4400 1740.0000 1.0000
22.4500 1624.0000 1.0000
22.4600 1637.0000 1.0000
22.4700 1662.0000 1.0000
22.4800 1631.0000 1.0000
22.4900 1693.0000 1.0000
22.5000 1686.0000 1.0000
22.5100 1657.0000 1.0000
22.5200 1657.0000 1.0000
22.5300 1609.0000 1.0000
22.5400 1665.0000 1.0000
22.5500 1746.0000 1.0000
22.5600 1629.0000 1.0000
22.5700 1606.0000 1.0000
22.5800 1659.0000 1.0000
22.5900 1665.0000 1.0000
22.6000 1631.0000 1.0000
22.6100 1600.0000 1.0000
22.6200 1641.0000 1.0000
22.6300 1572.0000 1.0000
22.6400 1634.0000 1.0000
22.6500 1687.0000 1.0000
22.6600 1675.0000 1.0000
22.6700 1574.0000 1.0000
22.6800 1638.0000 1.0000
22.6900 1706.0000 1.0000
22.7000 1705.0000 1.0000
22.7100 1694.0000 1.0000
22.7200 1720.0000 1.0000
22.7300 1734.0000 1.0000
22.7400 1700.0000 1.0000
22.7500 1732.0000 1.0000
22.7600 1646.0000 1.0000
22.7700 1692.0000 1.0000
22.7800 1675.0000 1.0000
22.7900 1731.0000 1.0000
22.8000 1673.0000 1.0000
22.8100 1639.0000 1.0000
22.8200 1688.0000 1.0000
22.8300 1669.0000 1.0000
22.8400 1693.0000 1.0000
22.8500 1692.0000 1.0000
22.8600 1634.0000 1.0000
22.8700 1632.0000 1.0000
22.8800 1703.0000 1.0000
22.8900 1695.0000 1.0000
22.9000 1665.0000 1.0000
22.9100 1663.0000 1.0000
22.9200 1686.0000 1.0000
22.9300 1726.0000 1.0000
22.9400 1639.0000 1.0000
22.9500 1637.0000 1.0000
22.9600 1682.0000 1.0000
22.9700 1668.0000 1.0000
22.9800 1682.0000 1.0000
22.9900 1668.0000 1.0000
23.0000 1692.0000 1.0000
23.0100 1709.0000 1.0000
23.0200 1710.0000 1.0000
23.0300 1729.0000 1.0000
23.0400 1752.0000 1.0000
23.0500 1695.0000 1.0000
23.0600 1687.0000 1.0000
23.0700 1720.0000 1.0000
23.0800 1702.0000 1.0000
23.0900 1737.0000 1.0000
23.1000 1693.0000 1.0000
23.1100 1677.0000 1.0000
23.1200 1613.0000 1.0000
23.1300 1642.0000 1.0000
23.1400 1662.0000 1.0000
23.1500 1689.0000 1.0000
23.1600 1617.0000 1.0000
23.1700 1704.0000 1.0000
23.1800 1674.0000 1.0000
23.1900 1676.0000 1.0000
23.2000 1738.0000 1.0000
23.2100 1676.0000 1.0000
23.2200 1708.0000 1.0000
23.2300 1641.0000 1.0000
23.2400 1695.0000 1.0000
23.2500 1696.0000 1.0000
23.2600 1632.0000 1.0000
23.2700 1684.0000 1.0000
23.2800 1689.0000 1.0000
23.2900 1649.0000 1.0000
23.3000 1648.0000 1.0000
23.3100 1677.0000 1.0000
23.3200 1664.0000 1.0000
23.3300 1670.0000 1.0000
23.3400 1674.0000 1.0000
23.3500 1668.0000 1.0000
23.3600 1660.0000 1.0000
23.3700 1611.0000 1.0000
23.3800 1637.0000 1.0000
23.3900 1724.0000 1.0000
23.4000 1749.0000 1.0000
23.4100 1732.0000 1.0000
23.4200 1641.0000 1.0000
23.4300 1674.0000 1.0000
23.4400 1718.0000 1.0000
23.4500 1686.0000 1.0000
23.4600 1674.0000 1.0000
23.4700 1735.0000 1.0000
23.4800 1682.0000 1.0000
23.4900 1656.0000 1.0000
23.5000 1627.0000 1.0000
23.5100 1637.0000 1.0000
23.5200 1646.0000 1.0000
23.5300 1752.0000 1.0000
23.5400 1705.0000 1.0000
23.5500 1652.0000 1.0000
23.5600 1639.0000 1.0000
23.5700 1668.0000 1.0000
23.5800 1681.0000 1.0000
23.5900 1651.0000 1.0000
23.6000 1710.0000 1.0000
23.6100 1720.0000 1.0000
23.6200 1651.0000 1.0000
23.6300 1678.0000 1.0000
23.6400 1682.0000 1.0000
23.6500 1703.0000 1.0000
23.6600 1650.0000 1.0000
23.6700 1747.0000 1.0000
23.6800 1687.0000 1.0000
23.6900 1702.0000 1.0000
23.7000 1689.0000 1.0000
23.7100 1724.0000 1.0000
23.7200 1673.0000 1.0000
23.7300 1695.0000 1.0000
23.7400 1711.0000 1.0000
23.7500 1738.0000 1.0000
23.7600 1680.0000 1.0000
23.7700 1704.0000 1.0000
23.7800 1683.0000 1.0000
23.7900 1698.0000 1.0000
23.8000 1669.0000 1.0000
23.8100 1674.0000 1.0000
23.8200 1691.0000 1.0000
23.8300 1675.0000 1.0000
23.8400 1638.0000 1.0000
23.8500 1693.0000 1.0000
23.8600 1753.0000 1.0000
23.8700 1709.0000 1.0000
23.8800 1690.0000 1.0000
23.8900 1733.0000 1.0000
23.9000 1704.0000 1.0000
23.9100 1666.0000 1.0000
23.9200 1733.0000 1.0000
23.9300 1688.0000 1.0000
23.9400 1710.0000 1.0000
23.9500 1730.0000 1.0000
23.9600 1755.0000 1.0000
23.9700 1707.0000 1.0000
23.9800 1623.0000 1.0000
23.9900 1666.0000 1.0000
24.0000 1700.0000 1.0000
24.0100 1704.0000 1.0000
24.0200 1716.0000 1.0000
24.0300 1733.0000 1.0000
24.0400 1701.0000 1.0000
24.0500 1644.0000 1.0000
24.0600 1720.0000 1.0000
24.0700 1648.0000 1.0000
24.0800 1659.0000 1.0000
24.0900 1646.0000 1.0000
24.1000 1674.0000 1.0000
24.1100 1712.0000 1.0000
24.1200 1678.0000 1.0000
24.1300 1677.0000 1.0000
24.1400 1731.0000 1.0000
24.1500 1732.0000 1.0000
24.1600 1678.0000 1.0000
24.1700 1735.0000 1.0000
24.1800 1767.0000 1.0000
24.1900 1674.0000 1.0000
24.2000 1640.0000 1.0000
24.2100 1699.0000 1.0000
24.2200 1733.0000 1.0000
24.2300 1734.0000 1.0000
24.2400 1745.0000 1.0000
24.2500 1674.0000 1.0000
24.2600 1643.0000 1.0000
24.2700 1697.0000 1.0000
24.2800 1732.0000 1.0000
24.2900 1685.0000 1.0000
24.3000 1729.0000 1.0000
24.3100 1710.0000 1.0000
24.3200 1718.0000 1.0000
24.3300 1611.0000 1.0000
24.3400 1646.0000 1.0000
24.3500 1678.0000 1.0000
24.3600 1713.0000 1.0000
24.3700 1706.0000 1.0000
24.3800 1781.0000 1.0000
24.3900 1726.0000 1.0000
24.4000 1765.0000 1.0000
24.4100 1641.0000 1.0000
24.4200 1698.0000 1.0000
24.4300 1720.0000 1.0000
24.4400 1746.0000 1.0000
24.4500 1698.0000 1.0000
24.4600 1745.0000 1.0000
24.4700 1645.0000 1.0000
24.4800 1655.0000 1.0000
24.4900 1660.0000 1.0000
24.5000 1700.0000 1.0000
24.5100 1663.0000 1.0000
24.5200 1667.0000 1.0000
24.5300 1647.0000 1.0000
24.5400 1688.0000 1.0000
24.5500 1679.0000 1.0000
24.5600 1783.0000 1.0000
24.5700 1753.0000 1.0000
24.5800 1750.0000 1.0000
24.5900 1696.0000 1.0000
24.6000 1729.0000 1.0000
24.6100 1787.0000 1.0000
24.6200 1730.0000 1.0000
24.6300 1739.0000 1.0000
24.6400 1752.0000 1.0000
24.6500 1734.0000 1.0000
24.6600 1671.0000 1.0000
24.6700 1725.0000 1.0000
24.6800 1765.0000 1.0000
24.6900 1739.0000 1.0000
24.7000 1767.0000 1.0000
24.7100 1715.0000 1.0000
24.7200 1705.0000 1.0000
24.7300 1727.0000 1.0000
24.7400 1785.0000 1.0000
24.7500 1755.0000 1.0000
24.7600 1675.0000 1.0000
24.7700 1754.0000 1.0000
24.7800 1757.0000 1.0000
24.7900 1766.0000 1.0000
24.8000 1686.0000 1.0000
24.8100 1765.0000 1.0000
24.8200 1760.0000 1.0000
24.8300 1678.0000 1.0000
24.8400 1697.0000 1.0000
24.8500 1782.0000 1.0000
24.8600 1789.0000 1.0000
24.8700 1746.0000 1.0000
24.8800 1767.0000 1.0000
24.8900 1776.0000 1.0000
24.9000 1802.0000 1.0000
24.9100 1852.0000 1.0000
24.9200 1796.0000 1.0000
24.9300 1838.0000 1.0000
24.9400 1790.0000 1.0000
24.9500 1812.0000 1.0000
24.9600 1770.0000 1.0000
24.9700 1752.0000 1.0000
24.9800 1771.0000 1.0000
24.9900 1818.0000 1.0000
25.0000 1762.0000 1.0000
25.0100 1788.0000 1.0000
25.0200 1811.0000 1.0000
25.0300 1802.0000 1.0000
25.0400 1740.0000 1.0000
25.0500 1748.0000 1.0000
25.0600 1803.0000 1.0000
25.0700 1790.0000 1.0000
25.0800 1819.0000 1.0000
25.0900 1704.0000 1.0000
25.1000 1781.0000 1.0000
25.1100 1742.0000 1.0000
25.1200 1781.0000 1.0000
25.1300 1734.0000 1.0000
25.1400 1779.0000 1.0000
25.1500 1700.0000 1.0000
25.1600 1716.0000 1.0000
25.1700 1744.0000 1.0000
25.1800 1814.0000 1.0000
25.1900 1831.0000 1.0000
25.2000 1743.0000 1.0000
25.2100 1778.0000 1.0000
25.2200 1759.0000 1.0000
25.2300 1767.0000 1.0000
25.2400 1803.0000 1.0000
25.2500 1714.0000 1.0000
25.2600 1780.0000 1.0000
25.2700 1778.0000 1.0000
25.2800 1805.0000 1.0000
25.2900 1751.0000 1.0000
25.3000 1692.0000 1.0000
25.3100 1669.0000 1.0000
25.3200 1699.0000 1.0000
25.3300 1797.0000 1.0000
25.3400 1741.0000 1.0000
25.3500 1770.0000 1.0000
25.3600 1736.0000 1.0000
25.3700 1833.0000 1.0000
25.3800 1832.0000 1.0000
25.3900 1771.0000 1.0000
25.4000 1732.0000 1.0000
25.4100 1769.0000 1.0000
25.4200 1725.0000 1.0000
25.4300 1715.0000 1.0000
25.4400 1725.0000 1.0000
25.4500 1756.0000 1.0000
25.4600 1753.0000 1.0000
25.4700 1726.0000 1.0000
25.4800 1730.0000 1.0000
25.4900 1753.0000 1.0000
25.5000 1730.0000 1.0000
25.5100 1794.0000 1.0000
25.5200 1800.0000 1.0000
25.5300 1765.0000 1.0000
25.5400 1708.0000 1.0000
25.5500 1685.0000 1.0000
25.5600 1718.0000 1.0000
25.5700 1735.0000 1.0000
25.5800 1718.0000 1.0000
25.5900 1714.0000 1.0000
25.6000 1739.0000 1.0000
25.6100 1789.0000 1.0000
25.6200 1739.0000 1.0000
25.6300 1732.0000 1.0000
25.6400 1750.0000 1.0000
25.6500 1784.0000 1.0000
25.6600 1731.0000 1.0000
25.6700 1726.0000 1.0000
25.6800 1773.0000 1.0000
25.6900 1746.0000 1.0000
25.7000 1701.0000 1.0000
25.7100 1693.0000 1.0000
25.7200 1749.0000 1.0000
25.7300 1723.0000 1.0000
25.7400 1701.0000 1.0000
25.7500 1745.0000 1.0000
25.7600 1739.0000 1.0000
25.7700 1747.0000 1.0000
25.7800 1746.0000 1.0000
25.7900 1657.0000 1.0000
25.8000 1675.0000 1.0000
25.8100 1781.0000 1.0000
25.8200 1792.0000 1.0000
25.8300 1770.0000 1.0000
25.8400 1764.0000 1.0000
25.8500 1738.0000 1.0000
25.8600 1785.0000 1.0000
25.8700 1698.0000 1.0000
25.8800 1684.0000 1.0000
25.8900 1729.0000 1.0000
25.9000 1751.0000 1.0000
25.9100 1738.0000 1.0000
25.9200 1749.0000 1.0000
25.9300 1792.0000 1.0000
25.9400 1718.0000 1.0000
25.9500 1694.0000 1.0000
25.9600 1755.0000 1.0000
25.9700 1765.0000 1.0000
25.9800 1708.0000 1.0000
25.9900 1722.0000 1.0000
26.0000 1761.0000 1.0000
26.0100 1709.0000 1.0000
26.0200 1767.0000 1.0000
26.0300 1752.0000 1.0000
26.0400 1777.0000 1.0000
26.0500 1770.0000 1.0000
26.0600 1743.0000 1.0000
26.0700 1700.0000 1.0000
26.0800 1715.0000 1.0000
26.0900 1810.0000 1.0000
26.1000 1801.0000 1.0000
26.1100 1775.0000 1.0000
26.1200 1804.0000 1.0000
26.1300 1736.0000 1.0000
26.1400 1787.0000 1.0000
26.1500 1771.0000 1.0000
26.1600 1743.0000 1.0000
26.1700 1765.0000 1.0000
26.1800 1713.0000 1.0000
26.1900 1757.0000 1.0000
26.2000 1782.0000 1.0000
26.2100 1733.0000 1.0000
26.2200 1705.0000 1.0000
26.2300 1705.0000 1.0000
26.2400 1807.0000 1.0000
26.2500 1758.0000 1.0000
26.2600 1808.0000 1.0000
26.2700 1777.0000 1.0000
26.2800 1728.0000 1.0000
26.2900 1773.0000 1.0000
26.3000 1783.0000 1.0000
26.3100 1756.0000 1.0000
26.3200 1816.0000 1.0000
26.3300 1805.0000 1.0000
26.3400 1779.0000 1.0000
26.3500 1759.0000 1.0000
26.3600 1785.0000 1.0000
26.3700 1698.0000 1.0000
26.3800 1741.0000 1.0000
26.3900 1787.0000 1.0000
26.4000 1807.0000 1.0000
26.4100 1796.0000 1.0000
26.4200 1888.0000 1.0000
26.4300 1777.0000 1.0000
26.4400 1858.0000 1.0000
26.4500 1740.0000 1.0000
26.4600 1818.0000 1.0000
26.4700 1846.0000 1.0000
26.4800 1827.0000 1.0000
26.4900 1802.0000 1.0000
26.5000 1863.0000 1.0000
26.5100 1838.0000 1.0000
26.5200 1831.0000 1.0000
26.5300 1798.0000 1.0000
26.5400 1922.0000 1.0000
26.5500 1851.0000 1.0000
26.5600 1856.0000 1.0000
26.5700 1815.0000 1.0000
26.5800 1810.0000 1.0000
26.5900 1791.0000 1.0000
26.6000 1832.0000 1.0000
26.6100 1852.0000 1.0000
26.6200 1827.0000 1.0000
26.6300 1818.0000 1.0000
26.6400 1868.0000 1.0000
26.6500 1912.0000 1.0000
26.6600 1878.0000 1.0000
26.6700 1851.0000 1.0000
26.6800 1877.0000 1.0000
26.6900 1963.0000 1.0000
26.7000 1860.0000 1.0000
26.7100 1832.0000 1.0000
26.7200 1896.0000 1.0000
26.7300 1884.0000 1.0000
26.7400 1824.0000 1.0000
26.7500 1952.0000 1.0000
26.7600 1842.0000 1.0000
26.7700 1874.0000 1.0000
26.7800 1942.0000 1.0000
26.7900 1945.0000 1.0000
26.8000 1955.0000 1.0000
26.8100 1970.0000 1.0000
26.8200 1944.0000 1.0000
26.8300 2016.0000 1.0000
26.8400 1913.0000 1.0000
26.8500 1924.0000 1.0000
26.8600 2003.0000 1.0000
26.8700 1968.0000 1.0000
26.8800 2036.0000 1.0000
26.8900 2122.0000 1.0000
26.9000 2069.0000 1.0000
26.9100 1990.0000 1.0000
26.9200 2067.0000 1.0000
26.9300 2074.0000 1.0000
26.9400 2135.0000 1.0000
26.9500 2165.0000 1.0000
26.9600 2164.0000 1.0000
26.9700 2269.0000 1.0000
26.9800 2253.0000 1.0000
26.9900 2269.0000 1.0000
27.0000 2399.0000 1.0000
27.0100 2413.0000 1.0000
27.0200 2409.0000 1.0000
27.0300 2396.0000 1.0000
27.0400 2585.0000 1.0000
27.0500 2578.0000 1.0000
27.0600 2702.0000 1.0000
27.0700 2716.0000 1.0000
27.0800 2725.0000 1.0000
27.0900 2861.0000 1.0000
27.1000 3047.0000 1.0000
27.1100 3131.0000 1.0000
27.1200 3240.0000 1.0000
27.1300 3408.0000 1.0000
27.1400 3477.0000 1.0000
27.1500 3626.0000 1.0000
27.1600 3814.0000 1.0000
27.1700 3991.0000 1.0000
27.1800 4244.0000 1.0000
27.1900 4477.0000 1.0000
27.2000 4709.0000 1.0000
27.2100 4969.0000 1.0000
27.2200 5307.0000 1.0000
27.2300 5502.0000 1.0000
27.2400 5825.0000 1.0000
27.2500 6067.0000 1.0000
27.2600 6193.0000 1.0000
27.2700 6313.0000 1.0000
27.2800 6456.0000 1.0000
27.2900 6607.0000 1.0000
27.3000 6636.0000 1.0000
27.3100 6690.0000 1.0000
27.3200 6539.0000 1.0000
27.3300 6481.0000 1.0000
27.3400 6358.0000 1.0000
27.3500 6123.0000 1.0000
27.3600 5990.0000 1.0000
27.3700 5774.0000 1.0000
27.3800 5277.0000 1.0000
27.3900 5028.0000 1.0000
27.4000 4866.0000 1.0000
27.4100 4470.0000 1.0000
27.4200 4353.0000 1.0000
27.4300 4196.0000 1.0000
27.4400 3928.0000 1.0000
27.4500 3760.0000 1.0000
27.4600 3670.0000 1.0000
27.4700 3360.0000 1.0000
27.4800 3210.0000 1.0000
27.4900 3094.0000 1.0000
27.5000 3043.0000 1.0000
27.5100 2941.0000 1.0000
27.5200 2846.0000 1.0000
27.5300 2786.0000 1.0000
27.5400 2667.0000 1.0000
27.5500 2634.0000 1.0000
27.5600 2613.0000 1.0000
27.5700 2506.0000 1.0000
27.5800 2403.0000 1.0000
27.5900 2375.0000 1.0000
27.6000 2373.0000 1.0000
27.6100 2312.0000 1.0000
27.6200 2214.0000 1.0000
27.6300 2143.0000 1.0000
27.6400 2265.0000 1.0000
27.6500 2155.0000 1.0000
27.6600 2132.0000 1.0000
27.6700 2086.0000 1.0000
27.6800 2058.0000 1.0000
27.6900 2053.0000 1.0000
27.7000 2031.0000 1.0000
27.7100 2130.0000 1.0000
27.7200 2030.0000 1.0000
27.7300 1939.0000 1.0000
27.7400 1903.0000 1.0000
27.7500 1932.0000 1.0000
27.7600 1971.0000 1.0000
27.7700 1912.0000 1.0000
27.7800 1954.0000 1.0000
27.7900 1954.0000 1.0000
27.8000 1902.0000 1.0000
27.8100 1939.0000 1.0000
27.8200 1911.0000 1.0000
27.8300 1807.0000 1.0000
27.8400 1868.0000 1.0000
27.8500 1875.0000 1.0000
27.8600 1824.0000 1.0000
27.8700 1835.0000 1.0000
27.8800 1867.0000 1.0000
27.8900 1798.0000 1.0000
27.9000 1806.0000 1.0000
27.9100 1867.0000 1.0000
27.9200 1791.0000 1.0000
27.9300 1775.0000 1.0000
27.9400 1782.0000 1.0000
27.9500 1781.0000 1.0000
27.9600 1869.0000 1.0000
27.9700 1809.0000 1.0000
27.9800 1823.0000 1.0000
27.9900 1763.0000 1.0000
28.0000 1809.0000 1.0000
28.0100 1757.0000 1.0000
28.0200 1732.0000 1.0000
28.0300 1764.0000 1.0000
28.0400 1752.0000 1.0000
28.0500 1708.0000 1.0000
28.0600 1781.0000 1.0000
28.0700 1794.0000 1.0000
28.0800 1758.0000 1.0000
28.0900 1731.0000 1.0000
28.1000 1713.0000 1.0000
28.1100 1720.0000 1.0000
28.1200 1675.0000 1.0000
28.1300 1678.0000 1.0000
28.1400 1753.0000 1.0000
28.1500 1682.0000 1.0000
28.1600 1684.0000 1.0000
28.1700 1669.0000 1.0000
28.1800 1681.0000 1.0000
28.1900 1656.0000 1.0000
28.2000 1736.0000 1.0000
28.2100 1677.0000 1.0000
28.2200 1673.0000 1.0000
28.2300 1639.0000 1.0000
28.2400 1705.0000 1.0000
28.2500 1706.0000 1.0000
28.2600 1672.0000 1.0000
28.2700 1701.0000 1.0000
28.2800 1705.0000 1.0000
28.2900 1650.0000 1.0000
28.3000 1635.0000 1.0000
28.3100 1626.0000 1.0000
28.3200 1678.0000 1.0000
28.3300 1647.0000 1.0000
28.3400 1714.0000 1.0000
28.3500 1712.0000 1.0000
28.3600 1646.0000 1.0000
28.3700 1669.0000 1.0000
28.3800 1726.0000 1.0000
28.3900 1709.0000 1.0000
28.4000 1658.0000 1.0000
28.4100 1663.0000 1.0000
28.4200 1690.0000 1.0000
28.4300 1678.0000 1.0000
28.4400 1660.0000 1.0000
28.4500 1615.0000 1.0000
28.4600 1664.0000 1.0000
28.4700 1697.0000 1.0000
28.4800 1613.0000 1.0000
28.4900 1661.0000 1.0000
28.5000 1711.0000 1.0000
28.5100 1698.0000 1.0000
28.5200 1650.0000 1.0000
28.5300 1630.0000 1.0000
28.5400 1706.0000 1.0000
28.5500 1653.0000 1.0000
28.5600 1623.0000 1.0000
28.5700 1686.0000 1.0000
28.5800 1587.0000 1.0000
28.5900 1633.0000 1.0000
28.6000 1651.0000 1.0000
28.6100 1599.0000 1.0000
28.6200 1656.0000 1.0000
28.6300 1628.0000 1.0000
28.6400 1600.0000 1.0000
28.6500 1665.0000 1.0000
28.6600 1706.0000 1.0000
28.6700 1645.0000 1.0000
28.6800 1601.0000 1.0000
28.6900 1663.0000 1.0000
28.7000 1632.0000 1.0000
28.7100 1639.0000 1.0000
28.7200 1676.0000 1.0000
28.7300 1663.0000 1.0000
28.7400 1710.0000 1.0000
28.7500 1724.0000 1.0000
28.7600 1636.0000 1.0000
28.7700 1670.0000 1.0000
28.7800 1616.0000 1.0000
28.7900 1611.0000 1.0000
28.8000 1638.0000 1.0000
28.8100 1636.0000 1.0000
28.8200 1662.0000 1.0000
28.8300 1619.0000 1.0000
28.8400 1646.0000 1.0000
28.8500 1593.0000 1.0000
28.8600 1577.0000 1.0000
28.8700 1608.0000 1.0000
28.8800 1660.0000 1.0000
28.8900 1605.0000 1.0000
28.9000 1597.0000 1.0000
28.9100 1590.0000 1.0000
28.9200 1605.0000 1.0000
28.9300 1669.0000 1.0000
28.9400 1670.0000 1.0000
28.9500 1597.0000 1.0000
28.9600 1623.0000 1.0000
28.9700 1626.0000 1.0000
28.9800 1644.0000 1.0000
28.9900 1631.0000 1.0000
29.0000 1646.0000 1.0000
29.0100 1593.0000 1.0000
29.0200 1620.0000 1.0000
29.0300 1600.0000 1.0000
29.0400 1600.0000 1.0000
29.0500 1633.0000 1.0000
29.0600 1633.0000 1.0000
29.0700 1627.0000 1.0000
29.0800 1617.0000 1.0000
29.0900 1727.0000 1.0000
29.1000 1633.0000 1.0000
29.1100 1657.0000 1.0000
29.1200 1615.0000 1.0000
29.1300 1715.0000 1.0000
29.1400 1653.0000 1.0000
29.1500 1611.0000 1.0000
29.1600 1641.0000 1.0000
29.1700 1640.0000 1.0000
29.1800 1712.0000 1.0000
29.1900 1702.0000 1.0000
29.2000 1698.0000 1.0000
29.2100 1717.0000 1.0000
29.2200 1703.0000 1.0000
29.2300 1608.0000 1.0000
29.2400 1609.0000 1.0000
29.2500 1730.0000 1.0000
29.2600 1628.0000 1.0000
29.2700 1580.0000 1.0000
29.2800 1607.0000 1.0000
29.2900 1624.0000 1.0000
29.3000 1629.0000 1.0000
29.3100 1569.0000 1.0000
29.3200 1514.0000 1.0000
29.3300 1561.0000 1.0000
29.3400 1561.0000 1.0000
29.3500 1616.0000 1.0000
29.3600 1569.0000 1.0000
29.3700 1559.0000 1.0000
29.3800 1624.0000 1.0000
29.3900 1502.0000 1.0000
29.4000 1577.0000 1.0000
29.4100 1638.0000 1.0000
29.4200 1596.0000 1.0000
29.4300 1579.0000 1.0000
29.4400 1552.0000 1.0000
29.4500 1534.0000 1.0000
29.4600 1545.0000 1.0000
29.4700 1565.0000 1.0000
29.4800 1536.0000 1.0000
29.4900 1626.0000 1.0000
29.5000 1624.0000 1.0000
29.5100 1579.0000 1.0000
29.5200 1564.0000 1.0000
29.5300 1479.0000 1.0000
29.5400 1567.0000 1.0000
29.5500 1613.0000 1.0000
29.5600 1551.0000 1.0000
29.5700 1622.0000 1.0000
29.5800 1594.0000 1.0000
29.5900 1585.0000 1.0000
29.6000 1560.0000 1.0000
29.6100 1540.0000 1.0000
29.6200 1536.0000 1.0000
29.6300 1570.0000 1.0000
29.6400 1540.0000 1.0000
29.6500 1576.0000 1.0000
29.6600 1516.0000 1.0000
29.6700 1490.0000 1.0000
29.6800 1526.0000 1.0000
29.6900 1567.0000 1.0000
29.7000 1563.0000 1.0000
29.7100 1464.0000 1.0000
29.7200 1559.0000 1.0000
29.7300 1563.0000 1.0000
29.7400 1571.0000 1.0000
29.7500 1545.0000 1.0000
29.7600 1549.0000 1.0000
29.7700 1562.0000 1.0000
29.7800 1507.0000 1.0000
29.7900 1536.0000 1.0000
29.8000 1589.0000 1.0000
29.8100 1587.0000 1.0000
29.8200 1598.0000 1.0000
29.8300 1545.0000 1.0000
29.8400 1550.0000 1.0000
29.8500 1501.0000 1.0000
29.8600 1578.0000 1.0000
29.8700 1515.0000 1.0000
29.8800 1590.0000 1.0000
29.8900 1537.0000 1.0000
29.9000 1491.0000 1.0000
29.9100 1541.0000 1.0000
29.9200 1536.0000 1.0000
29.9300 1560.0000 1.0000
29.9400 1556.0000 1.0000
29.9500 1531.0000 1.0000
29.9600 1487.0000 1.0000
29.9700 1496.0000 1.0000
29.9800 1582.0000 1.0000
29.9900 1542.0000 1.0000
30.0000 1534.0000 1.0000
30.0100 1573.0000 1.0000
30.0200 1598.0000 1.0000
30.0300 1538.0000 1.0000
30.0400 1526.0000 1.0000
30.0500 1551.0000 1.0000
30.0600 1504.0000 1.0000
30.0700 1493.0000 1.0000
30.0800 1532.0000 1.0000
30.0900 1594.0000 1.0000
30.1000 1548.0000 1.0000
30.1100 1508.0000 1.0000
30.1200 1506.0000 1.0000
30.1300 1568.0000 1.0000
30.1400 1526.0000 1.0000
30.1500 1531.0000 1.0000
30.1600 1510.0000 1.0000
30.1700 1523.0000 1.0000
30.1800 1529.0000 1.0000
30.1900 1520.0000 1.0000
30.2000 1528.0000 1.0000
30.2100 1520.0000 1.0000
30.2200 1495.0000 1.0000
30.2300 1505.0000 1.0000
30.2400 1551.0000 1.0000
30.2500 1481.0000 1.0000
30.2600 1448.0000 1.0000
30.2700 1493.0000 1.0000
30.2800 1478.0000 1.0000
30.2900 1543.0000 1.0000
30.3000 1526.0000 1.0000
30.3100 1504.0000 1.0000
30.3200 1582.0000 1.0000
30.3300 1474.0000 1.0000
30.3400 1426.0000 1.0000
30.3500 1504.0000 1.0000
30.3600 1520.0000 1.0000
30.3700 1438.0000 1.0000
30.3800 1429.0000 1.0000
30.3900 1456.0000 1.0000
30.4000 1499.0000 1.0000
30.4100 1531.0000 1.0000
30.4200 1506.0000 1.0000
30.4300 1521.0000 1.0000
30.4400 1534.0000 1.0000
30.4500 1528.0000 1.0000
30.4600 1469.0000 1.0000
30.4700 1482.0000 1.0000
30.4800 1516.0000 1.0000
30.4900 1488.0000 1.0000
30.5000 1483.0000 1.0000
30.5100 1486.0000 1.0000
30.5200 1500.0000 1.0000
30.5300 1491.0000 1.0000
30.5400 1490.0000 1.0000
30.5500 1497.0000 1.0000
30.5600 1485.0000 1.0000
30.5700 1496.0000 1.0000
30.5800 1482.0000 1.0000
30.5900 1481.0000 1.0000
30.6000 1488.0000 1.0000
30.6100 1480.0000 1.0000
30.6200 1538.0000 1.0000
30.6300 1467.0000 1.0000
30.6400 1451.0000 1.0000
30.6500 1468.0000 1.0000
30.6600 1506.0000 1.0000
30.6700 1499.0000 1.0000
30.6800 1474.0000 1.0000
30.6900 1519.0000 1.0000
30.7000 1501.0000 1.0000
30.7100 1511.0000 1.0000
30.7200 1489.0000 1.0000
30.7300 1561.0000 1.0000
30.7400 1538.0000 1.0000
30.7500 1454.0000 1.0000
30.7600 1426.0000 1.0000
30.7700 1394.0000 1.0000
30.7800 1476.0000 1.0000
30.7900 1493.0000 1.0000
30.8000 1544.0000 1.0000
30.8100 1475.0000 1.0000
30.8200 1423.0000 1.0000
30.8300 1462.0000 1.0000
30.8400 1531.0000 1.0000
30.8500 1466.0000 1.0000
30.8600 1470.0000 1.0000
30.8700 1485.0000 1.0000
30.8800 1480.0000 1.0000
30.8900 1485.0000 1.0000
30.9000 1486.0000 1.0000
30.9100 1501.0000 1.0000
30.9200 1412.0000 1.0000
30.9300 1470.0000 1.0000
30.9400 1478.0000 1.0000
30.9500 1466.0000 1.0000
30.9600 1514.0000 1.0000
30.9700 1475.0000 1.0000
30.9800 1500.0000 1.0000
30.9900 1502.0000 1.0000
31.0000 1505.0000 1.0000
31.0100 1488.0000 1.0000
31.0200 1406.0000 1.0000
31.0300 1450.0000 1.0000
31.0400 1502.0000 1.0000
31.0500 1496.0000 1.0000
31.0600 1422.0000 1.0000
31.0700 1462.0000 1.0000
31.0800 1467.0000 1.0000
31.0900 1543.0000 1.0000
31.1000 1518.0000 1.0000
31.1100 1482.0000 1.0000
31.1200 1464.0000 1.0000
31.1300 1479.0000 1.0000
31.1400 1498.0000 1.0000
31.1500 1485.0000 1.0000
31.1600 1453.0000 1.0000
31.1700 1473.0000 1.0000
31.1800 1462.0000 1.0000
31.1900 1475.0000 1.0000
31.2000 1486.0000 1.0000
31.2100 1498.0000 1.0000
31.2200 1469.0000 1.0000
31.2300 1510.0000 1.0000
31.2400 1412.0000 1.0000
31.2500 1417.0000 1.0000
31.2600 1446.0000 1.0000
31.2700 1459.0000 1.0000
31.2800 1461.0000 1.0000
31.2900 1487.0000 1.0000
31.3000 1461.0000 1.0000
31.3100 1401.0000 1.0000
31.3200 1458.0000 1.0000
31.3300 1450.0000 1.0000
31.3400 1463.0000 1.0000
31.3500 1414.0000 1.0000
31.3600 1424.0000 1.0000
31.3700 1475.0000 1.0000
31.3800 1419.0000 1.0000
31.3900 1490.0000 1.0000
31.4000 1411.0000 1.0000
31.4100 1512.0000 1.0000
31.4200 1437.0000 1.0000
31.4300 1449.0000 1.0000
31.4400 1481.0000 1.0000
31.4500 1426.0000 1.0000
31.4600 1402.0000 1.0000
31.4700 1436.0000 1.0000
31.4800 1443.0000 1.0000
31.4900 1433.0000 1.0000
31.5000 1504.0000 1.0000
31.5100 1509.0000 1.0000
31.5200 1440.0000 1.0000
31.5300 1440.0000 1.0000
31.5400 1419.0000 1.0000
31.5500 1436.0000 1.0000
31.5600 1407.0000 1.0000
31.5700 1422.0000 1.0000
31.5800 1380.0000 1.0000
31.5900 1429.0000 1.0000
31.6000 1395.0000 1.0000
31.6100 1372.0000 1.0000
31.6200 1436.0000 1.0000
31.6300 1472.0000 1.0000
31.6400 1411.0000 1.0000
31.6500 1444.0000 1.0000
31.6600 1451.0000 1.0000
31.6700 1426.0000 1.0000
31.6800 1379.0000 1.0000
31.6900 1477.0000 1.0000
31.7000 1419.0000 1.0000
31.7100 1430.0000 1.0000
31.7200 1480.0000 1.0000
31.7300 1435.0000 1.0000
31.7400 1438.0000 1.0000
31.7500 1460.0000 1.0000
31.7600 1441.0000 1.0000
31.7700 1459.0000 1.0000
31.7800 1434.0000 1.0000
31.7900 1396.0000 1.0000
31.8000 1467.0000 1.0000
31.8100 1489.0000 1.0000
31.8200 1480.0000 1.0000
31.8300 1449.0000 1.0000
31.8400 1446.0000 1.0000
31.8500 1383.0000 1.0000
31.8600 1385.0000 1.0000
31.8700 1443.0000 1.0000
31.8800 1467.0000 1.0000
31.8900 1421.0000 1.0000
31.9000 1484.0000 1.0000
31.9100 1419.0000 1.0000
31.9200 1503.0000 1.0000
31.9300 1434.0000 1.0000
31.9400 1488.0000 1.0000
31.9500 1388.0000 1.0000
31.9600 1382.0000 1.0000
31.9700 1441.0000 1.0000
31.9800 1491.0000 1.0000
31.9900 1464.0000 1.0000
32.0000 1376.0000 1.0000
32.0100 1441.0000 1.0000
32.0200 1486.0000 1.0000
32.0300 1453.0000 1.0000
32.0400 1518.0000 1.0000
32.0500 1519.0000 1.0000
32.0600 1442.0000 1.0000
32.0700 1428.0000 1.0000
32.0800 1535.0000 1.0000
32.0900 1392.0000 1.0000
32.1000 1435.0000 1.0000
32.1100 1392.0000 1.0000
32.1200 1385.0000 1.0000
32.1300 1410.0000 1.0000
32.1400 1415.0000 1.0000
32.1500 1429.0000 1.0000
32.1600 1419.0000 1.0000
32.1700 1384.0000 1.0000
32.1800 1462.0000 1.0000
32.1900 1408.0000 1.0000
32.2000 1419.0000 1.0000
32.2100 1401.0000 1.0000
32.2200 1419.0000 1.0000
32.2300 1385.0000 1.0000
32.2400 1449.0000 1.0000
32.2500 1501.0000 1.0000
32.2600 1444.0000 1.0000
32.2700 1421.0000 1.0000
32.2800 1448.0000 1.0000
32.2900 1413.0000 1.0000
32.3000 1387.0000 1.0000
32.3100 1375.0000 1.0000
32.3200 1402.0000 1.0000
32.3300 1398.0000 1.0000
32.3400 1369.0000 1.0000
32.3500 1339.0000 1.0000
32.3600 1373.0000 1.0000
32.3700 1402.0000 1.0000
32.3800 1380.0000 1.0000
32.3900 1389.0000 1.0000
32.4000 1436.0000 1.0000
32.4100 1398.0000 1.0000
32.4200 1407.0000 1.0000
32.4300 1447.0000 1.0000
32.4400 1471.0000 1.0000
32.4500 1400.0000 1.0000
32.4600 1359.0000 1.0000
32.4700 1359.0000 1.0000
32.4800 1369.0000 1.0000
32.4900 1339.0000 1.0000
32.5000 1421.0000 1.0000
32.5100 1392.0000 1.0000
32.5200 1409.0000 1.0000
32.5300 1355.0000 1.0000
32.5400 1354.0000 1.0000
32.5500 1446.0000 1.0000
32.5600 1439.0000 1.0000
32.5700 1432.0000 1.0000
32.5800 1411.0000 1.0000
32.5900 1418.0000 1.0000
32.6000 1435.0000 1.0000
32.6100 1372.0000 1.0000
32.6200 1423.0000 1.0000
32.6300 1391.0000 1.0000
32.6400 1436.0000 1.0000
32.6500 1376.0000 1.0000
32.6600 1362.0000 1.0000
32.6700 1344.0000 1.0000
32.6800 1418.0000 1.0000
32.6900 1452.0000 1.0000
32.7000 1357.0000 1.0000
32.7100 1371.0000 1.0000
32.7200 1412.0000 1.0000
32.7300 1385.0000 1.0000
32.7400 1381.0000 1.0000
32.7500 1358.0000 1.0000
32.7600 1437.0000 1.0000
32.7700 1427.0000 1.0000
32.7800 1371.0000 1.0000
32.7900 1355.0000 1.0000
32.8000 1333.0000 1.0000
32.8100 1362.0000 1.0000
32.8200 1358.0000 1.0000
32.8300 1391.0000 1.0000
32.8400 1379.0000 1.0000
32.8500 1378.0000 1.0000
32.8600 1382.0000 1.0000
32.8700 1393.0000 1.0000
32.8800 1417.0000 1.0000
32.8900 1404.0000 1.0000
32.9000 1379.0000 1.0000
32.9100 1403.0000 1.0000
32.9200 1403.0000 1.0000
32.9300 1379.0000 1.0000
32.9400 1383.0000 1.0000
32.9500 1371.0000 1.0000
32.9600 1427.0000 1.0000
32.9700 1380.0000 1.0000
32.9800 1339.0000 1.0000
32.9900 1353.0000 1.0000
33.0000 1331.0000 1.0000
33.0100 1356.0000 1.0000
33.0200 1374.0000 1.0000
33.0300 1354.0000 1.0000
33.0400 1337.0000 1.0000
33.0500 1361.0000 1.0000
33.0600 1331.0000 1.0000
33.0700 1394.0000 1.0000
33.0800 1387.0000 1.0000
33.0900 1402.0000 1.0000
33.1000 1350.0000 1.0000
33.1100 1364.0000 1.0000
33.1200 1318.0000 1.0000
33.1300 1409.0000 1.0000
33.1400 1383.0000 1.0000
33.1500 1320.0000 1.0000
33.1600 1350.0000 1.0000
33.1700 1352.0000 1.0000
33.1800 1371.0000 1.0000
33.1900 1317.0000 1.0000
33.2000 1358.0000 1.0000
33.2100 1383.0000 1.0000
33.2200 1311.0000 1.0000
33.2300 1342.0000 1.0000
33.2400 1351.0000 1.0000
33.2500 1335.0000 1.0000
33.2600 1361.0000 1.0000
33.2700 1392.0000 1.0000
33.2800 1369.0000 1.0000
33.2900 1328.0000 1.0000
33.3000 1353.0000 1.0000
33.3100 1395.0000 1.0000
33.3200 1356.0000 1.0000
33.3300 1331.0000 1.0000
33.3400 1382.0000 1.0000
33.3500 1335.0000 1.0000
33.3600 1395.0000 1.0000
33.3700 1336.0000 1.0000
33.3800 1351.0000 1.0000
33.3900 1386.0000 1.0000
33.4000 1315.0000 1.0000
33.4100 1302.0000 1.0000
33.4200 1405.0000 1.0000
33.4300 1350.0000 1.0000
33.4400 1330.0000 1.0000
33.4500 1372.0000 1.0000
33.4600 1341.0000 1.0000
33.4700 1294.0000 1.0000
33.4800 1324.0000 1.0000
33.4900 1293.0000 1.0000
33.5000 1300.0000 1.0000
33.5100 1311.0000 1.0000
33.5200 1367.0000 1.0000
33.5300 1342.0000 1.0000
33.5400 1320.0000 1.0000
33.5500 1299.0000 1.0000
33.5600 1399.0000 1.0000
33.5700 1369.0000 1.0000
33.5800 1385.0000 1.0000
33.5900 1387.0000 1.0000
33.6000 1371.0000 1.0000
33.6100 1354.0000 1.0000
33.6200 1356.0000 1.0000
33.6300 1369.0000 1.0000
33.6400 1349.0000 1.0000
33.6500 1413.0000 1.0000
33.6600 1349.0000 1.0000
33.6700 1396.0000 1.0000
33.6800 1442.0000 1.0000
33.6900 1381.0000 1.0000
33.7000 1455.0000 1.0000
33.7100 1319.0000 1.0000
33.7200 1418.0000 1.0000
33.7300 1371.0000 1.0000
33.7400 1345.0000 1.0000
33.7500 1361.0000 1.0000
33.7600 1322.0000 1.0000
33.7700 1386.0000 1.0000
33.7800 1457.0000 1.0000
33.7900 1425.0000 1.0000
33.8000 1422.0000 1.0000
33.8100 1431.0000 1.0000
33.8200 1463.0000 1.0000
33.8300 1491.0000 1.0000
33.8400 1432.0000 1.0000
33.8500 1422.0000 1.0000
33.8600 1536.0000 1.0000
33.8700 1485.0000 1.0000
33.8800 1484.0000 1.0000
33.8900 1527.0000 1.0000
33.9000 1597.0000 1.0000
33.9100 1606.0000 1.0000
33.9200 1546.0000 1.0000
33.9300 1608.0000 1.0000
33.9400 1541.0000 1.0000
33.9500 1566.0000 1.0000
33.9600 1622.0000 1.0000
33.9700 1528.0000 1.0000
33.9800 1509.0000 1.0000
33.9900 1505.0000 1.0000
34.0000 1556.0000 1.0000
34.0100 1572.0000 1.0000
34.0200 1536.0000 1.0000
34.0300 1500.0000 1.0000
34.0400 1550.0000 1.0000
34.0500 1517.0000 1.0000
34.0600 1567.0000 1.0000
34.0700 1509.0000 1.0000
34.0800 1457.0000 1.0000
34.0900 1471.0000 1.0000
34.1000 1463.0000 1.0000
34.1100 1486.0000 1.0000
34.1200 1426.0000 1.0000
34.1300 1500.0000 1.0000
34.1400 1566.0000 1.0000
34.1500 1519.0000 1.0000
34.1600 1544.0000 1.0000
34.1700 1529.0000 1.0000
34.1800 1580.0000 1.0000
34.1900 1561.0000 1.0000
34.2000 1606.0000 1.0000
34.2100 1650.0000 1.0000
34.2200 1628.0000 1.0000
34.2300 1668.0000 1.0000
34.2400 1755.0000 1.0000
34.2500 1672.0000 1.0000
34.2600 1706.0000 1.0000
34.2700 1771.0000 1.0000
34.2800 1881.0000 1.0000
34.2900 1821.0000 1.0000
34.3000 1805.0000 1.0000
34.3100 1878.0000 1.0000
34.3200 1961.0000 1.0000
34.3300 1968.0000 1.0000
34.3400 2044.0000 1.0000
34.3500 2153.0000 1.0000
34.3600 2180.0000 1.0000
34.3700 2264.0000 1.0000
34.3800 2342.0000 1.0000
34.3900 2553.0000 1.0000
34.4000 2563.0000 1.0000
34.4100 2698.0000 1.0000
34.4200 2795.0000 1.0000
34.4300 2932.0000 1.0000
34.4400 3085.0000 1.0000
34.4500 3179.0000 1.0000
34.4600 3209.0000 1.0000
34.4700 3301.0000 1.0000
34.4800 3438.0000 1.0000
34.4900 3344.0000 1.0000
34.5000 3326.0000 1.0000
34.5100 3371.0000 1.0000
34.5200 3274.0000 1.0000
34.5300 3197.0000 1.0000
34.5400 3157.0000 1.0000
34.5500 3093.0000 1.0000
34.5600 3113.0000 1.0000
34.5700 2992.0000 1.0000
34.5800 2999.0000 1.0000
34.5900 2776.0000 1.0000
34.6000 2670.0000 1.0000
34.6100 2543.0000 1.0000
34.6200 2445.0000 1.0000
34.6300 2367.0000 1.0000
34.6400 2251.0000 1.0000
34.6500 2218.0000 1.0000
34.6600 2131.0000 1.0000
34.6700 2047.0000 1.0000
34.6800 2067.0000 1.0000
34.6900 2006.0000 1.0000
34.7000 1936.0000 1.0000
34.7100 1902.0000 1.0000
34.7200 1854.0000 1.0000
34.7300 1820.0000 1.0000
34.7400 1771.0000 1.0000
34.7500 1721.0000 1.0000
34.7600 1673.0000 1.0000
34.7700 1655.0000 1.0000
34.7800 1633.0000 1.0000
34.7900 1622.0000 1.0000
34.8000 1591.0000 1.0000
34.8100 1588.0000 1.0000
34.8200 1604.0000 1.0000
34.8300 1530.0000 1.0000
34.8400 1540.0000 1.0000
34.8500 1486.0000 1.0000
34.8600 1479.0000 1.0000
34.8700 1449.0000 1.0000
34.8800 1431.0000 1.0000
34.8900 1380.0000 1.0000
34.9000 1380.0000 1.0000
34.9100 1425.0000 1.0000
34.9200 1438.0000 1.0000
34.9300 1399.0000 1.0000
34.9400 1382.0000 1.0000
34.9500 1379.0000 1.0000
34.9600 1320.0000 1.0000
34.9700 1323.0000 1.0000
34.9800 1314.0000 1.0000
34.9900 1353.0000 1.0000
35.0000 1360.0000 1.0000
35.0100 1308.0000 1.0000
35.0200 1292.0000 1.0000
35.0300 1286.0000 1.0000
35.0400 1314.0000 1.0000
35.0500 1318.0000 1.0000
35.0600 1342.0000 1.0000
35.0700 1326.0000 1.0000
35.0800 1277.0000 1.0000
35.0900 1263.0000 1.0000
35.1000 1257.0000 1.0000
35.1100 1309.0000 1.0000
35.1200 1336.0000 1.0000
35.1300 1268.0000 1.0000
35.1400 1281.0000 1.0000
35.1500 1245.0000 1.0000
35.1600 1279.0000 1.0000
35.1700 1261.0000 1.0000
35.1800 1291.0000 1.0000
35.1900 1284.0000 1.0000
35.2000 1286.0000 1.0000
35.2100 1217.0000 1.0000
35.2200 1243.0000 1.0000
35.2300 1234.0000 1.0000
35.2400 1278.0000 1.0000
35.2500 1250.0000 1.0000
35.2600 1248.0000 1.0000
35.2700 1249.0000 1.0000
35.2800 1209.0000 1.0000
35.2900 1234.0000 1.0000
35.3000 1201.0000 1.0000
35.3100 1247.0000 1.0000
35.3200 1167.0000 1.0000
35.3300 1236.0000 1.0000
35.3400 1206.0000 1.0000
35.3500 1286.0000 1.0000
35.3600 1252.0000 1.0000
35.3700 1228.0000 1.0000
35.3800 1269.0000 1.0000
35.3900 1224.0000 1.0000
35.4000 1234.0000 1.0000
35.4100 1256.0000 1.0000
35.4200 1222.0000 1.0000
35.4300 1199.0000 1.0000
35.4400 1154.0000 1.0000
35.4500 1139.0000 1.0000
35.4600 1199.0000 1.0000
35.4700 1243.0000 1.0000
35.4800 1216.0000 1.0000
35.4900 1199.0000 1.0000
35.5000 1224.0000 1.0000
35.5100 1148.0000 1.0000
35.5200 1195.0000 1.0000
35.5300 1237.0000 1.0000
35.5400 1217.0000 1.0000
35.5500 1167.0000 1.0000
35.5600 1206.0000 1.0000
35.5700 1215.0000 1.0000
35.5800 1210.0000 1.0000
35.5900 1112.0000 1.0000
35.6000 1179.0000 1.0000
35.6100 1181.0000 1.0000
35.6200 1223.0000 1.0000
35.6300 1180.0000 1.0000
35.6400 1192.0000 1.0000
35.6500 1186.0000 1.0000
35.6600 1200.0000 1.0000
35.6700 1189.0000 1.0000
35.6800 1171.0000 1.0000
35.6900 1201.0000 1.0000
35.7000 1191.0000 1.0000
35.7100 1179.0000 1.0000
35.7200 1182.0000 1.0000
35.7300 1148.0000 1.0000
35.7400 1196.0000 1.0000
35.7500 1161.0000 1.0000
35.7600 1203.0000 1.0000
35.7700 1166.0000 1.0000
35.7800 1176.0000 1.0000
35.7900 1137.0000 1.0000
35.8000 1157.0000 1.0000
35.8100 1151.0000 1.0000
35.8200 1167.0000 1.0000
35.8300 1224.0000 1.0000
35.8400 1162.0000 1.0000
35.8500 1165.0000 1.0000
35.8600 1131.0000 1.0000
35.8700 1172.0000 1.0000
35.8800 1166.0000 1.0000
35.8900 1164.0000 1.0000
35.9000 1144.0000 1.0000
35.9100 1096.0000 1.0000
35.9200 1182.0000 1.0000
35.9300 1153.0000 1.0000
35.9400 1169.0000 1.0000
35.9500 1076.0000 1.0000
35.9600 1185.0000 1.0000
35.9700 1131.0000 1.0000
35.9800 1170.0000 1.0000
35.9900 1194.0000 1.0000
36.0000 1185.0000 1.0000
36.0100 1166.0000 1.0000
36.0200 1150.0000 1.0000
36.0300 1153.0000 1.0000
36.0400 1180.0000 1.0000
36.0500 1156.0000 1.0000
36.0600 1177.0000 1.0000
36.0700 1166.0000 1.0000
36.0800 1206.0000 1.0000
36.0900 1156.0000 1.0000
36.1000 1131.0000 1.0000
36.1100 1164.0000 1.0000
36.1200 1204.0000 1.0000
36.1300 1181.0000 1.0000
36.1400 1224.0000 1.0000
36.1500 1208.0000 1.0000
36.1600 1175.0000 1.0000
36.1700 1274.0000 1.0000
36.1800 1284.0000 1.0000
36.1900 1250.0000 1.0000
36.2000 1220.0000 1.0000
36.2100 1295.0000 1.0000
36.2200 1248.0000 1.0000
36.2300 1268.0000 1.0000
36.2400 1323.0000 1.0000
36.2500 1306.0000 1.0000
36.2600 1257.0000 1.0000
36.2700 1367.0000 1.0000
36.2800 1377.0000 1.0000
36.2900 1418.0000 1.0000
36.3000 1498.0000 1.0000
36.3100 1510.0000 1.0000
36.3200 1549.0000 1.0000
36.3300 1640.0000 1.0000
36.3400 1689.0000 1.0000
36.3500 1804.0000 1.0000
36.3600 1876.0000 1.0000
36.3700 1890.0000 1.0000
36.3800 2097.0000 1.0000
36.3900 2063.0000 1.0000
36.4000 2041.0000 1.0000
36.4100 2091.0000 1.0000
36.4200 2060.0000 1.0000
36.4300 1990.0000 1.0000
36.4400 1959.0000 1.0000
36.4500 1962.0000 1.0000
36.4600 1939.0000 1.0000
36.4700 1799.0000 1.0000
36.4800 1825.0000 1.0000
36.4900 1763.0000 1.0000
36.5000 1705.0000 1.0000
36.5100 1620.0000 1.0000
36.5200 1560.0000 1.0000
36.5300 1535.0000 1.0000
36.5400 1422.0000 1.0000
36.5500 1470.0000 1.0000
36.5600 1378.0000 1.0000
36.5700 1354.0000 1.0000
36.5800 1276.0000 1.0000
36.5900 1302.0000 1.0000
36.6000 1254.0000 1.0000
36.6100 1162.0000 1.0000
36.6200 1217.0000 1.0000
36.6300 1157.0000 1.0000
36.6400 1193.0000 1.0000
36.6500 1181.0000 1.0000
36.6600 1160.0000 1.0000
36.6700 1168.0000 1.0000
36.6800 1137.0000 1.0000
36.6900 1158.0000 1.0000
36.7000 1133.0000 1.0000
36.7100 1139.0000 1.0000
36.7200 1086.0000 1.0000
36.7300 1104.0000 1.0000
36.7400 1071.0000 1.0000
36.7500 1130.0000 1.0000
36.7600 1102.0000 1.0000
36.7700 1101.0000 1.0000
36.7800 1073.0000 1.0000
36.7900 1093.0000 1.0000
36.8000 1034.0000 1.0000
36.8100 1116.0000 1.0000
36.8200 1095.0000 1.0000
36.8300 1085.0000 1.0000
36.8400 1057.0000 1.0000
36.8500 1132.0000 1.0000
36.8600 1073.0000 1.0000
36.8700 1094.0000 1.0000
36.8800 1114.0000 1.0000
36.8900 1114.0000 1.0000
36.9000 1105.0000 1.0000
36.9100 1060.0000 1.0000
36.9200 1114.0000 1.0000
36.9300 1085.0000 1.0000
36.9400 1069.0000 1.0000
36.9500 1089.0000 1.0000
36.9600 1085.0000 1.0000
36.9700 1090.0000 1.0000
36.9800 1044.0000 1.0000
36.9900 1075.0000 1.0000
37.0000 1041.0000 1.0000
37.0100 1005.0000 1.0000
37.0200 1029.0000 1.0000
37.0300 1032.0000 1.0000
37.0400 1072.0000 1.0000
37.0500 1058.0000 1.0000
37.0600 1081.0000 1.0000
37.0700 1022.0000 1.0000
37.0800 1036.0000 1.0000
37.0900 1036.0000 1.0000
37.1000 1067.0000 1.0000
37.1100 1043.0000 1.0000
37.1200 1026.0000 1.0000
37.1300 1074.0000 1.0000
37.1400 1070.0000 1.0000
37.1500 1094.0000 1.0000
37.1600 1074.0000 1.0000
37.1700 1049.0000 1.0000
37.1800 1105.0000 1.0000
37.1900 1080.0000 1.0000
37.2000 1093.0000 1.0000
37.2100 1049.0000 1.0000
37.2200 1073.0000 1.0000
37.2300 1085.0000 1.0000
37.2400 1065.0000 1.0000
37.2500 1059.0000 1.0000
37.2600 1078.0000 1.0000
37.2700 1023.0000 1.0000
37.2800 1007.0000 1.0000
37.2900 1108.0000 1.0000
37.3000 1080.0000 1.0000
37.3100 1022.0000 1.0000
37.3200 1087.0000 1.0000
37.3300 1102.0000 1.0000
37.3400 1074.0000 1.0000
37.3500 1047.0000 1.0000
37.3600 1065.0000 1.0000
37.3700 1092.0000 1.0000
37.3800 1077.0000 1.0000
37.3900 1089.0000 1.0000
37.4000 1072.0000 1.0000
37.4100 1038.0000 1.0000
37.4200 1050.0000 1.0000
37.4300 1091.0000 1.0000
37.4400 1042.0000 1.0000
37.4500 1108.0000 1.0000
37.4600 1036.0000 1.0000
37.4700 1035.0000 1.0000
37.4800 1027.0000 1.0000
37.4900 1069.0000 1.0000
37.5000 1069.0000 1.0000
37.5100 1145.0000 1.0000
37.5200 1047.0000 1.0000
37.5300 1067.0000 1.0000
37.5400 1075.0000 1.0000
37.5500 1084.0000 1.0000
37.5600 1050.0000 1.0000
37.5700 1094.0000 1.0000
37.5800 1053.0000 1.0000
37.5900 1079.0000 1.0000
37.6000 1137.0000 1.0000
37.6100 1081.0000 1.0000
37.6200 1069.0000 1.0000
37.6300 1058.0000 1.0000
37.6400 1038.0000 1.0000
37.6500 1021.0000 1.0000
37.6600 1016.0000 1.0000
37.6700 1071.0000 1.0000
37.6800 1006.0000 1.0000
37.6900 1088.0000 1.0000
37.7000 1078.0000 1.0000
37.7100 1038.0000 1.0000
37.7200 1075.0000 1.0000
37.7300 1102.0000 1.0000
37.7400 1104.0000 1.0000
37.7500 1084.0000 1.0000
37.7600 1049.0000 1.0000
37.7700 1031.0000 1.0000
37.7800 1040.0000 1.0000
37.7900 1064.0000 1.0000
37.8000 1035.0000 1.0000
37.8100 1113.0000 1.0000
37.8200 1082.0000 1.0000
37.8300 1038.0000 1.0000
37.8400 1110.0000 1.0000
37.8500 1085.0000 1.0000
37.8600 1069.0000 1.0000
37.8700 1037.0000 1.0000
37.8800 1073.0000 1.0000
37.8900 1096.0000 1.0000
37.9000 1122.0000 1.0000
37.9100 1129.0000 1.0000
37.9200 1078.0000 1.0000
37.9300 1113.0000 1.0000
37.9400 1132.0000 1.0000
37.9500 1090.0000 1.0000
37.9600 1162.0000 1.0000
37.9700 1042.0000 1.0000
37.9800 1119.0000 1.0000
37.9900 1114.0000 1.0000
38.0000 1077.0000 1.0000
38.0100 1146.0000 1.0000
38.0200 1138.0000 1.0000
38.0300 1123.0000 1.0000
38.0400 1205.0000 1.0000
38.0500 1243.0000 1.0000
38.0600 1191.0000 1.0000
38.0700 1170.0000 1.0000
38.0800 1177.0000 1.0000
38.0900 1212.0000 1.0000
38.1000 1230.0000 1.0000
38.1100 1292.0000 1.0000
38.1200 1254.0000 1.0000
38.1300 1271.0000 1.0000
38.1400 1275.0000 1.0000
38.1500 1305.0000 1.0000
38.1600 1318.0000 1.0000
38.1700 1448.0000 1.0000
38.1800 1373.0000 1.0000
38.1900 1398.0000 1.0000
38.2000 1474.0000 1.0000
38.2100 1541.0000 1.0000
38.2200 1529.0000 1.0000
38.2300 1577.0000 1.0000
38.2400 1582.0000 1.0000
38.2500 1663.0000 1.0000
38.2600 1751.0000 1.0000
38.2700 1785.0000 1.0000
38.2800 1807.0000 1.0000
38.2900 1847.0000 1.0000
38.3000 2022.0000 1.0000
38.3100 2012.0000 1.0000
38.3200 2140.0000 1.0000
38.3300 2216.0000 1.0000
38.3400 2282.0000 1.0000
38.3500 2380.0000 1.0000
38.3600 2567.0000 1.0000
38.3700 2742.0000 1.0000
38.3800 2878.0000 1.0000
38.3900 3106.0000 1.0000
38.4000 3420.0000 1.0000
38.4100 3430.0000 1.0000
38.4200 3814.0000 1.0000
38.4300 4161.0000 1.0000
38.4400 4324.0000 1.0000
38.4500 4527.0000 1.0000
38.4600 4819.0000 1.0000
38.4700 5254.0000 1.0000
38.4800 5459.0000 1.0000
38.4900 5842.0000 1.0000
38.5000 5938.0000 1.0000
38.5100 6182.0000 1.0000
38.5200 6156.0000 1.0000
38.5300 6284.0000 1.0000
38.5400 6204.0000 1.0000
38.5500 6513.0000 1.0000
38.5600 6319.0000 1.0000
38.5700 6237.0000 1.0000
38.5800 6164.0000 1.0000
38.5900 6008.0000 1.0000
38.6000 5952.0000 1.0000
38.6100 5614.0000 1.0000
38.6200 5249.0000 1.0000
38.6300 5147.0000 1.0000
38.6400 4933.0000 1.0000
38.6500 4622.0000 1.0000
38.6600 4540.0000 1.0000
38.6700 4129.0000 1.0000
38.6800 3890.0000 1.0000
38.6900 3693.0000 1.0000
38.7000 3443.0000 1.0000
38.7100 3258.0000 1.0000
38.7200 3073.0000 1.0000
38.7300 2809.0000 1.0000
38.7400 2657.0000 1.0000
38.7500 2476.0000 1.0000
38.7600 2309.0000 1.0000
38.7700 2172.0000 1.0000
38.7800 2124.0000 1.0000
38.7900 2029.0000 1.0000
38.8000 1915.0000 1.0000
38.8100 1856.0000 1.0000
38.8200 1765.0000 1.0000
38.8300 1660.0000 1.0000
38.8400 1629.0000 1.0000
38.8500 1615.0000 1.0000
38.8600 1524.0000 1.0000
38.8700 1478.0000 1.0000
38.8800 1440.0000 1.0000
38.8900 1388.0000 1.0000
38.9000 1329.0000 1.0000
38.9100 1358.0000 1.0000
38.9200 1310.0000 1.0000
38.9300 1300.0000 1.0000
38.9400 1242.0000 1.0000
38.9500 1149.0000 1.0000
38.9600 1207.0000 1.0000
38.9700 1156.0000 1.0000
38.9800 1125.0000 1.0000
38.9900 1128.0000 1.0000
39.0000 1123.0000 1.0000
39.0100 1137.0000 1.0000
39.0200 1175.0000 1.0000
39.0300 1085.0000 1.0000
39.0400 1064.0000 1.0000
39.0500 1105.0000 1.0000
39.0600 1121.0000 1.0000
39.0700 1098.0000 1.0000
39.0800 1068.0000 1.0000
39.0900 1048.0000 1.0000
39.1000 1038.0000 1.0000
39.1100 1023.0000 1.0000
39.1200 1047.0000 1.0000
39.1300 1028.0000 1.0000
39.1400 1027.0000 1.0000
39.1500 1036.0000 1.0000
39.1600 1012.0000 1.0000
39.1700 1038.0000 1.0000
39.1800 988.0000 1.0000
39.1900 1018.0000 1.0000
39.2000 1046.0000 1.0000
39.2100 992.0000 1.0000
39.2200 1027.0000 1.0000
39.2300 1008.0000 1.0000
39.2400 939.0000 1.0000
39.2500 974.0000 1.0000
39.2600 987.0000 1.0000
39.2700 999.0000 1.0000
39.2800 1020.0000 1.0000
39.2900 1020.0000 1.0000
39.3000 999.0000 1.0000
39.3100 961.0000 1.0000
39.3200 949.0000 1.0000
39.3300 1015.0000 1.0000
39.3400 1006.0000 1.0000
39.3500 973.0000 1.0000
39.3600 977.0000 1.0000
39.3700 981.0000 1.0000
39.3800 982.0000 1.0000
39.3900 1017.0000 1.0000
39.4000 985.0000 1.0000
39.4100 967.0000 1.0000
39.4200 982.0000 1.0000
39.4300 1004.0000 1.0000
39.4400 936.0000 1.0000
39.4500 1008.0000 1.0000
39.4600 1023.0000 1.0000
39.4700 1004.0000 1.0000
39.4800 1038.0000 1.0000
39.4900 1010.0000 1.0000
39.5000 951.0000 1.0000
39.5100 962.0000 1.0000
39.5200 1057.0000 1.0000
39.5300 1011.0000 1.0000
39.5400 1024.0000 1.0000
39.5500 1016.0000 1.0000
39.5600 977.0000 1.0000
39.5700 1013.0000 1.0000
39.5800 971.0000 1.0000
39.5900 979.0000 1.0000
39.6000 1009.0000 1.0000
39.6100 1016.0000 1.0000
39.6200 993.0000 1.0000
39.6300 1091.0000 1.0000
39.6400 1037.0000 1.0000
39.6500 953.0000 1.0000
39.6600 1009.0000 1.0000
39.6700 1003.0000 1.0000
39.6800 986.0000 1.0000
39.6900 952.0000 1.0000
39.7000 998.0000 1.0000
39.7100 1035.0000 1.0000
39.7200 982.0000 1.0000
39.7300 967.0000 1.0000
39.7400 994.0000 1.0000
39.7500 985.0000 1.0000
39.7600 994.0000 1.0000
39.7700 999.0000 1.0000
39.7800 998.0000 1.0000
39.7900 975.0000 1.0000
39.8000 979.0000 1.0000
39.8100 927.0000 1.0000
39.8200 906.0000 1.0000
39.8300 910.0000 1.0000
39.8400 923.0000 1.0000
39.8500 961.0000 1.0000
39.8600 966.0000 1.0000
39.8700 952.0000 1.0000
39.8800 938.0000 1.0000
39.8900 956.0000 1.0000
39.9000 924.0000 1.0000
39.9100 957.0000 1.0000
39.9200 929.0000 1.0000
39.9300 911.0000 1.0000
39.9400 936.0000 1.0000
39.9500 932.0000 1.0000
39.9600 917.0000 1.0000
39.9700 946.0000 1.0000
39.9800 909.0000 1.0000
39.9900 905.0000 1.0000
40.0000 903.0000 1.0000
40.0100 935.0000 1.0000
40.0200 993.0000 1.0000
40.0300 956.0000 1.0000
40.0400 940.0000 1.0000
40.0500 938.0000 1.0000
40.0600 953.0000 1.0000
40.0700 954.0000 1.0000
40.0800 930.0000 1.0000
40.0900 904.0000 1.0000
40.1000 888.0000 1.0000
40.1100 912.0000 1.0000
40.1200 882.0000 1.0000
40.1300 918.0000 1.0000
40.1400 884.0000 1.0000
40.1500 832.0000 1.0000
40.1600 937.0000 1.0000
40.1700 906.0000 1.0000
40.1800 942.0000 1.0000
40.1900 919.0000 1.0000
40.2000 962.0000 1.0000
40.2100 942.0000 1.0000
40.2200 927.0000 1.0000
40.2300 888.0000 1.0000
40.2400 883.0000 1.0000
40.2500 927.0000 1.0000
40.2600 919.0000 1.0000
40.2700 895.0000 1.0000
40.2800 875.0000 1.0000
40.2900 896.0000 1.0000
40.3000 902.0000 1.0000
40.3100 897.0000 1.0000
40.3200 887.0000 1.0000
40.3300 878.0000 1.0000
40.3400 918.0000 1.0000
40.3500 905.0000 1.0000
40.3600 895.0000 1.0000
40.3700 890.0000 1.0000
40.3800 877.0000 1.0000
40.3900 869.0000 1.0000
40.4000 868.0000 1.0000
40.4100 913.0000 1.0000
40.4200 928.0000 1.0000
40.4300 930.0000 1.0000
40.4400 917.0000 1.0000
40.4500 887.0000 1.0000
40.4600 950.0000 1.0000
40.4700 864.0000 1.0000
40.4800 849.0000 1.0000
40.4900 866.0000 1.0000
40.5000 872.0000 1.0000
40.5100 891.0000 1.0000
40.5200 910.0000 1.0000
40.5300 961.0000 1.0000
40.5400 915.0000 1.0000
40.5500 888.0000 1.0000
40.5600 867.0000 1.0000
40.5700 916.0000 1.0000
40.5800 862.0000 1.0000
40.5900 923.0000 1.0000
40.6000 902.0000 1.0000
40.6100 866.0000 1.0000
40.6200 894.0000 1.0000
40.6300 940.0000 1.0000
40.6400 870.0000 1.0000
40.6500 859.0000 1.0000
40.6600 938.0000 1.0000
40.6700 894.0000 1.0000
40.6800 871.0000 1.0000
40.6900 909.0000 1.0000
40.7000 898.0000 1.0000
40.7100 906.0000 1.0000
40.7200 907.0000 1.0000
40.7300 865.0000 1.0000
40.7400 906.0000 1.0000
40.7500 904.0000 1.0000
40.7600 922.0000 1.0000
40.7700 896.0000 1.0000
40.7800 905.0000 1.0000
40.7900 859.0000 1.0000
40.8000 870.0000 1.0000
40.8100 882.0000 1.0000
40.8200 902.0000 1.0000
40.8300 881.0000 1.0000
40.8400 879.0000 1.0000
40.8500 919.0000 1.0000
40.8600 894.0000 1.0000
40.8700 876.0000 1.0000
40.8800 890.0000 1.0000
40.8900 942.0000 1.0000
40.9000 861.0000 1.0000
40.9100 891.0000 1.0000
40.9200 876.0000 1.0000
40.9300 884.0000 1.0000
40.9400 878.0000 1.0000
40.9500 865.0000 1.0000
40.9600 929.0000 1.0000
40.9700 909.0000 1.0000
40.9800 846.0000 1.0000
40.9900 873.0000 1.0000
41.0000 849.0000 1.0000
41.0100 873.0000 1.0000
41.0200 857.0000 1.0000
41.0300 825.0000 1.0000
41.0400 887.0000 1.0000
41.0500 903.0000 1.0000
41.0600 862.0000 1.0000
41.0700 863.0000 1.0000
41.0800 861.0000 1.0000
41.0900 913.0000 1.0000
41.1000 905.0000 1.0000
41.1100 923.0000 1.0000
41.1200 857.0000 1.0000
41.1300 879.0000 1.0000
41.1400 876.0000 1.0000
41.1500 898.0000 1.0000
41.1600 881.0000 1.0000
41.1700 917.0000 1.0000
41.1800 934.0000 1.0000
41.1900 877.0000 1.0000
41.2000 884.0000 1.0000
41.2100 891.0000 1.0000
41.2200 867.0000 1.0000
41.2300 849.0000 1.0000
41.2400 874.0000 1.0000
41.2500 874.0000 1.0000
41.2600 884.0000 1.0000
41.2700 882.0000 1.0000
41.2800 857.0000 1.0000
41.2900 896.0000 1.0000
41.3000 857.0000 1.0000
41.3100 876.0000 1.0000
41.3200 915.0000 1.0000
41.3300 906.0000 1.0000
41.3400 890.0000 1.0000
41.3500 934.0000 1.0000
41.3600 901.0000 1.0000
41.3700 874.0000 1.0000
41.3800 883.0000 1.0000
41.3900 902.0000 1.0000
41.4000 899.0000 1.0000
41.4100 914.0000 1.0000
41.4200 865.0000 1.0000
41.4300 875.0000 1.0000
41.4400 847.0000 1.0000
41.4500 846.0000 1.0000
41.4600 859.0000 1.0000
41.4700 898.0000 1.0000
41.4800 916.0000 1.0000
41.4900 854.0000 1.0000
41.5000 894.0000 1.0000
41.5100 856.0000 1.0000
41.5200 848.0000 1.0000
41.5300 842.0000 1.0000
41.5400 886.0000 1.0000
41.5500 909.0000 1.0000
41.5600 917.0000 1.0000
41.5700 924.0000 1.0000
41.5800 926.0000 1.0000
41.5900 932.0000 1.0000
41.6000 880.0000 1.0000
41.6100 900.0000 1.0000
41.6200 930.0000 1.0000
41.6300 898.0000 1.0000
41.6400 898.0000 1.0000
41.6500 917.0000 1.0000
41.6600 884.0000 1.0000
41.6700 948.0000 1.0000
41.6800 920.0000 1.0000
41.6900 916.0000 1.0000
41.7000 862.0000 1.0000
41.7100 918.0000 1.0000
41.7200 885.0000 1.0000
41.7300 871.0000 1.0000
41.7400 856.0000 1.0000
41.7500 882.0000 1.0000
41.7600 903.0000 1.0000
41.7700 918.0000 1.0000
41.7800 865.0000 1.0000
41.7900 860.0000 1.0000
41.8000 874.0000 1.0000
41.8100 856.0000 1.0000
41.8200 887.0000 1.0000
41.8300 881.0000 1.0000
41.8400 903.0000 1.0000
41.8500 920.0000 1.0000
41.8600 916.0000 1.0000
41.8700 875.0000 1.0000
41.8800 919.0000 1.0000
41.8900 912.0000 1.0000
41.9000 878.0000 1.0000
41.9100 900.0000 1.0000
41.9200 865.0000 1.0000
41.9300 865.0000 1.0000
41.9400 872.0000 1.0000
41.9500 865.0000 1.0000
41.9600 860.0000 1.0000
41.9700 882.0000 1.0000
41.9800 805.0000 1.0000
41.9900 829.0000 1.0000
42.0000 871.0000 1.0000
42.0100 887.0000 1.0000
42.0200 872.0000 1.0000
42.0300 868.0000 1.0000
42.0400 951.0000 1.0000
42.0500 880.0000 1.0000
42.0600 832.0000 1.0000
42.0700 913.0000 1.0000
42.0800 905.0000 1.0000
42.0900 887.0000 1.0000
42.1000 871.0000 1.0000
42.1100 864.0000 1.0000
42.1200 841.0000 1.0000
42.1300 837.0000 1.0000
42.1400 885.0000 1.0000
42.1500 827.0000 1.0000
42.1600 861.0000 1.0000
42.1700 891.0000 1.0000
42.1800 857.0000 1.0000
42.1900 864.0000 1.0000
42.2000 816.0000 1.0000
42.2100 840.0000 1.0000
42.2200 811.0000 1.0000
42.2300 900.0000 1.0000
42.2400 879.0000 1.0000
42.2500 823.0000 1.0000
42.2600 843.0000 1.0000
42.2700 800.0000 1.0000
42.2800 835.0000 1.0000
42.2900 851.0000 1.0000
42.3000 916.0000 1.0000
42.3100 897.0000 1.0000
42.3200 854.0000 1.0000
42.3300 884.0000 1.0000
42.3400 861.0000 1.0000
42.3500 842.0000 1.0000
42.3600 876.0000 1.0000
42.3700 882.0000 1.0000
42.3800 875.0000 1.0000
42.3900 913.0000 1.0000
42.4000 897.0000 1.0000
42.4100 829.0000 1.0000
42.4200 833.0000 1.0000
42.4300 865.0000 1.0000
42.4400 828.0000 1.0000
42.4500 882.0000 1.0000
42.4600 843.0000 1.0000
42.4700 827.0000 1.0000
42.4800 840.0000 1.0000
42.4900 845.0000 1.0000
42.5000 854.0000 1.0000
42.5100 852.0000 1.0000
42.5200 874.0000 1.0000
42.5300 864.0000 1.0000
42.5400 871.0000 1.0000
42.5500 841.0000 1.0000
42.5600 876.0000 1.0000
42.5700 841.0000 1.0000
42.5800 833.0000 1.0000
42.5900 844.0000 1.0000
42.6000 876.0000 1.0000
42.6100 875.0000 1.0000
42.6200 880.0000 1.0000
42.6300 838.0000 1.0000
42.6400 788.0000 1.0000
42.6500 831.0000 1.0000
42.6600 851.0000 1.0000
42.6700 858.0000 1.0000
42.6800 852.0000 1.0000
42.6900 863.0000 1.0000
42.7000 842.0000 1.0000
42.7100 851.0000 1.0000
42.7200 870.0000 1.0000
42.7300 829.0000 1.0000
42.7400 856.0000 1.0000
42.7500 863.0000 1.0000
42.7600 856.0000 1.0000
42.7700 824.0000 1.0000
42.7800 876.0000 1.0000
42.7900 875.0000 1.0000
42.8000 914.0000 1.0000
42.8100 876.0000 1.0000
42.8200 831.0000 1.0000
42.8300 847.0000 1.0000
42.8400 822.0000 1.0000
42.8500 864.0000 1.0000
42.8600 896.0000 1.0000
42.8700 875.0000 1.0000
42.8800 888.0000 1.0000
42.8900 869.0000 1.0000
42.9000 838.0000 1.0000
42.9100 869.0000 1.0000
42.9200 888.0000 1.0000
42.9300 898.0000 1.0000
42.9400 876.0000 1.0000
42.9500 855.0000 1.0000
42.9600 884.0000 1.0000
42.9700 889.0000 1.0000
42.9800 876.0000 1.0000
42.9900 876.0000 1.0000
43.0000 907.0000 1.0000
43.0100 851.0000 1.0000
43.0200 866.0000 1.0000
43.0300 899.0000 1.0000
43.0400 899.0000 1.0000
43.0500 874.0000 1.0000
43.0600 858.0000 1.0000
43.0700 868.0000 1.0000
43.0800 904.0000 1.0000
43.0900 912.0000 1.0000
43.1000 903.0000 1.0000
43.1100 880.0000 1.0000
43.1200 925.0000 1.0000
43.1300 886.0000 1.0000
43.1400 926.0000 1.0000
43.1500 930.0000 1.0000
43.1600 936.0000 1.0000
43.1700 912.0000 1.0000
43.1800 924.0000 1.0000
43.1900 946.0000 1.0000
43.2000 900.0000 1.0000
43.2100 915.0000 1.0000
43.2200 904.0000 1.0000
43.2300 1020.0000 1.0000
43.2400 960.0000 1.0000
43.2500 949.0000 1.0000
43.2600 921.0000 1.0000
43.2700 941.0000 1.0000
43.2800 951.0000 1.0000
43.2900 930.0000 1.0000
43.3000 897.0000 1.0000
43.3100 952.0000 1.0000
43.3200 958.0000 1.0000
43.3300 943.0000 1.0000
43.3400 933.0000 1.0000
43.3500 965.0000 1.0000
43.3600 884.0000 1.0000
43.3700 937.0000 1.0000
43.3800 890.0000 1.0000
43.3900 864.0000 1.0000
43.4000 859.0000 1.0000
43.4100 894.0000 1.0000
43.4200 912.0000 1.0000
43.4300 887.0000 1.0000
43.4400 857.0000 1.0000
43.4500 892.0000 1.0000
43.4600 882.0000 1.0000
43.4700 902.0000 1.0000
43.4800 920.0000 1.0000
43.4900 876.0000 1.0000
43.5000 880.0000 1.0000
43.5100 847.0000 1.0000
43.5200 833.0000 1.0000
43.5300 898.0000 1.0000
43.5400 845.0000 1.0000
43.5500 863.0000 1.0000
43.5600 881.0000 1.0000
43.5700 848.0000 1.0000
43.5800 880.0000 1.0000
43.5900 860.0000 1.0000
43.6000 852.0000 1.0000
43.6100 858.0000 1.0000
43.6200 882.0000 1.0000
43.6300 879.0000 1.0000
43.6400 866.0000 1.0000
43.6500 864.0000 1.0000
43.6600 814.0000 1.0000
43.6700 827.0000 1.0000
43.6800 873.0000 1.0000
43.6900 882.0000 1.0000
43.7000 880.0000 1.0000
43.7100 862.0000 1.0000
43.7200 876.0000 1.0000
43.7300 873.0000 1.0000
43.7400 779.0000 1.0000
43.7500 795.0000 1.0000
43.7600 801.0000 1.0000
43.7700 857.0000 1.0000
43.7800 848.0000 1.0000
43.7900 833.0000 1.0000
43.8000 867.0000 1.0000
43.8100 833.0000 1.0000
43.8200 873.0000 1.0000
43.8300 848.0000 1.0000
43.8400 846.0000 1.0000
43.8500 832.0000 1.0000
43.8600 807.0000 1.0000
43.8700 828.0000 1.0000
43.8800 825.0000 1.0000
43.8900 889.0000 1.0000
43.9000 852.0000 1.0000
43.9100 855.0000 1.0000
43.9200 845.0000 1.0000
43.9300 852.0000 1.0000
43.9400 841.0000 1.0000
43.9500 840.0000 1.0000
43.9600 834.0000 1.0000
43.9700 847.0000 1.0000
43.9800 880.0000 1.0000
43.9900 880.0000 1.0000
44.0000 844.0000 1.0000
44.0100 881.0000 1.0000
44.0200 847.0000 1.0000
44.0300 855.0000 1.0000
44.0400 855.0000 1.0000
44.0500 844.0000 1.0000
44.0600 847.0000 1.0000
44.0700 834.0000 1.0000
44.0800 852.0000 1.0000
44.0900 868.0000 1.0000
44.1000 856.0000 1.0000
44.1100 848.0000 1.0000
44.1200 883.0000 1.0000
44.1300 822.0000 1.0000
44.1400 854.0000 1.0000
44.1500 806.0000 1.0000
44.1600 853.0000 1.0000
44.1700 822.0000 1.0000
44.1800 864.0000 1.0000
44.1900 835.0000 1.0000
44.2000 875.0000 1.0000
44.2100 820.0000 1.0000
44.2200 824.0000 1.0000
44.2300 830.0000 1.0000
44.2400 875.0000 1.0000
44.2500 870.0000 1.0000
44.2600 831.0000 1.0000
44.2700 857.0000 1.0000
44.2800 870.0000 1.0000
44.2900 831.0000 1.0000
44.3000 869.0000 1.0000
44.3100 867.0000 1.0000
44.3200 856.0000 1.0000
44.3300 831.0000 1.0000
44.3400 857.0000 1.0000
44.3500 826.0000 1.0000
44.3600 865.0000 1.0000
44.3700 861.0000 1.0000
44.3800 857.0000 1.0000
44.3900 823.0000 1.0000
44.4000 848.0000 1.0000
44.4100 836.0000 1.0000
44.4200 866.0000 1.0000
44.4300 847.0000 1.0000
44.4400 840.0000 1.0000
44.4500 837.0000 1.0000
44.4600 847.0000 1.0000
44.4700 796.0000 1.0000
44.4800 865.0000 1.0000
44.4900 859.0000 1.0000
44.5000 834.0000 1.0000
44.5100 802.0000 1.0000
44.5200 854.0000 1.0000
44.5300 820.0000 1.0000
44.5400 834.0000 1.0000
44.5500 863.0000 1.0000
44.5600 878.0000 1.0000
44.5700 837.0000 1.0000
44.5800 785.0000 1.0000
44.5900 780.0000 1.0000
44.6000 788.0000 1.0000
44.6100 824.0000 1.0000
44.6200 852.0000 1.0000
44.6300 842.0000 1.0000
44.6400 825.0000 1.0000
44.6500 828.0000 1.0000
44.6600 815.0000 1.0000
44.6700 872.0000 1.0000
44.6800 806.0000 1.0000
44.6900 822.0000 1.0000
44.7000 846.0000 1.0000
44.7100 795.0000 1.0000
44.7200 804.0000 1.0000
44.7300 853.0000 1.0000
44.7400 835.0000 1.0000
44.7500 808.0000 1.0000
44.7600 806.0000 1.0000
44.7700 832.0000 1.0000
44.7800 790.0000 1.0000
44.7900 821.0000 1.0000
44.8000 839.0000 1.0000
44.8100 787.0000 1.0000
44.8200 830.0000 1.0000
44.8300 862.0000 1.0000
44.8400 830.0000 1.0000
44.8500 848.0000 1.0000
44.8600 808.0000 1.0000
44.8700 805.0000 1.0000
44.8800 847.0000 1.0000
44.8900 813.0000 1.0000
44.9000 814.0000 1.0000
44.9100 821.0000 1.0000
44.9200 810.0000 1.0000
44.9300 785.0000 1.0000
44.9400 815.0000 1.0000
44.9500 816.0000 1.0000
44.9600 815.0000 1.0000
44.9700 836.0000 1.0000
44.9800 849.0000 1.0000
44.9900 825.0000 1.0000
45.0000 792.0000 1.0000
45.0100 834.0000 1.0000
45.0200 805.0000 1.0000
45.0300 824.0000 1.0000
45.0400 803.0000 1.0000
45.0500 805.0000 1.0000
45.0600 822.0000 1.0000
45.0700 792.0000 1.0000
45.0800 832.0000 1.0000
45.0900 826.0000 1.0000
45.1000 839.0000 1.0000
45.1100 838.0000 1.0000
45.1200 781.0000 1.0000
45.1300 782.0000 1.0000
45.1400 765.0000 1.0000
45.1500 821.0000 1.0000
45.1600 827.0000 1.0000
45.1700 788.0000 1.0000
45.1800 815.0000 1.0000
45.1900 836.0000 1.0000
45.2000 848.0000 1.0000
45.2100 837.0000 1.0000
45.2200 814.0000 1.0000
45.2300 855.0000 1.0000
45.2400 820.0000 1.0000
45.2500 802.0000 1.0000
45.2600 836.0000 1.0000
45.2700 842.0000 1.0000
45.2800 857.0000 1.0000
45.2900 783.0000 1.0000
45.3000 823.0000 1.0000
45.3100 777.0000 1.0000
45.3200 818.0000 1.0000
45.3300 825.0000 1.0000
45.3400 820.0000 1.0000
45.3500 817.0000 1.0000
45.3600 803.0000 1.0000
45.3700 809.0000 1.0000
45.3800 831.0000 1.0000
45.3900 762.0000 1.0000
45.4000 841.0000 1.0000
45.4100 844.0000 1.0000
45.4200 804.0000 1.0000
45.4300 802.0000 1.0000
45.4400 760.0000 1.0000
45.4500 775.0000 1.0000
45.4600 753.0000 1.0000
45.4700 793.0000 1.0000
45.4800 807.0000 1.0000
45.4900 780.0000 1.0000
45.5000 801.0000 1.0000
45.5100 809.0000 1.0000
45.5200 802.0000 1.0000
45.5300 832.0000 1.0000
45.5400 785.0000 1.0000
45.5500 825.0000 1.0000
45.5600 764.0000 1.0000
45.5700 843.0000 1.0000
45.5800 811.0000 1.0000
45.5900 819.0000 1.0000
45.6000 777.0000 1.0000
45.6100 791.0000 1.0000
45.6200 826.0000 1.0000
45.6300 834.0000 1.0000
45.6400 821.0000 1.0000
45.6500 777.0000 1.0000
45.6600 780.0000 1.0000
45.6700 805.0000 1.0000
45.6800 805.0000 1.0000
45.6900 786.0000 1.0000
45.7000 824.0000 1.0000
45.7100 795.0000 1.0000
45.7200 836.0000 1.0000
45.7300 794.0000 1.0000
45.7400 774.0000 1.0000
45.7500 796.0000 1.0000
45.7600 760.0000 1.0000
45.7700 808.0000 1.0000
45.7800 785.0000 1.0000
45.7900 792.0000 1.0000
45.8000 790.0000 1.0000
45.8100 796.0000 1.0000
45.8200 780.0000 1.0000
45.8300 803.0000 1.0000
45.8400 795.0000 1.0000
45.8500 842.0000 1.0000
45.8600 849.0000 1.0000
45.8700 776.0000 1.0000
45.8800 798.0000 1.0000
45.8900 802.0000 1.0000
45.9000 787.0000 1.0000
45.9100 819.0000 1.0000
45.9200 815.0000 1.0000
45.9300 806.0000 1.0000
45.9400 774.0000 1.0000
45.9500 792.0000 1.0000
45.9600 801.0000 1.0000
45.9700 783.0000 1.0000
45.9800 790.0000 1.0000
45.9900 846.0000 1.0000
46.0000 809.0000 1.0000
46.0100 788.0000 1.0000
46.0200 820.0000 1.0000
46.0300 817.0000 1.0000
46.0400 837.0000 1.0000
46.0500 817.0000 1.0000
46.0600 794.0000 1.0000
46.0700 841.0000 1.0000
46.0800 824.0000 1.0000
46.0900 817.0000 1.0000
46.1000 766.0000 1.0000
46.1100 790.0000 1.0000
46.1200 771.0000 1.0000
46.1300 814.0000 1.0000
46.1400 784.0000 1.0000
46.1500 787.0000 1.0000
46.1600 825.0000 1.0000
46.1700 811.0000 1.0000
46.1800 798.0000 1.0000
46.1900 815.0000 1.0000
46.2000 828.0000 1.0000
46.2100 797.0000 1.0000
46.2200 778.0000 1.0000
46.2300 790.0000 1.0000
46.2400 807.0000 1.0000
46.2500 791.0000 1.0000
46.2600 732.0000 1.0000
46.2700 784.0000 1.0000
46.2800 748.0000 1.0000
46.2900 777.0000 1.0000
46.3000 808.0000 1.0000
46.3100 794.0000 1.0000
46.3200 826.0000 1.0000
46.3300 812.0000 1.0000
46.3400 734.0000 1.0000
46.3500 781.0000 1.0000
46.3600 802.0000 1.0000
46.3700 779.0000 1.0000
46.3800 791.0000 1.0000
46.3900 791.0000 1.0000
46.4000 788.0000 1.0000
46.4100 821.0000 1.0000
46.4200 817.0000 1.0000
46.4300 818.0000 1.0000
46.4400 762.0000 1.0000
46.4500 787.0000 1.0000
46.4600 803.0000 1.0000
46.4700 816.0000 1.0000
46.4800 773.0000 1.0000
46.4900 738.0000 1.0000
46.5000 753.0000 1.0000
46.5100 794.0000 1.0000
46.5200 804.0000 1.0000
46.5300 786.0000 1.0000
46.5400 805.0000 1.0000
46.5500 793.0000 1.0000
46.5600 775.0000 1.0000
46.5700 809.0000 1.0000
46.5800 768.0000 1.0000
46.5900 810.0000 1.0000
46.6000 778.0000 1.0000
46.6100 766.0000 1.0000
46.6200 758.0000 1.0000
46.6300 812.0000 1.0000
46.6400 803.0000 1.0000
46.6500 767.0000 1.0000
46.6600 764.0000 1.0000
46.6700 763.0000 1.0000
46.6800 759.0000 1.0000
46.6900 802.0000 1.0000
46.7000 787.0000 1.0000
46.7100 775.0000 1.0000
46.7200 827.0000 1.0000
46.7300 845.0000 1.0000
46.7400 772.0000 1.0000
46.7500 745.0000 1.0000
46.7600 731.0000 1.0000
46.7700 768.0000 1.0000
46.7800 775.0000 1.0000
46.7900 748.0000 1.0000
46.8000 768.0000 1.0000
46.8100 749.0000 1.0000
46.8200 767.0000 1.0000
46.8300 793.0000 1.0000
46.8400 773.0000 1.0000
46.8500 752.0000 1.0000
46.8600 797.0000 1.0000
46.8700 772.0000 1.0000
46.8800 762.0000 1.0000
46.8900 766.0000 1.0000
46.9000 756.0000 1.0000
46.9100 794.0000 1.0000
46.9200 825.0000 1.0000
46.9300 802.0000 1.0000
46.9400 790.0000 1.0000
46.9500 756.0000 1.0000
46.9600 752.0000 1.0000
46.9700 817.0000 1.0000
46.9800 823.0000 1.0000
46.9900 803.0000 1.0000
47.0000 756.0000 1.0000
47.0100 826.0000 1.0000
47.0200 790.0000 1.0000
47.0300 793.0000 1.0000
47.0400 797.0000 1.0000
47.0500 798.0000 1.0000
47.0600 788.0000 1.0000
47.0700 804.0000 1.0000
47.0800 773.0000 1.0000
47.0900 838.0000 1.0000
47.1000 803.0000 1.0000
47.1100 813.0000 1.0000
47.1200 778.0000 1.0000
47.1300 799.0000 1.0000
47.1400 768.0000 1.0000
47.1500 810.0000 1.0000
47.1600 837.0000 1.0000
47.1700 762.0000 1.0000
47.1800 778.0000 1.0000
47.1900 768.0000 1.0000
47.2000 785.0000 1.0000
47.2100 787.0000 1.0000
47.2200 802.0000 1.0000
47.2300 781.0000 1.0000
47.2400 768.0000 1.0000
47.2500 816.0000 1.0000
47.2600 742.0000 1.0000
47.2700 752.0000 1.0000
47.2800 783.0000 1.0000
47.2900 787.0000 1.0000
47.3000 811.0000 1.0000
47.3100 766.0000 1.0000
47.3200 760.0000 1.0000
47.3300 799.0000 1.0000
47.3400 702.0000 1.0000
47.3500 747.0000 1.0000
47.3600 770.0000 1.0000
47.3700 761.0000 1.0000
47.3800 769.0000 1.0000
47.3900 759.0000 1.0000
47.4000 778.0000 1.0000
47.4100 756.0000 1.0000
47.4200 738.0000 1.0000
47.4300 745.0000 1.0000
47.4400 770.0000 1.0000
47.4500 751.0000 1.0000
47.4600 777.0000 1.0000
47.4700 795.0000 1.0000
47.4800 753.0000 1.0000
47.4900 777.0000 1.0000
47.5000 798.0000 1.0000
47.5100 806.0000 1.0000
47.5200 741.0000 1.0000
47.5300 733.0000 1.0000
47.5400 777.0000 1.0000
47.5500 772.0000 1.0000
47.5600 756.0000 1.0000
47.5700 729.0000 1.0000
47.5800 740.0000 1.0000
47.5900 759.0000 1.0000
47.6000 750.0000 1.0000
47.6100 779.0000 1.0000
47.6200 764.0000 1.0000
47.6300 761.0000 1.0000
47.6400 761.0000 1.0000
47.6500 766.0000 1.0000
47.6600 754.0000 1.0000
47.6700 754.0000 1.0000
47.6800 778.0000 1.0000
47.6900 783.0000 1.0000
47.7000 783.0000 1.0000
47.7100 759.0000 1.0000
47.7200 797.0000 1.0000
47.7300 709.0000 1.0000
47.7400 789.0000 1.0000
47.7500 734.0000 1.0000
47.7600 767.0000 1.0000
47.7700 755.0000 1.0000
47.7800 715.0000 1.0000
47.7900 766.0000 1.0000
47.8000 737.0000 1.0000
47.8100 757.0000 1.0000
47.8200 766.0000 1.0000
47.8300 771.0000 1.0000
47.8400 783.0000 1.0000
47.8500 747.0000 1.0000
47.8600 764.0000 1.0000
47.8700 774.0000 1.0000
47.8800 758.0000 1.0000
47.8900 748.0000 1.0000
47.9000 779.0000 1.0000
47.9100 777.0000 1.0000
47.9200 735.0000 1.0000
47.9300 717.0000 1.0000
47.9400 763.0000 1.0000
47.9500 763.0000 1.0000
47.9600 765.0000 1.0000
47.9700 788.0000 1.0000
47.9800 784.0000 1.0000
47.9900 727.0000 1.0000
48.0000 737.0000 1.0000
48.0100 759.0000 1.0000
48.0200 748.0000 1.0000
48.0300 764.0000 1.0000
48.0400 772.0000 1.0000
48.0500 783.0000 1.0000
48.0600 826.0000 1.0000
48.0700 763.0000 1.0000
48.0800 792.0000 1.0000
48.0900 758.0000 1.0000
48.1000 746.0000 1.0000
48.1100 778.0000 1.0000
48.1200 742.0000 1.0000
48.1300 758.0000 1.0000
48.1400 761.0000 1.0000
48.1500 723.0000 1.0000
48.1600 766.0000 1.0000
48.1700 801.0000 1.0000
48.1800 758.0000 1.0000
48.1900 783.0000 1.0000
48.2000 754.0000 1.0000
48.2100 757.0000 1.0000
48.2200 796.0000 1.0000
48.2300 758.0000 1.0000
48.2400 767.0000 1.0000
48.2500 769.0000 1.0000
48.2600 698.0000 1.0000
48.2700 738.0000 1.0000
48.2800 730.0000 1.0000
48.2900 706.0000 1.0000
48.3000 759.0000 1.0000
48.3100 775.0000 1.0000
48.3200 721.0000 1.0000
48.3300 765.0000 1.0000
48.3400 735.0000 1.0000
48.3500 747.0000 1.0000
48.3600 769.0000 1.0000
48.3700 792.0000 1.0000
48.3800 742.0000 1.0000
48.3900 759.0000 1.0000
48.4000 765.0000 1.0000
48.4100 739.0000 1.0000
48.4200 741.0000 1.0000
48.4300 734.0000 1.0000
48.4400 734.0000 1.0000
48.4500 768.0000 1.0000
48.4600 756.0000 1.0000
48.4700 784.0000 1.0000
48.4800 770.0000 1.0000
48.4900 717.0000 1.0000
48.5000 773.0000 1.0000
48.5100 746.0000 1.0000
48.5200 745.0000 1.0000
48.5300 715.0000 1.0000
48.5400 784.0000 1.0000
48.5500 738.0000 1.0000
48.5600 727.0000 1.0000
48.5700 726.0000 1.0000
48.5800 745.0000 1.0000
48.5900 735.0000 1.0000
48.6000 761.0000 1.0000
48.6100 789.0000 1.0000
48.6200 758.0000 1.0000
48.6300 733.0000 1.0000
48.6400 772.0000 1.0000
48.6500 758.0000 1.0000
48.6600 732.0000 1.0000
48.6700 723.0000 1.0000
48.6800 759.0000 1.0000
48.6900 764.0000 1.0000
48.7000 748.0000 1.0000
48.7100 728.0000 1.0000
48.7200 717.0000 1.0000
48.7300 732.0000 1.0000
48.7400 776.0000 1.0000
48.7500 758.0000 1.0000
48.7600 712.0000 1.0000
48.7700 752.0000 1.0000
48.7800 727.0000 1.0000
48.7900 718.0000 1.0000
48.8000 712.0000 1.0000
48.8100 774.0000 1.0000
48.8200 741.0000 1.0000
48.8300 720.0000 1.0000
48.8400 711.0000 1.0000
48.8500 758.0000 1.0000
48.8600 792.0000 1.0000
48.8700 773.0000 1.0000
48.8800 708.0000 1.0000
48.8900 714.0000 1.0000
48.9000 769.0000 1.0000
48.9100 739.0000 1.0000
48.9200 703.0000 1.0000
48.9300 761.0000 1.0000
48.9400 774.0000 1.0000
48.9500 752.0000 1.0000
48.9600 743.0000 1.0000
48.9700 734.0000 1.0000
48.9800 728.0000 1.0000
48.9900 722.0000 1.0000
49.0000 702.0000 1.0000
49.0100 735.0000 1.0000
49.0200 734.0000 1.0000
49.0300 734.0000 1.0000
49.0400 726.0000 1.0000
49.0500 722.0000 1.0000
49.0600 775.0000 1.0000
49.0700 708.0000 1.0000
49.0800 735.0000 1.0000
49.0900 712.0000 1.0000
49.1000 726.0000 1.0000
49.1100 749.0000 1.0000
49.1200 744.0000 1.0000
49.1300 762.0000 1.0000
49.1400 750.0000 1.0000
49.1500 706.0000 1.0000
49.1600 743.0000 1.0000
49.1700 765.0000 1.0000
49.1800 731.0000 1.0000
49.1900 717.0000 1.0000
49.2000 747.0000 1.0000
49.2100 720.0000 1.0000
49.2200 724.0000 1.0000
49.2300 731.0000 1.0000
49.2400 742.0000 1.0000
49.2500 779.0000 1.0000
49.2600 755.0000 1.0000
49.2700 744.0000 1.0000
49.2800 683.0000 1.0000
49.2900 733.0000 1.0000
49.3000 732.0000 1.0000
49.3100 743.0000 1.0000
49.3200 764.0000 1.0000
49.3300 777.0000 1.0000
49.3400 733.0000 1.0000
49.3500 771.0000 1.0000
49.3600 725.0000 1.0000
49.3700 678.0000 1.0000
49.3800 720.0000 1.0000
49.3900 788.0000 1.0000
49.4000 736.0000 1.0000
49.4100 711.0000 1.0000
49.4200 739.0000 1.0000
49.4300 709.0000 1.0000
49.4400 727.0000 1.0000
49.4500 719.0000 1.0000
49.4600 758.0000 1.0000
49.4700 725.0000 1.0000
49.4800 729.0000 1.0000
49.4900 727.0000 1.0000
49.5000 724.0000 1.0000
49.5100 761.0000 1.0000
49.5200 723.0000 1.0000
49.5300 729.0000 1.0000
49.5400 729.0000 1.0000
49.5500 737.0000 1.0000
49.5600 724.0000 1.0000
49.5700 718.0000 1.0000
49.5800 737.0000 1.0000
49.5900 748.0000 1.0000
49.6000 747.0000 1.0000
49.6100 741.0000 1.0000
49.6200 697.0000 1.0000
49.6300 715.0000 1.0000
49.6400 735.0000 1.0000
49.6500 744.0000 1.0000
49.6600 750.0000 1.0000
49.6700 698.0000 1.0000
49.6800 737.0000 1.0000
49.6900 740.0000 1.0000
49.7000 712.0000 1.0000
49.7100 778.0000 1.0000
49.7200 761.0000 1.0000
49.7300 765.0000 1.0000
49.7400 728.0000 1.0000
49.7500 760.0000 1.0000
49.7600 730.0000 1.0000
49.7700 744.0000 1.0000
49.7800 691.0000 1.0000
49.7900 689.0000 1.0000
49.8000 733.0000 1.0000
49.8100 753.0000 1.0000
49.8200 739.0000 1.0000
49.8300 729.0000 1.0000
49.8400 689.0000 1.0000
49.8500 749.0000 1.0000
49.8600 811.0000 1.0000
49.8700 761.0000 1.0000
49.8800 720.0000 1.0000
49.8900 743.0000 1.0000
49.9000 749.0000 1.0000
49.9100 734.0000 1.0000
49.9200 747.0000 1.0000
49.9300 756.0000 1.0000
49.9400 758.0000 1.0000
49.9500 741.0000 1.0000
49.9600 722.0000 1.0000
49.9700 781.0000 1.0000
49.9800 734.0000 1.0000
49.9900 728.0000 1.0000
50.0000 737.0000 1.0000
50.0100 724.0000 1.0000
50.0200 736.0000 1.0000
50.0300 776.0000 1.0000
50.0400 742.0000 1.0000
50.0500 761.0000 1.0000
50.0600 742.0000 1.0000
50.0700 783.0000 1.0000
50.0800 772.0000 1.0000
50.0900 712.0000 1.0000
50.1000 743.0000 1.0000
50.1100 753.0000 1.0000
50.1200 715.0000 1.0000
50.1300 755.0000 1.0000
50.1400 769.0000 1.0000
50.1500 774.0000 1.0000
50.1600 778.0000 1.0000
50.1700 771.0000 1.0000
50.1800 803.0000 1.0000
50.1900 800.0000 1.0000
50.2000 834.0000 1.0000
50.2100 796.0000 1.0000
50.2200 794.0000 1.0000
50.2300 785.0000 1.0000
50.2400 737.0000 1.0000
50.2500 764.0000 1.0000
50.2600 755.0000 1.0000
50.2700 766.0000 1.0000
50.2800 847.0000 1.0000
50.2900 730.0000 1.0000
50.3000 772.0000 1.0000
50.3100 778.0000 1.0000
50.3200 756.0000 1.0000
50.3300 763.0000 1.0000
50.3400 764.0000 1.0000
50.3500 722.0000 1.0000
50.3600 820.0000 1.0000
50.3700 774.0000 1.0000
50.3800 755.0000 1.0000
50.3900 760.0000 1.0000
50.4000 732.0000 1.0000
50.4100 763.0000 1.0000
50.4200 813.0000 1.0000
50.4300 751.0000 1.0000
50.4400 734.0000 1.0000
50.4500 771.0000 1.0000
50.4600 721.0000 1.0000
50.4700 739.0000 1.0000
50.4800 782.0000 1.0000
50.4900 741.0000 1.0000
50.5000 751.0000 1.0000
50.5100 747.0000 1.0000
50.5200 720.0000 1.0000
50.5300 739.0000 1.0000
50.5400 769.0000 1.0000
50.5500 768.0000 1.0000
50.5600 740.0000 1.0000
50.5700 767.0000 1.0000
50.5800 733.0000 1.0000
50.5900 712.0000 1.0000
50.6000 757.0000 1.0000
50.6100 778.0000 1.0000
50.6200 763.0000 1.0000
50.6300 731.0000 1.0000
50.6400 718.0000 1.0000
50.6500 723.0000 1.0000
50.6600 734.0000 1.0000
50.6700 723.0000 1.0000
50.6800 767.0000 1.0000
50.6900 768.0000 1.0000
50.7000 749.0000 1.0000
50.7100 784.0000 1.0000
50.7200 733.0000 1.0000
50.7300 717.0000 1.0000
50.7400 751.0000 1.0000
50.7500 734.0000 1.0000
50.7600 689.0000 1.0000
50.7700 755.0000 1.0000
50.7800 779.0000 1.0000
50.7900 744.0000 1.0000
50.8000 696.0000 1.0000
50.8100 737.0000 1.0000
50.8200 770.0000 1.0000
50.8300 755.0000 1.0000
50.8400 758.0000 1.0000
50.8500 742.0000 1.0000
50.8600 736.0000 1.0000
50.8700 720.0000 1.0000
50.8800 719.0000 1.0000
50.8900 743.0000 1.0000
50.9000 734.0000 1.0000
50.9100 749.0000 1.0000
50.9200 781.0000 1.0000
50.9300 760.0000 1.0000
50.9400 758.0000 1.0000
50.9500 722.0000 1.0000
50.9600 766.0000 1.0000
50.9700 765.0000 1.0000
50.9800 755.0000 1.0000
50.9900 749.0000 1.0000
51.0000 768.0000 1.0000
51.0100 805.0000 1.0000
51.0200 718.0000 1.0000
51.0300 763.0000 1.0000
51.0400 681.0000 1.0000
51.0500 742.0000 1.0000
51.0600 737.0000 1.0000
51.0700 753.0000 1.0000
51.0800 781.0000 1.0000
51.0900 771.0000 1.0000
51.1000 736.0000 1.0000
51.1100 750.0000 1.0000
51.1200 777.0000 1.0000
51.1300 750.0000 1.0000
51.1400 767.0000 1.0000
51.1500 763.0000 1.0000
51.1600 754.0000 1.0000
51.1700 763.0000 1.0000
51.1800 761.0000 1.0000
51.1900 765.0000 1.0000
51.2000 744.0000 1.0000
51.2100 767.0000 1.0000
51.2200 779.0000 1.0000
51.2300 749.0000 1.0000
51.2400 723.0000 1.0000
51.2500 759.0000 1.0000
51.2600 728.0000 1.0000
51.2700 695.0000 1.0000
51.2800 734.0000 1.0000
51.2900 733.0000 1.0000
51.3000 795.0000 1.0000
51.3100 813.0000 1.0000
51.3200 709.0000 1.0000
51.3300 733.0000 1.0000
51.3400 744.0000 1.0000
51.3500 768.0000 1.0000
51.3600 727.0000 1.0000
51.3700 822.0000 1.0000
51.3800 773.0000 1.0000
51.3900 711.0000 1.0000
51.4000 792.0000 1.0000
51.4100 763.0000 1.0000
51.4200 739.0000 1.0000
51.4300 798.0000 1.0000
51.4400 788.0000 1.0000
51.4500 775.0000 1.0000
51.4600 785.0000 1.0000
51.4700 825.0000 1.0000
51.4800 792.0000 1.0000
51.4900 724.0000 1.0000
51.5000 751.0000 1.0000
51.5100 778.0000 1.0000
51.5200 776.0000 1.0000
51.5300 804.0000 1.0000
51.5400 850.0000 1.0000
51.5500 803.0000 1.0000
51.5600 758.0000 1.0000
51.5700 779.0000 1.0000
51.5800 782.0000 1.0000
51.5900 781.0000 1.0000
51.6000 771.0000 1.0000
51.6100 786.0000 1.0000
51.6200 768.0000 1.0000
51.6300 808.0000 1.0000
51.6400 750.0000 1.0000
51.6500 764.0000 1.0000
51.6600 781.0000 1.0000
51.6700 779.0000 1.0000
51.6800 800.0000 1.0000
51.6900 748.0000 1.0000
51.7000 791.0000 1.0000
51.7100 803.0000 1.0000
51.7200 772.0000 1.0000
51.7300 809.0000 1.0000
51.7400 812.0000 1.0000
51.7500 810.0000 1.0000
51.7600 837.0000 1.0000
51.7700 839.0000 1.0000
51.7800 805.0000 1.0000
51.7900 830.0000 1.0000
51.8000 859.0000 1.0000
51.8100 875.0000 1.0000
51.8200 810.0000 1.0000
51.8300 847.0000 1.0000
51.8400 854.0000 1.0000
51.8500 879.0000 1.0000
51.8600 856.0000 1.0000
51.8700 863.0000 1.0000
51.8800 953.0000 1.0000
51.8900 948.0000 1.0000
51.9000 920.0000 1.0000
51.9100 940.0000 1.0000
51.9200 966.0000 1.0000
51.9300 1011.0000 1.0000
51.9400 1102.0000 1.0000
51.9500 1055.0000 1.0000
51.9600 1050.0000 1.0000
51.9700 1043.0000 1.0000
51.9800 1119.0000 1.0000
51.9900 1170.0000 1.0000
52.0000 1199.0000 1.0000
52.0100 1262.0000 1.0000
52.0200 1277.0000 1.0000
52.0300 1279.0000 1.0000
52.0400 1335.0000 1.0000
52.0500 1455.0000 1.0000
52.0600 1530.0000 1.0000
52.0700 1543.0000 1.0000
52.0800 1607.0000 1.0000
52.0900 1668.0000 1.0000
52.1000 1720.0000 1.0000
52.1100 1904.0000 1.0000
52.1200 2005.0000 1.0000
52.1300 2164.0000 1.0000
52.1400 2362.0000 1.0000
52.1500 2524.0000 1.0000
52.1600 2823.0000 1.0000
52.1700 3038.0000 1.0000
52.1800 3278.0000 1.0000
52.1900 3537.0000 1.0000
52.2000 3871.0000 1.0000
52.2100 4155.0000 1.0000
52.2200 4600.0000 1.0000
52.2300 4738.0000 1.0000
52.2400 4981.0000 1.0000
52.2500 5174.0000 1.0000
52.2600 5377.0000 1.0000
52.2700 5427.0000 1.0000
52.2800 5457.0000 1.0000
52.2900 5393.0000 1.0000
52.3000 5370.0000 1.0000
52.3100 5330.0000 1.0000
52.3200 5181.0000 1.0000
52.3300 4891.0000 1.0000
52.3400 4763.0000 1.0000
52.3500 4617.0000 1.0000
52.3600 4577.0000 1.0000
52.3700 4485.0000 1.0000
52.3800 4486.0000 1.0000
52.3900 4265.0000 1.0000
52.4000 4121.0000 1.0000
52.4100 4077.0000 1.0000
52.4200 3933.0000 1.0000
52.4300 3762.0000 1.0000
52.4400 3462.0000 1.0000
52.4500 3377.0000 1.0000
52.4600 3127.0000 1.0000
52.4700 2840.0000 1.0000
52.4800 2667.0000 1.0000
52.4900 2500.0000 1.0000
52.5000 2330.0000 1.0000
52.5100 2120.0000 1.0000
52.5200 1976.0000 1.0000
52.5300 1889.0000 1.0000
52.5400 1822.0000 1.0000
52.5500 1664.0000 1.0000
52.5600 1646.0000 1.0000
52.5700 1513.0000 1.0000
52.5800 1439.0000 1.0000
52.5900 1388.0000 1.0000
52.6000 1358.0000 1.0000
52.6100 1247.0000 1.0000
52.6200 1257.0000 1.0000
52.6300 1222.0000 1.0000
52.6400 1208.0000 1.0000
52.6500 1172.0000 1.0000
52.6600 1098.0000 1.0000
52.6700 1090.0000 1.0000
52.6800 1044.0000 1.0000
52.6900 1124.0000 1.0000
52.7000 997.0000 1.0000
52.7100 970.0000 1.0000
52.7200 978.0000 1.0000
52.7300 965.0000 1.0000
52.7400 962.0000 1.0000
52.7500 947.0000 1.0000
52.7600 907.0000 1.0000
52.7700 890.0000 1.0000
52.7800 949.0000 1.0000
52.7900 882.0000 1.0000
52.8000 896.0000 1.0000
52.8100 884.0000 1.0000
52.8200 891.0000 1.0000
52.8300 854.0000 1.0000
52.8400 834.0000 1.0000
52.8500 827.0000 1.0000
52.8600 865.0000 1.0000
52.8700 861.0000 1.0000
52.8800 849.0000 1.0000
52.8900 855.0000 1.0000
52.9000 844.0000 1.0000
52.9100 818.0000 1.0000
52.9200 813.0000 1.0000
52.9300 767.0000 1.0000
52.9400 766.0000 1.0000
52.9500 846.0000 1.0000
52.9600 824.0000 1.0000
52.9700 787.0000 1.0000
52.9800 837.0000 1.0000
52.9900 816.0000 1.0000
53.0000 843.0000 1.0000
53.0100 796.0000 1.0000
53.0200 825.0000 1.0000
53.0300 828.0000 1.0000
53.0400 769.0000 1.0000
53.0500 798.0000 1.0000
53.0600 776.0000 1.0000
53.0700 755.0000 1.0000
53.0800 820.0000 1.0000
53.0900 805.0000 1.0000
53.1000 769.0000 1.0000
53.1100 771.0000 1.0000
53.1200 786.0000 1.0000
53.1300 774.0000 1.0000
53.1400 757.0000 1.0000
53.1500 765.0000 1.0000
53.1600 763.0000 1.0000
53.1700 789.0000 1.0000
53.1800 768.0000 1.0000
53.1900 762.0000 1.0000
53.2000 721.0000 1.0000
53.2100 765.0000 1.0000
53.2200 756.0000 1.0000
53.2300 750.0000 1.0000
53.2400 766.0000 1.0000
53.2500 765.0000 1.0000
53.2600 770.0000 1.0000
53.2700 784.0000 1.0000
53.2800 730.0000 1.0000
53.2900 772.0000 1.0000
53.3000 784.0000 1.0000
53.3100 770.0000 1.0000
53.3200 742.0000 1.0000
53.3300 734.0000 1.0000
53.3400 725.0000 1.0000
53.3500 711.0000 1.0000
53.3600 777.0000 1.0000
53.3700 723.0000 1.0000
53.3800 754.0000 1.0000
53.3900 737.0000 1.0000
53.4000 769.0000 1.0000
53.4100 784.0000 1.0000
53.4200 781.0000 1.0000
53.4300 749.0000 1.0000
53.4400 770.0000 1.0000
53.4500 740.0000 1.0000
53.4600 757.0000 1.0000
53.4700 775.0000 1.0000
53.4800 755.0000 1.0000
53.4900 733.0000 1.0000
53.5000 752.0000 1.0000
53.5100 736.0000 1.0000
53.5200 747.0000 1.0000
53.5300 732.0000 1.0000
53.5400 731.0000 1.0000
53.5500 729.0000 1.0000
53.5600 717.0000 1.0000
53.5700 720.0000 1.0000
53.5800 776.0000 1.0000
53.5900 764.0000 1.0000
53.6000 743.0000 1.0000
53.6100 766.0000 1.0000
53.6200 779.0000 1.0000
53.6300 754.0000 1.0000
53.6400 713.0000 1.0000
53.6500 717.0000 1.0000
53.6600 685.0000 1.0000
53.6700 703.0000 1.0000
53.6800 729.0000 1.0000
53.6900 740.0000 1.0000
53.7000 727.0000 1.0000
53.7100 711.0000 1.0000
53.7200 703.0000 1.0000
53.7300 762.0000 1.0000
53.7400 743.0000 1.0000
53.7500 765.0000 1.0000
53.7600 783.0000 1.0000
53.7700 742.0000 1.0000
53.7800 743.0000 1.0000
53.7900 732.0000 1.0000
53.8000 702.0000 1.0000
53.8100 743.0000 1.0000
53.8200 719.0000 1.0000
53.8300 753.0000 1.0000
53.8400 735.0000 1.0000
53.8500 704.0000 1.0000
53.8600 738.0000 1.0000
53.8700 763.0000 1.0000
53.8800 791.0000 1.0000
53.8900 747.0000 1.0000
53.9000 736.0000 1.0000
53.9100 754.0000 1.0000
53.9200 752.0000 1.0000
53.9300 768.0000 1.0000
53.9400 721.0000 1.0000
53.9500 708.0000 1.0000
53.9600 740.0000 1.0000
53.9700 741.0000 1.0000
53.9800 723.0000 1.0000
53.9900 715.0000 1.0000
54.0000 730.0000 1.0000
54.0100 744.0000 1.0000
54.0200 794.0000 1.0000
54.0300 754.0000 1.0000
54.0400 764.0000 1.0000
54.0500 733.0000 1.0000
54.0600 754.0000 1.0000
54.0700 747.0000 1.0000
54.0800 715.0000 1.0000
54.0900 714.0000 1.0000
54.1000 706.0000 1.0000
54.1100 723.0000 1.0000
54.1200 756.0000 1.0000
54.1300 747.0000 1.0000
54.1400 730.0000 1.0000
54.1500 712.0000 1.0000
54.1600 715.0000 1.0000
54.1700 722.0000 1.0000
54.1800 716.0000 1.0000
54.1900 707.0000 1.0000
54.2000 746.0000 1.0000
54.2100 720.0000 1.0000
54.2200 761.0000 1.0000
54.2300 697.0000 1.0000
54.2400 765.0000 1.0000
54.2500 716.0000 1.0000
54.2600 751.0000 1.0000
54.2700 744.0000 1.0000
54.2800 737.0000 1.0000
54.2900 723.0000 1.0000
54.3000 710.0000 1.0000
54.3100 720.0000 1.0000
54.3200 707.0000 1.0000
54.3300 756.0000 1.0000
54.3400 748.0000 1.0000
54.3500 675.0000 1.0000
54.3600 704.0000 1.0000
54.3700 714.0000 1.0000
54.3800 734.0000 1.0000
54.3900 703.0000 1.0000
54.4000 731.0000 1.0000
54.4100 715.0000 1.0000
54.4200 726.0000 1.0000
54.4300 730.0000 1.0000
54.4400 698.0000 1.0000
54.4500 727.0000 1.0000
54.4600 711.0000 1.0000
54.4700 741.0000 1.0000
54.4800 709.0000 1.0000
54.4900 728.0000 1.0000
54.5000 756.0000 1.0000
54.5100 747.0000 1.0000
54.5200 756.0000 1.0000
54.5300 690.0000 1.0000
54.5400 689.0000 1.0000
54.5500 717.0000 1.0000
54.5600 791.0000 1.0000
54.5700 735.0000 1.0000
54.5800 721.0000 1.0000
54.5900 779.0000 1.0000
54.6000 738.0000 1.0000
54.6100 731.0000 1.0000
54.6200 729.0000 1.0000
54.6300 742.0000 1.0000
54.6400 736.0000 1.0000
54.6500 747.0000 1.0000
54.6600 785.0000 1.0000
54.6700 748.0000 1.0000
54.6800 729.0000 1.0000
54.6900 769.0000 1.0000
54.7000 752.0000 1.0000
54.7100 768.0000 1.0000
54.7200 766.0000 1.0000
54.7300 770.0000 1.0000
54.7400 791.0000 1.0000
54.7500 731.0000 1.0000
54.7600 748.0000 1.0000
54.7700 800.0000 1.0000
54.7800 792.0000 1.0000
54.7900 791.0000 1.0000
54.8000 811.0000 1.0000
54.8100 792.0000 1.0000
54.8200 790.0000 1.0000
54.8300 785.0000 1.0000
54.8400 826.0000 1.0000
54.8500 742.0000 1.0000
54.8600 773.0000 1.0000
54.8700 754.0000 1.0000
54.8800 789.0000 1.0000
54.8900 804.0000 1.0000
54.9000 776.0000 1.0000
54.9100 763.0000 1.0000
54.9200 767.0000 1.0000
54.9300 760.0000 1.0000
54.9400 789.0000 1.0000
54.9500 810.0000 1.0000
54.9600 813.0000 1.0000
54.9700 772.0000 1.0000
54.9800 792.0000 1.0000
54.9900 857.0000 1.0000
55.0000 791.0000 1.0000
55.0100 787.0000 1.0000
55.0200 776.0000 1.0000
55.0300 795.0000 1.0000
55.0400 762.0000 1.0000
55.0500 817.0000 1.0000
55.0600 829.0000 1.0000
55.0700 842.0000 1.0000
55.0800 791.0000 1.0000
55.0900 822.0000 1.0000
55.1000 865.0000 1.0000
55.1100 877.0000 1.0000
55.1200 909.0000 1.0000
55.1300 843.0000 1.0000
55.1400 860.0000 1.0000
55.1500 945.0000 1.0000
55.1600 897.0000 1.0000
55.1700 945.0000 1.0000
55.1800 966.0000 1.0000
55.1900 935.0000 1.0000
55.2000 971.0000 1.0000
55.2100 992.0000 1.0000
55.2200 1027.0000 1.0000
55.2300 1059.0000 1.0000
55.2400 1088.0000 1.0000
55.2500 1091.0000 1.0000
55.2600 1090.0000 1.0000
55.2700 1095.0000 1.0000
55.2800 1138.0000 1.0000
55.2900 1080.0000 1.0000
55.3000 1148.0000 1.0000
55.3100 1147.0000 1.0000
55.3200 1106.0000 1.0000
55.3300 1047.0000 1.0000
55.3400 1103.0000 1.0000
55.3500 1037.0000 1.0000
55.3600 1094.0000 1.0000
55.3700 1013.0000 1.0000
55.3800 1021.0000 1.0000
55.3900 1082.0000 1.0000
55.4000 1069.0000 1.0000
55.4100 1015.0000 1.0000
55.4200 1029.0000 1.0000
55.4300 984.0000 1.0000
55.4400 979.0000 1.0000
55.4500 998.0000 1.0000
55.4600 965.0000 1.0000
55.4700 925.0000 1.0000
55.4800 933.0000 1.0000
55.4900 920.0000 1.0000
55.5000 884.0000 1.0000
55.5100 920.0000 1.0000
55.5200 873.0000 1.0000
55.5300 838.0000 1.0000
55.5400 859.0000 1.0000
55.5500 887.0000 1.0000
55.5600 872.0000 1.0000
55.5700 820.0000 1.0000
55.5800 846.0000 1.0000
55.5900 867.0000 1.0000
55.6000 864.0000 1.0000
55.6100 857.0000 1.0000
55.6200 775.0000 1.0000
55.6300 833.0000 1.0000
55.6400 771.0000 1.0000
55.6500 795.0000 1.0000
55.6600 808.0000 1.0000
55.6700 755.0000 1.0000
55.6800 781.0000 1.0000
55.6900 738.0000 1.0000
55.7000 807.0000 1.0000
55.7100 748.0000 1.0000
55.7200 728.0000 1.0000
55.7300 739.0000 1.0000
55.7400 773.0000 1.0000
55.7500 770.0000 1.0000
55.7600 737.0000 1.0000
55.7700 694.0000 1.0000
55.7800 772.0000 1.0000
55.7900 732.0000 1.0000
55.8000 701.0000 1.0000
55.8100 696.0000 1.0000
55.8200 720.0000 1.0000
55.8300 719.0000 1.0000
55.8400 705.0000 1.0000
55.8500 731.0000 1.0000
55.8600 752.0000 1.0000
55.8700 721.0000 1.0000
55.8800 746.0000 1.0000
55.8900 714.0000 1.0000
55.9000 746.0000 1.0000
55.9100 757.0000 1.0000
55.9200 699.0000 1.0000
55.9300 714.0000 1.0000
55.9400 701.0000 1.0000
55.9500 726.0000 1.0000
55.9600 662.0000 1.0000
55.9700 675.0000 1.0000
55.9800 684.0000 1.0000
55.9900 708.0000 1.0000
56.0000 732.0000 1.0000
56.0100 693.0000 1.0000
56.0200 702.0000 1.0000
56.0300 696.0000 1.0000
56.0400 756.0000 1.0000
56.0500 701.0000 1.0000
56.0600 718.0000 1.0000
56.0700 720.0000 1.0000
56.0800 778.0000 1.0000
56.0900 707.0000 1.0000
56.1000 726.0000 1.0000
56.1100 720.0000 1.0000
56.1200 726.0000 1.0000
56.1300 705.0000 1.0000
56.1400 738.0000 1.0000
56.1500 711.0000 1.0000
56.1600 748.0000 1.0000
56.1700 685.0000 1.0000
56.1800 702.0000 1.0000
56.1900 697.0000 1.0000
56.2000 691.0000 1.0000
56.2100 709.0000 1.0000
56.2200 693.0000 1.0000
56.2300 663.0000 1.0000
56.2400 689.0000 1.0000
56.2500 726.0000 1.0000
56.2600 713.0000 1.0000
56.2700 719.0000 1.0000
56.2800 738.0000 1.0000
56.2900 707.0000 1.0000
56.3000 658.0000 1.0000
56.3100 675.0000 1.0000
56.3200 707.0000 1.0000
56.3300 647.0000 1.0000
56.3400 711.0000 1.0000
56.3500 700.0000 1.0000
56.3600 717.0000 1.0000
56.3700 692.0000 1.0000
56.3800 674.0000 1.0000
56.3900 727.0000 1.0000
56.4000 698.0000 1.0000
56.4100 685.0000 1.0000
56.4200 707.0000 1.0000
56.4300 704.0000 1.0000
56.4400 714.0000 1.0000
56.4500 728.0000 1.0000
56.4600 717.0000 1.0000
56.4700 725.0000 1.0000
56.4800 685.0000 1.0000
56.4900 679.0000 1.0000
56.5000 668.0000 1.0000
56.5100 669.0000 1.0000
56.5200 698.0000 1.0000
56.5300 711.0000 1.0000
56.5400 672.0000 1.0000
56.5500 664.0000 1.0000
56.5600 735.0000 1.0000
56.5700 704.0000 1.0000
56.5800 676.0000 1.0000
56.5900 733.0000 1.0000
56.6000 696.0000 1.0000
56.6100 723.0000 1.0000
56.6200 698.0000 1.0000
56.6300 740.0000 1.0000
56.6400 682.0000 1.0000
56.6500 719.0000 1.0000
56.6600 688.0000 1.0000
56.6700 731.0000 1.0000
56.6800 657.0000 1.0000
56.6900 699.0000 1.0000
56.7000 680.0000 1.0000
56.7100 658.0000 1.0000
56.7200 690.0000 1.0000
56.7300 706.0000 1.0000
56.7400 725.0000 1.0000
56.7500 684.0000 1.0000
56.7600 732.0000 1.0000
56.7700 757.0000 1.0000
56.7800 691.0000 1.0000
56.7900 671.0000 1.0000
56.8000 718.0000 1.0000
56.8100 689.0000 1.0000
56.8200 685.0000 1.0000
56.8300 689.0000 1.0000
56.8400 721.0000 1.0000
56.8500 675.0000 1.0000
56.8600 712.0000 1.0000
56.8700 685.0000 1.0000
56.8800 672.0000 1.0000
56.8900 714.0000 1.0000
56.9000 715.0000 1.0000
56.9100 685.0000 1.0000
56.9200 709.0000 1.0000
56.9300 702.0000 1.0000
56.9400 702.0000 1.0000
56.9500 711.0000 1.0000
56.9600 707.0000 1.0000
56.9700 681.0000 1.0000
56.9800 728.0000 1.0000
56.9900 694.0000 1.0000
57.0000 741.0000 1.0000
57.0100 695.0000 1.0000
57.0200 698.0000 1.0000
57.0300 700.0000 1.0000
57.0400 680.0000 1.0000
57.0500 736.0000 1.0000
57.0600 722.0000 1.0000
57.0700 730.0000 1.0000
57.0800 715.0000 1.0000
57.0900 716.0000 1.0000
57.1000 689.0000 1.0000
57.1100 723.0000 1.0000
57.1200 721.0000 1.0000
57.1300 680.0000 1.0000
57.1400 694.0000 1.0000
57.1500 687.0000 1.0000
57.1600 675.0000 1.0000
57.1700 673.0000 1.0000
57.1800 677.0000 1.0000
57.1900 673.0000 1.0000
57.2000 689.0000 1.0000
57.2100 709.0000 1.0000
57.2200 658.0000 1.0000
57.2300 700.0000 1.0000
57.2400 628.0000 1.0000
57.2500 704.0000 1.0000
57.2600 720.0000 1.0000
57.2700 713.0000 1.0000
57.2800 711.0000 1.0000
57.2900 688.0000 1.0000
57.3000 662.0000 1.0000
57.3100 730.0000 1.0000
57.3200 676.0000 1.0000
57.3300 711.0000 1.0000
57.3400 697.0000 1.0000
57.3500 704.0000 1.0000
57.3600 680.0000 1.0000
57.3700 699.0000 1.0000
57.3800 660.0000 1.0000
57.3900 657.0000 1.0000
57.4000 657.0000 1.0000
57.4100 687.0000 1.0000
57.4200 718.0000 1.0000
57.4300 708.0000 1.0000
57.4400 722.0000 1.0000
57.4500 678.0000 1.0000
57.4600 657.0000 1.0000
57.4700 666.0000 1.0000
57.4800 697.0000 1.0000
57.4900 669.0000 1.0000
57.5000 686.0000 1.0000
57.5100 662.0000 1.0000
57.5200 668.0000 1.0000
57.5300 682.0000 1.0000
57.5400 717.0000 1.0000
57.5500 712.0000 1.0000
57.5600 712.0000 1.0000
57.5700 708.0000 1.0000
57.5800 663.0000 1.0000
57.5900 683.0000 1.0000
57.6000 701.0000 1.0000
57.6100 668.0000 1.0000
57.6200 672.0000 1.0000
57.6300 674.0000 1.0000
57.6400 697.0000 1.0000
57.6500 687.0000 1.0000
57.6600 687.0000 1.0000
57.6700 705.0000 1.0000
57.6800 700.0000 1.0000
57.6900 758.0000 1.0000
57.7000 684.0000 1.0000
57.7100 677.0000 1.0000
57.7200 677.0000 1.0000
57.7300 668.0000 1.0000
57.7400 701.0000 1.0000
57.7500 710.0000 1.0000
57.7600 668.0000 1.0000
57.7700 684.0000 1.0000
57.7800 740.0000 1.0000
57.7900 716.0000 1.0000
57.8000 712.0000 1.0000
57.8100 672.0000 1.0000
57.8200 701.0000 1.0000
57.8300 747.0000 1.0000
57.8400 691.0000 1.0000
57.8500 677.0000 1.0000
57.8600 676.0000 1.0000
57.8700 680.0000 1.0000
57.8800 690.0000 1.0000
57.8900 674.0000 1.0000
57.9000 692.0000 1.0000
57.9100 695.0000 1.0000
57.9200 729.0000 1.0000
57.9300 741.0000 1.0000
57.9400 651.0000 1.0000
57.9500 669.0000 1.0000
57.9600 733.0000 1.0000
57.9700 716.0000 1.0000
57.9800 676.0000 1.0000
57.9900 726.0000 1.0000
58.0000 720.0000 1.0000
58.0100 654.0000 1.0000
58.0200 686.0000 1.0000
58.0300 714.0000 1.0000
58.0400 696.0000 1.0000
58.0500 702.0000 1.0000
58.0600 695.0000 1.0000
58.0700 712.0000 1.0000
58.0800 706.0000 1.0000
58.0900 706.0000 1.0000
58.1000 701.0000 1.0000
58.1100 732.0000 1.0000
58.1200 691.0000 1.0000
58.1300 697.0000 1.0000
58.1400 736.0000 1.0000
58.1500 709.0000 1.0000
58.1600 731.0000 1.0000
58.1700 712.0000 1.0000
58.1800 661.0000 1.0000
58.1900 716.0000 1.0000
58.2000 740.0000 1.0000
58.2100 729.0000 1.0000
58.2200 747.0000 1.0000
58.2300 697.0000 1.0000
58.2400 705.0000 1.0000
58.2500 723.0000 1.0000
58.2600 695.0000 1.0000
58.2700 725.0000 1.0000
58.2800 704.0000 1.0000
58.2900 676.0000 1.0000
58.3000 712.0000 1.0000
58.3100 710.0000 1.0000
58.3200 687.0000 1.0000
58.3300 689.0000 1.0000
58.3400 722.0000 1.0000
58.3500 708.0000 1.0000
58.3600 682.0000 1.0000
58.3700 690.0000 1.0000
58.3800 696.0000 1.0000
58.3900 713.0000 1.0000
58.4000 738.0000 1.0000
58.4100 700.0000 1.0000
58.4200 677.0000 1.0000
58.4300 684.0000 1.0000
58.4400 684.0000 1.0000
58.4500 713.0000 1.0000
58.4600 730.0000 1.0000
58.4700 712.0000 1.0000
58.4800 681.0000 1.0000
58.4900 700.0000 1.0000
58.5000 657.0000 1.0000
58.5100 666.0000 1.0000
58.5200 649.0000 1.0000
58.5300 672.0000 1.0000
58.5400 730.0000 1.0000
58.5500 750.0000 1.0000
58.5600 710.0000 1.0000
58.5700 701.0000 1.0000
58.5800 687.0000 1.0000
58.5900 703.0000 1.0000
58.6000 676.0000 1.0000
58.6100 685.0000 1.0000
58.6200 682.0000 1.0000
58.6300 731.0000 1.0000
58.6400 694.0000 1.0000
58.6500 734.0000 1.0000
58.6600 671.0000 1.0000
58.6700 701.0000 1.0000
58.6800 668.0000 1.0000
58.6900 688.0000 1.0000
58.7000 690.0000 1.0000
58.7100 738.0000 1.0000
58.7200 731.0000 1.0000
58.7300 697.0000 1.0000
58.7400 691.0000 1.0000
58.7500 676.0000 1.0000
58.7600 679.0000 1.0000
58.7700 689.0000 1.0000
58.7800 713.0000 1.0000
58.7900 693.0000 1.0000
58.8000 698.0000 1.0000
58.8100 688.0000 1.0000
58.8200 679.0000 1.0000
58.8300 713.0000 1.0000
58.8400 693.0000 1.0000
58.8500 736.0000 1.0000
58.8600 703.0000 1.0000
58.8700 666.0000 1.0000
58.8800 677.0000 1.0000
58.8900 681.0000 1.0000
58.9000 667.0000 1.0000
58.9100 730.0000 1.0000
58.9200 706.0000 1.0000
58.9300 661.0000 1.0000
58.9400 664.0000 1.0000
58.9500 688.0000 1.0000
58.9600 698.0000 1.0000
58.9700 665.0000 1.0000
58.9800 689.0000 1.0000
58.9900 709.0000 1.0000
59.0000 683.0000 1.0000
59.0100 732.0000 1.0000
59.0200 694.0000 1.0000
59.0300 667.0000 1.0000
59.0400 672.0000 1.0000
59.0500 699.0000 1.0000
59.0600 699.0000 1.0000
59.0700 710.0000 1.0000
59.0800 653.0000 1.0000
59.0900 692.0000 1.0000
59.1000 655.0000 1.0000
59.1100 685.0000 1.0000
59.1200 661.0000 1.0000
59.1300 705.0000 1.0000
59.1400 708.0000 1.0000
59.1500 681.0000 1.0000
59.1600 690.0000 1.0000
59.1700 693.0000 1.0000
59.1800 686.0000 1.0000
59.1900 670.0000 1.0000
59.2000 733.0000 1.0000
59.2100 721.0000 1.0000
59.2200 720.0000 1.0000
59.2300 657.0000 1.0000
59.2400 711.0000 1.0000
59.2500 705.0000 1.0000
59.2600 696.0000 1.0000
59.2700 736.0000 1.0000
59.2800 720.0000 1.0000
59.2900 686.0000 1.0000
59.3000 686.0000 1.0000
59.3100 697.0000 1.0000
59.3200 725.0000 1.0000
59.3300 667.0000 1.0000
59.3400 663.0000 1.0000
59.3500 704.0000 1.0000
59.3600 683.0000 1.0000
59.3700 698.0000 1.0000
59.3800 702.0000 1.0000
59.3900 664.0000 1.0000
59.4000 700.0000 1.0000
59.4100 668.0000 1.0000
59.4200 681.0000 1.0000
59.4300 712.0000 1.0000
59.4400 716.0000 1.0000
59.4500 679.0000 1.0000
59.4600 669.0000 1.0000
59.4700 674.0000 1.0000
59.4800 712.0000 1.0000
59.4900 687.0000 1.0000
59.5000 695.0000 1.0000
59.5100 733.0000 1.0000
59.5200 683.0000 1.0000
59.5300 698.0000 1.0000
59.5400 695.0000 1.0000
59.5500 729.0000 1.0000
59.5600 697.0000 1.0000
59.5700 700.0000 1.0000
59.5800 712.0000 1.0000
59.5900 728.0000 1.0000
59.6000 688.0000 1.0000
59.6100 691.0000 1.0000
59.6200 672.0000 1.0000
59.6300 743.0000 1.0000
59.6400 719.0000 1.0000
59.6500 705.0000 1.0000
59.6600 771.0000 1.0000
59.6700 683.0000 1.0000
59.6800 719.0000 1.0000
59.6900 676.0000 1.0000
59.7000 746.0000 1.0000
59.7100 685.0000 1.0000
59.7200 665.0000 1.0000
59.7300 693.0000 1.0000
59.7400 705.0000 1.0000
59.7500 701.0000 1.0000
59.7600 686.0000 1.0000
59.7700 733.0000 1.0000
59.7800 675.0000 1.0000
59.7900 717.0000 1.0000
59.8000 669.0000 1.0000
59.8100 657.0000 1.0000
59.8200 721.0000 1.0000
59.8300 675.0000 1.0000
59.8400 686.0000 1.0000
59.8500 706.0000 1.0000
59.8600 714.0000 1.0000
59.8700 681.0000 1.0000
59.8800 672.0000 1.0000
59.8900 694.0000 1.0000
59.9000 677.0000 1.0000
59.9100 700.0000 1.0000
59.9200 644.0000 1.0000
59.9300 618.0000 1.0000
59.9400 660.0000 1.0000
59.9500 685.0000 1.0000
59.9600 690.0000 1.0000
59.9700 645.0000 1.0000
59.9800 682.0000 1.0000
59.9900 676.0000 1.0000
60.0000 690.0000 1.0000
60.0100 714.0000 1.0000
60.0200 711.0000 1.0000
60.0300 699.0000 1.0000
60.0400 714.0000 1.0000
60.0500 659.0000 1.0000
60.0600 715.0000 1.0000
60.0700 624.0000 1.0000
60.0800 743.0000 1.0000
60.0900 713.0000 1.0000
60.1000 713.0000 1.0000
60.1100 700.0000 1.0000
60.1200 694.0000 1.0000
60.1300 695.0000 1.0000
60.1400 666.0000 1.0000
60.1500 688.0000 1.0000
60.1600 694.0000 1.0000
60.1700 704.0000 1.0000
60.1800 705.0000 1.0000
60.1900 706.0000 1.0000
60.2000 738.0000 1.0000
60.2100 688.0000 1.0000
60.2200 698.0000 1.0000
60.2300 709.0000 1.0000
60.2400 723.0000 1.0000
60.2500 700.0000 1.0000
60.2600 680.0000 1.0000
60.2700 679.0000 1.0000
60.2800 697.0000 1.0000
60.2900 711.0000 1.0000
60.3000 717.0000 1.0000
60.3100 695.0000 1.0000
60.3200 709.0000 1.0000
60.3300 643.0000 1.0000
60.3400 699.0000 1.0000
60.3500 719.0000 1.0000
60.3600 675.0000 1.0000
60.3700 709.0000 1.0000
60.3800 699.0000 1.0000
60.3900 705.0000 1.0000
60.4000 691.0000 1.0000
60.4100 710.0000 1.0000
60.4200 671.0000 1.0000
60.4300 668.0000 1.0000
60.4400 682.0000 1.0000
60.4500 671.0000 1.0000
60.4600 695.0000 1.0000
60.4700 683.0000 1.0000
60.4800 688.0000 1.0000
60.4900 713.0000 1.0000
60.5000 709.0000 1.0000
60.5100 692.0000 1.0000
60.5200 656.0000 1.0000
60.5300 685.0000 1.0000
60.5400 730.0000 1.0000
60.5500 707.0000 1.0000
60.5600 669.0000 1.0000
60.5700 715.0000 1.0000
60.5800 656.0000 1.0000
60.5900 707.0000 1.0000
60.6000 638.0000 1.0000
60.6100 686.0000 1.0000
60.6200 696.0000 1.0000
60.6300 707.0000 1.0000
60.6400 701.0000 1.0000
60.6500 697.0000 1.0000
60.6600 730.0000 1.0000
60.6700 673.0000 1.0000
60.6800 680.0000 1.0000
60.6900 702.0000 1.0000
60.7000 688.0000 1.0000
60.7100 688.0000 1.0000
60.7200 648.0000 1.0000
60.7300 674.0000 1.0000
60.7400 701.0000 1.0000
60.7500 711.0000 1.0000
60.7600 729.0000 1.0000
60.7700 713.0000 1.0000
60.7800 709.0000 1.0000
60.7900 663.0000 1.0000
60.8000 673.0000 1.0000
60.8100 662.0000 1.0000
60.8200 689.0000 1.0000
60.8300 711.0000 1.0000
60.8400 688.0000 1.0000
60.8500 689.0000 1.0000
60.8600 685.0000 1.0000
60.8700 654.0000 1.0000
60.8800 655.0000 1.0000
60.8900 660.0000 1.0000
60.9000 678.0000 1.0000
60.9100 663.0000 1.0000
60.9200 667.0000 1.0000
60.9300 703.0000 1.0000
60.9400 691.0000 1.0000
60.9500 664.0000 1.0000
60.9600 732.0000 1.0000
60.9700 679.0000 1.0000
60.9800 682.0000 1.0000
60.9900 680.0000 1.0000
61.0000 730.0000 1.0000
61.0100 715.0000 1.0000
61.0200 681.0000 1.0000
61.0300 682.0000 1.0000
61.0400 679.0000 1.0000
61.0500 706.0000 1.0000
61.0600 667.0000 1.0000
61.0700 677.0000 1.0000
61.0800 662.0000 1.0000
61.0900 631.0000 1.0000
61.1000 661.0000 1.0000
61.1100 698.0000 1.0000
61.1200 702.0000 1.0000
61.1300 712.0000 1.0000
61.1400 682.0000 1.0000
61.1500 731.0000 1.0000
61.1600 666.0000 1.0000
61.1700 711.0000 1.0000
61.1800 682.0000 1.0000
61.1900 713.0000 1.0000
61.2000 704.0000 1.0000
61.2100 666.0000 1.0000
61.2200 663.0000 1.0000
61.2300 701.0000 1.0000
61.2400 679.0000 1.0000
61.2500 687.0000 1.0000
61.2600 719.0000 1.0000
61.2700 695.0000 1.0000
61.2800 692.0000 1.0000
61.2900 660.0000 1.0000
61.3000 694.0000 1.0000
61.3100 642.0000 1.0000
61.3200 686.0000 1.0000
61.3300 688.0000 1.0000
61.3400 715.0000 1.0000
61.3500 701.0000 1.0000
61.3600 696.0000 1.0000
61.3700 700.0000 1.0000
61.3800 742.0000 1.0000
61.3900 711.0000 1.0000
61.4000 735.0000 1.0000
61.4100 704.0000 1.0000
61.4200 697.0000 1.0000
61.4300 702.0000 1.0000
61.4400 705.0000 1.0000
61.4500 694.0000 1.0000
61.4600 675.0000 1.0000
61.4700 688.0000 1.0000
61.4800 728.0000 1.0000
61.4900 718.0000 1.0000
61.5000 746.0000 1.0000
61.5100 701.0000 1.0000
61.5200 740.0000 1.0000
61.5300 703.0000 1.0000
61.5400 681.0000 1.0000
61.5500 722.0000 1.0000
61.5600 719.0000 1.0000
61.5700 713.0000 1.0000
61.5800 725.0000 1.0000
61.5900 721.0000 1.0000
61.6000 707.0000 1.0000
61.6100 715.0000 1.0000
61.6200 694.0000 1.0000
61.6300 721.0000 1.0000
61.6400 726.0000 1.0000
61.6500 727.0000 1.0000
61.6600 685.0000 1.0000
61.6700 683.0000 1.0000
61.6800 707.0000 1.0000
61.6900 696.0000 1.0000
61.7000 751.0000 1.0000
61.7100 750.0000 1.0000
61.7200 720.0000 1.0000
61.7300 745.0000 1.0000
61.7400 746.0000 1.0000
61.7500 741.0000 1.0000
61.7600 751.0000 1.0000
61.7700 729.0000 1.0000
61.7800 773.0000 1.0000
61.7900 749.0000 1.0000
61.8000 726.0000 1.0000
61.8100 743.0000 1.0000
61.8200 782.0000 1.0000
61.8300 778.0000 1.0000
61.8400 723.0000 1.0000
61.8500 752.0000 1.0000
61.8600 762.0000 1.0000
61.8700 739.0000 1.0000
61.8800 787.0000 1.0000
61.8900 748.0000 1.0000
61.9000 777.0000 1.0000
61.9100 812.0000 1.0000
61.9200 767.0000 1.0000
61.9300 795.0000 1.0000
61.9400 820.0000 1.0000
61.9500 834.0000 1.0000
61.9600 849.0000 1.0000
61.9700 787.0000 1.0000
61.9800 847.0000 1.0000
61.9900 832.0000 1.0000
62.0000 890.0000 1.0000
62.0100 870.0000 1.0000
62.0200 905.0000 1.0000
62.0300 951.0000 1.0000
62.0400 939.0000 1.0000
62.0500 955.0000 1.0000
62.0600 963.0000 1.0000
62.0700 993.0000 1.0000
62.0800 985.0000 1.0000
62.0900 1020.0000 1.0000
62.1000 1041.0000 1.0000
62.1100 1078.0000 1.0000
62.1200 1132.0000 1.0000
62.1300 1125.0000 1.0000
62.1400 1234.0000 1.0000
62.1500 1199.0000 1.0000
62.1600 1248.0000 1.0000
62.1700 1255.0000 1.0000
62.1800 1302.0000 1.0000
62.1900 1290.0000 1.0000
62.2000 1435.0000 1.0000
62.2100 1438.0000 1.0000
62.2200 1467.0000 1.0000
62.2300 1451.0000 1.0000
62.2400 1488.0000 1.0000
62.2500 1508.0000 1.0000
62.2600 1506.0000 1.0000
62.2700 1552.0000 1.0000
62.2800 1560.0000 1.0000
62.2900 1604.0000 1.0000
62.3000 1599.0000 1.0000
62.3100 1638.0000 1.0000
62.3200 1565.0000 1.0000
62.3300 1594.0000 1.0000
62.3400 1547.0000 1.0000
62.3500 1564.0000 1.0000
62.3600 1585.0000 1.0000
62.3700 1531.0000 1.0000
62.3800 1544.0000 1.0000
62.3900 1595.0000 1.0000
62.4000 1480.0000 1.0000
62.4100 1548.0000 1.0000
62.4200 1467.0000 1.0000
62.4300 1484.0000 1.0000
62.4400 1422.0000 1.0000
62.4500 1396.0000 1.0000
62.4600 1438.0000 1.0000
62.4700 1347.0000 1.0000
62.4800 1358.0000 1.0000
62.4900 1282.0000 1.0000
62.5000 1300.0000 1.0000
62.5100 1250.0000 1.0000
62.5200 1204.0000 1.0000
62.5300 1168.0000 1.0000
62.5400 1173.0000 1.0000
62.5500 1153.0000 1.0000
62.5600 1171.0000 1.0000
62.5700 1061.0000 1.0000
62.5800 1043.0000 1.0000
62.5900 1072.0000 1.0000
62.6000 1050.0000 1.0000
62.6100 993.0000 1.0000
62.6200 1005.0000 1.0000
62.6300 1017.0000 1.0000
62.6400 927.0000 1.0000
62.6500 937.0000 1.0000
62.6600 970.0000 1.0000
62.6700 943.0000 1.0000
62.6800 921.0000 1.0000
62.6900 895.0000 1.0000
62.7000 920.0000 1.0000
62.7100 918.0000 1.0000
62.7200 844.0000 1.0000
62.7300 830.0000 1.0000
62.7400 849.0000 1.0000
62.7500 826.0000 1.0000
62.7600 849.0000 1.0000
62.7700 825.0000 1.0000
62.7800 846.0000 1.0000
62.7900 817.0000 1.0000
62.8000 786.0000 1.0000
62.8100 836.0000 1.0000
62.8200 749.0000 1.0000
62.8300 815.0000 1.0000
62.8400 787.0000 1.0000
62.8500 787.0000 1.0000
62.8600 785.0000 1.0000
62.8700 829.0000 1.0000
62.8800 778.0000 1.0000
62.8900 795.0000 1.0000
62.9000 817.0000 1.0000
62.9100 759.0000 1.0000
62.9200 770.0000 1.0000
62.9300 787.0000 1.0000
62.9400 763.0000 1.0000
62.9500 717.0000 1.0000
62.9600 782.0000 1.0000
62.9700 771.0000 1.0000
62.9800 752.0000 1.0000
62.9900 772.0000 1.0000
63.0000 755.0000 1.0000
63.0100 761.0000 1.0000
63.0200 703.0000 1.0000
63.0300 748.0000 1.0000
63.0400 724.0000 1.0000
63.0500 735.0000 1.0000
63.0600 766.0000 1.0000
63.0700 788.0000 1.0000
63.0800 810.0000 1.0000
63.0900 805.0000 1.0000
63.1000 729.0000 1.0000
63.1100 734.0000 1.0000
63.1200 762.0000 1.0000
63.1300 754.0000 1.0000
63.1400 753.0000 1.0000
63.1500 776.0000 1.0000
63.1600 758.0000 1.0000
63.1700 713.0000 1.0000
63.1800 754.0000 1.0000
63.1900 729.0000 1.0000
63.2000 662.0000 1.0000
63.2100 709.0000 1.0000
63.2200 703.0000 1.0000
63.2300 716.0000 1.0000
63.2400 714.0000 1.0000
63.2500 754.0000 1.0000
63.2600 759.0000 1.0000
63.2700 771.0000 1.0000
63.2800 766.0000 1.0000
63.2900 704.0000 1.0000
63.3000 728.0000 1.0000
63.3100 754.0000 1.0000
63.3200 768.0000 1.0000
63.3300 746.0000 1.0000
63.3400 736.0000 1.0000
63.3500 713.0000 1.0000
63.3600 722.0000 1.0000
63.3700 711.0000 1.0000
63.3800 733.0000 1.0000
63.3900 715.0000 1.0000
63.4000 709.0000 1.0000
63.4100 664.0000 1.0000
63.4200 697.0000 1.0000
63.4300 726.0000 1.0000
63.4400 704.0000 1.0000
63.4500 692.0000 1.0000
63.4600 711.0000 1.0000
63.4700 712.0000 1.0000
63.4800 685.0000 1.0000
63.4900 700.0000 1.0000
63.5000 714.0000 1.0000
63.5100 671.0000 1.0000
63.5200 699.0000 1.0000
63.5300 708.0000 1.0000
63.5400 659.0000 1.0000
63.5500 726.0000 1.0000
63.5600 694.0000 1.0000
63.5700 753.0000 1.0000
63.5800 664.0000 1.0000
63.5900 672.0000 1.0000
63.6000 689.0000 1.0000
63.6100 682.0000 1.0000
63.6200 712.0000 1.0000
63.6300 707.0000 1.0000
63.6400 696.0000 1.0000
63.6500 669.0000 1.0000
63.6600 689.0000 1.0000
63.6700 687.0000 1.0000
63.6800 700.0000 1.0000
63.6900 697.0000 1.0000
63.7000 683.0000 1.0000
63.7100 695.0000 1.0000
63.7200 711.0000 1.0000
63.7300 703.0000 1.0000
63.7400 714.0000 1.0000
63.7500 691.0000 1.0000
63.7600 676.0000 1.0000
63.7700 627.0000 1.0000
63.7800 652.0000 1.0000
63.7900 737.0000 1.0000
63.8000 684.0000 1.0000
63.8100 684.0000 1.0000
63.8200 685.0000 1.0000
63.8300 717.0000 1.0000
63.8400 694.0000 1.0000
63.8500 671.0000 1.0000
63.8600 659.0000 1.0000
63.8700 665.0000 1.0000
63.8800 652.0000 1.0000
63.8900 658.0000 1.0000
63.9000 708.0000 1.0000
63.9100 678.0000 1.0000
63.9200 727.0000 1.0000
63.9300 681.0000 1.0000
63.9400 688.0000 1.0000
63.9500 707.0000 1.0000
63.9600 746.0000 1.0000
63.9700 698.0000 1.0000
63.9800 678.0000 1.0000
63.9900 660.0000 1.0000
64.0000 683.0000 1.0000
64.0100 711.0000 1.0000
64.0200 742.0000 1.0000
64.0300 702.0000 1.0000
64.0400 650.0000 1.0000
64.0500 731.0000 1.0000
64.0600 728.0000 1.0000
64.0700 697.0000 1.0000
64.0800 688.0000 1.0000
64.0900 678.0000 1.0000
64.1000 677.0000 1.0000
64.1100 673.0000 1.0000
64.1200 688.0000 1.0000
64.1300 654.0000 1.0000
64.1400 680.0000 1.0000
64.1500 704.0000 1.0000
64.1600 681.0000 1.0000
64.1700 696.0000 1.0000
64.1800 716.0000 1.0000
64.1900 654.0000 1.0000
64.2000 703.0000 1.0000
64.2100 707.0000 1.0000
64.2200 714.0000 1.0000
64.2300 713.0000 1.0000
64.2400 751.0000 1.0000
64.2500 729.0000 1.0000
64.2600 677.0000 1.0000
64.2700 727.0000 1.0000
64.2800 740.0000 1.0000
64.2900 706.0000 1.0000
64.3000 744.0000 1.0000
64.3100 679.0000 1.0000
64.3200 714.0000 1.0000
64.3300 691.0000 1.0000
64.3400 672.0000 1.0000
64.3500 682.0000 1.0000
64.3600 687.0000 1.0000
64.3700 693.0000 1.0000
64.3800 674.0000 1.0000
64.3900 716.0000 1.0000
64.4000 701.0000 1.0000
64.4100 730.0000 1.0000
64.4200 650.0000 1.0000
64.4300 697.0000 1.0000
64.4400 725.0000 1.0000
64.4500 733.0000 1.0000
64.4600 767.0000 1.0000
64.4700 743.0000 1.0000
64.4800 714.0000 1.0000
64.4900 725.0000 1.0000
64.5000 744.0000 1.0000
64.5100 748.0000 1.0000
64.5200 750.0000 1.0000
64.5300 765.0000 1.0000
64.5400 791.0000 1.0000
64.5500 767.0000 1.0000
64.5600 766.0000 1.0000
64.5700 765.0000 1.0000
64.5800 817.0000 1.0000
64.5900 847.0000 1.0000
64.6000 827.0000 1.0000
64.6100 781.0000 1.0000
64.6200 821.0000 1.0000
64.6300 872.0000 1.0000
64.6400 885.0000 1.0000
64.6500 919.0000 1.0000
64.6600 897.0000 1.0000
64.6700 975.0000 1.0000
64.6800 920.0000 1.0000
64.6900 878.0000 1.0000
64.7000 925.0000 1.0000
64.7100 913.0000 1.0000
64.7200 909.0000 1.0000
64.7300 872.0000 1.0000
64.7400 901.0000 1.0000
64.7500 867.0000 1.0000
64.7600 861.0000 1.0000
64.7700 839.0000 1.0000
64.7800 838.0000 1.0000
64.7900 864.0000 1.0000
64.8000 861.0000 1.0000
64.8100 837.0000 1.0000
64.8200 800.0000 1.0000
64.8300 843.0000 1.0000
64.8400 843.0000 1.0000
64.8500 796.0000 1.0000
64.8600 790.0000 1.0000
64.8700 782.0000 1.0000
64.8800 816.0000 1.0000
64.8900 842.0000 1.0000
64.9000 821.0000 1.0000
64.9100 826.0000 1.0000
64.9200 813.0000 1.0000
64.9300 822.0000 1.0000
64.9400 786.0000 1.0000
64.9500 794.0000 1.0000
64.9600 767.0000 1.0000
64.9700 772.0000 1.0000
64.9800 773.0000 1.0000
64.9900 763.0000 1.0000
65.0000 716.0000 1.0000
65.0100 742.0000 1.0000
65.0200 777.0000 1.0000
65.0300 737.0000 1.0000
65.0400 697.0000 1.0000
65.0500 756.0000 1.0000
65.0600 755.0000 1.0000
65.0700 771.0000 1.0000
65.0800 775.0000 1.0000
65.0900 762.0000 1.0000
65.1000 727.0000 1.0000
65.1100 727.0000 1.0000
65.1200 716.0000 1.0000
65.1300 707.0000 1.0000
65.1400 697.0000 1.0000
65.1500 736.0000 1.0000
65.1600 736.0000 1.0000
65.1700 711.0000 1.0000
65.1800 713.0000 1.0000
65.1900 767.0000 1.0000
65.2000 753.0000 1.0000
65.2100 716.0000 1.0000
65.2200 721.0000 1.0000
65.2300 700.0000 1.0000
65.2400 733.0000 1.0000
65.2500 748.0000 1.0000
65.2600 714.0000 1.0000
65.2700 739.0000 1.0000
65.2800 755.0000 1.0000
65.2900 744.0000 1.0000
65.3000 756.0000 1.0000
65.3100 724.0000 1.0000
65.3200 698.0000 1.0000
65.3300 763.0000 1.0000
65.3400 710.0000 1.0000
65.3500 749.0000 1.0000
65.3600 701.0000 1.0000
65.3700 729.0000 1.0000
65.3800 776.0000 1.0000
65.3900 748.0000 1.0000
65.4000 666.0000 1.0000
65.4100 712.0000 1.0000
65.4200 750.0000 1.0000
65.4300 702.0000 1.0000
65.4400 724.0000 1.0000
65.4500 718.0000 1.0000
65.4600 724.0000 1.0000
65.4700 675.0000 1.0000
65.4800 742.0000 1.0000
65.4900 720.0000 1.0000
65.5000 717.0000 1.0000
65.5100 735.0000 1.0000
65.5200 723.0000 1.0000
65.5300 709.0000 1.0000
65.5400 759.0000 1.0000
65.5500 784.0000 1.0000
65.5600 749.0000 1.0000
65.5700 744.0000 1.0000
65.5800 691.0000 1.0000
65.5900 738.0000 1.0000
65.6000 757.0000 1.0000
65.6100 766.0000 1.0000
65.6200 749.0000 1.0000
65.6300 768.0000 1.0000
65.6400 694.0000 1.0000
65.6500 717.0000 1.0000
65.6600 773.0000 1.0000
65.6700 756.0000 1.0000
65.6800 744.0000 1.0000
65.6900 726.0000 1.0000
65.7000 749.0000 1.0000
65.7100 760.0000 1.0000
65.7200 765.0000 1.0000
65.7300 764.0000 1.0000
65.7400 776.0000 1.0000
65.7500 769.0000 1.0000
65.7600 773.0000 1.0000
65.7700 749.0000 1.0000
65.7800 794.0000 1.0000
65.7900 803.0000 1.0000
65.8000 775.0000 1.0000
65.8100 838.0000 1.0000
65.8200 790.0000 1.0000
65.8300 810.0000 1.0000
65.8400 835.0000 1.0000
65.8500 822.0000 1.0000
65.8600 865.0000 1.0000
65.8700 847.0000 1.0000
65.8800 813.0000 1.0000
65.8900 863.0000 1.0000
65.9000 880.0000 1.0000
65.9100 883.0000 1.0000
65.9200 917.0000 1.0000
65.9300 924.0000 1.0000
65.9400 929.0000 1.0000
65.9500 999.0000 1.0000
65.9600 981.0000 1.0000
65.9700 981.0000 1.0000
65.9800 1000.0000 1.0000
65.9900 975.0000 1.0000
66.0000 1065.0000 1.0000
66.0100 1059.0000 1.0000
66.0200 1126.0000 1.0000
66.0300 1070.0000 1.0000
66.0400 1161.0000 1.0000
66.0500 1179.0000 1.0000
66.0600 1259.0000 1.0000
66.0700 1243.0000 1.0000
66.0800 1344.0000 1.0000
66.0900 1433.0000 1.0000
66.1000 1437.0000 1.0000
66.1100 1546.0000 1.0000
66.1200 1520.0000 1.0000
66.1300 1680.0000 1.0000
66.1400 1785.0000 1.0000
66.1500 1870.0000 1.0000
66.1600 2012.0000 1.0000
66.1700 2055.0000 1.0000
66.1800 2139.0000 1.0000
66.1900 2295.0000 1.0000
66.2000 2416.0000 1.0000
66.2100 2560.0000 1.0000
66.2200 2691.0000 1.0000
66.2300 2669.0000 1.0000
66.2400 2673.0000 1.0000
66.2500 2771.0000 1.0000
66.2600 2903.0000 1.0000
66.2700 2871.0000 1.0000
66.2800 2843.0000 1.0000
66.2900 2918.0000 1.0000
66.3000 2879.0000 1.0000
66.3100 2797.0000 1.0000
66.3200 2654.0000 1.0000
66.3300 2595.0000 1.0000
66.3400 2596.0000 1.0000
66.3500 2540.0000 1.0000
66.3600 2620.0000 1.0000
66.3700 2467.0000 1.0000
66.3800 2372.0000 1.0000
66.3900 2442.0000 1.0000
66.4000 2409.0000 1.0000
66.4100 2366.0000 1.0000
66.4200 2388.0000 1.0000
66.4300 2415.0000 1.0000
66.4400 2294.0000 1.0000
66.4500 2251.0000 1.0000
66.4600 2205.0000 1.0000
66.4700 2036.0000 1.0000
66.4800 2022.0000 1.0000
66.4900 1933.0000 1.0000
66.5000 1937.0000 1.0000
66.5100 1803.0000 1.0000
66.5200 1742.0000 1.0000
66.5300 1641.0000 1.0000
66.5400 1594.0000 1.0000
66.5500 1527.0000 1.0000
66.5600 1466.0000 1.0000
66.5700 1437.0000 1.0000
66.5800 1361.0000 1.0000
66.5900 1298.0000 1.0000
66.6000 1215.0000 1.0000
66.6100 1188.0000 1.0000
66.6200 1219.0000 1.0000
66.6300 1184.0000 1.0000
66.6400 1149.0000 1.0000
66.6500 1072.0000 1.0000
66.6600 1047.0000 1.0000
66.6700 1031.0000 1.0000
66.6800 982.0000 1.0000
66.6900 1038.0000 1.0000
66.7000 955.0000 1.0000
66.7100 967.0000 1.0000
66.7200 913.0000 1.0000
66.7300 950.0000 1.0000
66.7400 898.0000 1.0000
66.7500 893.0000 1.0000
66.7600 901.0000 1.0000
66.7700 886.0000 1.0000
66.7800 820.0000 1.0000
66.7900 857.0000 1.0000
66.8000 808.0000 1.0000
66.8100 856.0000 1.0000
66.8200 827.0000 1.0000
66.8300 800.0000 1.0000
66.8400 823.0000 1.0000
66.8500 777.0000 1.0000
66.8600 737.0000 1.0000
66.8700 730.0000 1.0000
66.8800 746.0000 1.0000
66.8900 744.0000 1.0000
66.9000 755.0000 1.0000
66.9100 774.0000 1.0000
66.9200 752.0000 1.0000
66.9300 725.0000 1.0000
66.9400 773.0000 1.0000
66.9500 743.0000 1.0000
66.9600 700.0000 1.0000
66.9700 763.0000 1.0000
66.9800 754.0000 1.0000
66.9900 767.0000 1.0000
67.0000 703.0000 1.0000
67.0100 709.0000 1.0000
67.0200 711.0000 1.0000
67.0300 734.0000 1.0000
67.0400 710.0000 1.0000
67.0500 718.0000 1.0000
67.0600 674.0000 1.0000
67.0700 661.0000 1.0000
67.0800 665.0000 1.0000
67.0900 721.0000 1.0000
67.1000 701.0000 1.0000
67.1100 730.0000 1.0000
67.1200 675.0000 1.0000
67.1300 696.0000 1.0000
67.1400 671.0000 1.0000
67.1500 665.0000 1.0000
67.1600 686.0000 1.0000
67.1700 668.0000 1.0000
67.1800 665.0000 1.0000
67.1900 708.0000 1.0000
67.2000 707.0000 1.0000
67.2100 667.0000 1.0000
67.2200 715.0000 1.0000
67.2300 640.0000 1.0000
67.2400 662.0000 1.0000
67.2500 652.0000 1.0000
67.2600 694.0000 1.0000
67.2700 678.0000 1.0000
67.2800 661.0000 1.0000
67.2900 663.0000 1.0000
67.3000 681.0000 1.0000
67.3100 703.0000 1.0000
67.3200 639.0000 1.0000
67.3300 667.0000 1.0000
67.3400 671.0000 1.0000
67.3500 661.0000 1.0000
67.3600 670.0000 1.0000
67.3700 644.0000 1.0000
67.3800 640.0000 1.0000
67.3900 669.0000 1.0000
67.4000 689.0000 1.0000
67.4100 705.0000 1.0000
67.4200 652.0000 1.0000
67.4300 665.0000 1.0000
67.4400 642.0000 1.0000
67.4500 657.0000 1.0000
67.4600 649.0000 1.0000
67.4700 603.0000 1.0000
67.4800 657.0000 1.0000
67.4900 622.0000 1.0000
67.5000 627.0000 1.0000
67.5100 665.0000 1.0000
67.5200 664.0000 1.0000
67.5300 674.0000 1.0000
67.5400 654.0000 1.0000
67.5500 635.0000 1.0000
67.5600 619.0000 1.0000
67.5700 654.0000 1.0000
67.5800 697.0000 1.0000
67.5900 635.0000 1.0000
67.6000 657.0000 1.0000
67.6100 658.0000 1.0000
67.6200 682.0000 1.0000
67.6300 677.0000 1.0000
67.6400 670.0000 1.0000
67.6500 651.0000 1.0000
67.6600 596.0000 1.0000
67.6700 649.0000 1.0000
67.6800 634.0000 1.0000
67.6900 646.0000 1.0000
67.7000 623.0000 1.0000
67.7100 647.0000 1.0000
67.7200 654.0000 1.0000
67.7300 638.0000 1.0000
67.7400 677.0000 1.0000
67.7500 657.0000 1.0000
67.7600 661.0000 1.0000
67.7700 630.0000 1.0000
67.7800 643.0000 1.0000
67.7900 636.0000 1.0000
67.8000 651.0000 1.0000
67.8100 654.0000 1.0000
67.8200 634.0000 1.0000
67.8300 689.0000 1.0000
67.8400 644.0000 1.0000
67.8500 622.0000 1.0000
67.8600 661.0000 1.0000
67.8700 604.0000 1.0000
67.8800 677.0000 1.0000
67.8900 668.0000 1.0000
67.9000 617.0000 1.0000
67.9100 635.0000 1.0000
67.9200 621.0000 1.0000
67.9300 590.0000 1.0000
67.9400 604.0000 1.0000
67.9500 646.0000 1.0000
67.9600 625.0000 1.0000
67.9700 625.0000 1.0000
67.9800 669.0000 1.0000
67.9900 639.0000 1.0000
68.0000 646.0000 1.0000
68.0100 664.0000 1.0000
68.0200 651.0000 1.0000
68.0300 628.0000 1.0000
68.0400 658.0000 1.0000
68.0500 658.0000 1.0000
68.0600 647.0000 1.0000
68.0700 607.0000 1.0000
68.0800 634.0000 1.0000
68.0900 610.0000 1.0000
68.1000 609.0000 1.0000
68.1100 658.0000 1.0000
68.1200 677.0000 1.0000
68.1300 627.0000 1.0000
68.1400 655.0000 1.0000
68.1500 618.0000 1.0000
68.1600 638.0000 1.0000
68.1700 619.0000 1.0000
68.1800 633.0000 1.0000
68.1900 667.0000 1.0000
68.2000 667.0000 1.0000
68.2100 618.0000 1.0000
68.2200 606.0000 1.0000
68.2300 603.0000 1.0000
68.2400 625.0000 1.0000
68.2500 585.0000 1.0000
68.2600 609.0000 1.0000
68.2700 622.0000 1.0000
68.2800 632.0000 1.0000
68.2900 627.0000 1.0000
68.3000 643.0000 1.0000
68.3100 628.0000 1.0000
68.3200 607.0000 1.0000
68.3300 644.0000 1.0000
68.3400 602.0000 1.0000
68.3500 632.0000 1.0000
68.3600 637.0000 1.0000
68.3700 638.0000 1.0000
68.3800 637.0000 1.0000
68.3900 630.0000 1.0000
68.4000 645.0000 1.0000
68.4100 631.0000 1.0000
68.4200 641.0000 1.0000
68.4300 621.0000 1.0000
68.4400 626.0000 1.0000
68.4500 654.0000 1.0000
68.4600 607.0000 1.0000
68.4700 657.0000 1.0000
68.4800 634.0000 1.0000
68.4900 627.0000 1.0000
68.5000 631.0000 1.0000
68.5100 630.0000 1.0000
68.5200 642.0000 1.0000
68.5300 601.0000 1.0000
68.5400 603.0000 1.0000
68.5500 604.0000 1.0000
68.5600 575.0000 1.0000
68.5700 592.0000 1.0000
68.5800 626.0000 1.0000
68.5900 614.0000 1.0000
68.6000 626.0000 1.0000
68.6100 632.0000 1.0000
68.6200 665.0000 1.0000
68.6300 686.0000 1.0000
68.6400 624.0000 1.0000
68.6500 600.0000 1.0000
68.6600 611.0000 1.0000
68.6700 648.0000 1.0000
68.6800 624.0000 1.0000
68.6900 623.0000 1.0000
68.7000 603.0000 1.0000
68.7100 628.0000 1.0000
68.7200 610.0000 1.0000
68.7300 632.0000 1.0000
68.7400 588.0000 1.0000
68.7500 646.0000 1.0000
68.7600 622.0000 1.0000
68.7700 609.0000 1.0000
68.7800 637.0000 1.0000
68.7900 631.0000 1.0000
68.8000 630.0000 1.0000
68.8100 577.0000 1.0000
68.8200 647.0000 1.0000
68.8300 620.0000 1.0000
68.8400 626.0000 1.0000
68.8500 614.0000 1.0000
68.8600 635.0000 1.0000
68.8700 612.0000 1.0000
68.8800 620.0000 1.0000
68.8900 612.0000 1.0000
68.9000 611.0000 1.0000
68.9100 666.0000 1.0000
68.9200 644.0000 1.0000
68.9300 637.0000 1.0000
68.9400 593.0000 1.0000
68.9500 630.0000 1.0000
68.9600 584.0000 1.0000
68.9700 627.0000 1.0000
68.9800 641.0000 1.0000
68.9900 616.0000 1.0000
69.0000 572.0000 1.0000
69.0100 626.0000 1.0000
69.0200 615.0000 1.0000
69.0300 580.0000 1.0000
69.0400 585.0000 1.0000
69.0500 607.0000 1.0000
69.0600 625.0000 1.0000
69.0700 644.0000 1.0000
69.0800 635.0000 1.0000
69.0900 630.0000 1.0000
69.1000 600.0000 1.0000
69.1100 669.0000 1.0000
69.1200 606.0000 1.0000
69.1300 609.0000 1.0000
69.1400 604.0000 1.0000
69.1500 618.0000 1.0000
69.1600 610.0000 1.0000
69.1700 616.0000 1.0000
69.1800 620.0000 1.0000
69.1900 625.0000 1.0000
69.2000 605.0000 1.0000
69.2100 623.0000 1.0000
69.2200 597.0000 1.0000
69.2300 589.0000 1.0000
69.2400 626.0000 1.0000
69.2500 606.0000 1.0000
69.2600 625.0000 1.0000
69.2700 638.0000 1.0000
69.2800 622.0000 1.0000
69.2900 606.0000 1.0000
69.3000 662.0000 1.0000
69.3100 644.0000 1.0000
69.3200 613.0000 1.0000
69.3300 642.0000 1.0000
69.3400 616.0000 1.0000
69.3500 588.0000 1.0000
69.3600 624.0000 1.0000
69.3700 662.0000 1.0000
69.3800 605.0000 1.0000
69.3900 578.0000 1.0000
69.4000 616.0000 1.0000
69.4100 613.0000 1.0000
69.4200 616.0000 1.0000
69.4300 633.0000 1.0000
69.4400 652.0000 1.0000
69.4500 636.0000 1.0000
69.4600 615.0000 1.0000
69.4700 601.0000 1.0000
69.4800 599.0000 1.0000
69.4900 633.0000 1.0000
69.5000 636.0000 1.0000
69.5100 621.0000 1.0000
69.5200 626.0000 1.0000
69.5300 586.0000 1.0000
69.5400 638.0000 1.0000
69.5500 658.0000 1.0000
69.5600 657.0000 1.0000
69.5700 609.0000 1.0000
69.5800 581.0000 1.0000
69.5900 582.0000 1.0000
69.6000 641.0000 1.0000
69.6100 657.0000 1.0000
69.6200 606.0000 1.0000
69.6300 635.0000 1.0000
69.6400 621.0000 1.0000
69.6500 632.0000 1.0000
69.6600 641.0000 1.0000
69.6700 618.0000 1.0000
69.6800 605.0000 1.0000
69.6900 625.0000 1.0000
69.7000 589.0000 1.0000
69.7100 612.0000 1.0000
69.7200 620.0000 1.0000
69.7300 610.0000 1.0000
69.7400 623.0000 1.0000
69.7500 613.0000 1.0000
69.7600 590.0000 1.0000
69.7700 579.0000 1.0000
69.7800 645.0000 1.0000
69.7900 600.0000 1.0000
69.8000 570.0000 1.0000
69.8100 606.0000 1.0000
69.8200 666.0000 1.0000
69.8300 607.0000 1.0000
69.8400 630.0000 1.0000
69.8500 600.0000 1.0000
69.8600 612.0000 1.0000
69.8700 625.0000 1.0000
69.8800 643.0000 1.0000
69.8900 650.0000 1.0000
69.9000 595.0000 1.0000
69.9100 573.0000 1.0000
69.9200 538.0000 1.0000
69.9300 618.0000 1.0000
69.9400 588.0000 1.0000
69.9500 605.0000 1.0000
69.9600 618.0000 1.0000
69.9700 607.0000 1.0000
69.9800 626.0000 1.0000
69.9900 627.0000 1.0000
70.0000 624.0000 1.0000
*RAS_INT_END
*RAS_TEMPERATURE_START
*RAS_TEMPERATURE_END
*RAS_DATA_END
