*RAS_DATA_START
*RAS_HEADER_START
*DISP_FMT_X "%.2f"
*DISP_FMT_Y "%.0f"
*DISP_FULLSCALE "12510.0000000000"
*DISP_LINE_COLOR "255.0000000000"
*DISP_LINE_STYLE "0.0000000000"
*DISP_LINE_WIDTH "0.2500000000"
*DISP_NOTE "測定データ-9"
*DISP_OFFSET_Y "0.0000000000"
*DISP_PEAKSEARCH_UNIT_Y "cps"
*DISP_RANGE_BOTTOM "0.0000000000"
*DISP_RANGE_LEFT "20.0000000000"
*DISP_RANGE_LOGCUTOFF "0.0100000000"
*DISP_RANGE_RIGHT "70.0000000000"
*DISP_RANGE_TOP "12510.0000000000"
*DISP_SCALE_MODE_Y "0.0000000000"
*DISP_TAB_NAME "2θ/θ"
*DISP_TITLE_Y "強度"
*DISP_UNIT_Y "cps"
*DISP_WINDOW_NAME "MSG_MACROENGINE"
*FILE_COMMENT " "
*FILE_MD5 ""
*FILE_MEMO " "
*FILE_OPERATOR "Administrator"
*FILE_SAMPLE " "
*FILE_TYPE "RAS_RAW"
*FILE_USERGROUP "システムマネージャ"
*FILE_VERSION "1.0000000000"
*HW_ATTACHMENT_ID "ATT0025"
*HW_ATTACHMENT_NAME "標準|Standard"
*HW_COUNTER_ID-0 "CUT0025"
*HW_COUNTER_ID-1 "CUT0020"
*HW_COUNTER_ID-2 "CUT0020"
*HW_COUNTER_ID-3 "CSL0021"
*HW_COUNTER_ID-4 "CMC0021"
*HW_COUNTER_NAME-0 "D/teX Ultra|D/teX Ultra"
*HW_COUNTER_NAME-1 "None|None"
*HW_COUNTER_NAME-2 "None|None"
*HW_COUNTER_NAME-3 "BBM|BBM"
*HW_COUNTER_NAME-4 "検出器モノクロメータ|Detector monochromator"
*HW_COUNTER_SELECT_NAME "D/teX Ultra|D/teX Ultra"
*HW_GONIOMETER_ID "GON0023"
*HW_GONIOMETER_NAME "SmartLab|SmartLab"
*HW_GONIOMETER_RADIUS-0 "90.0"
*HW_GONIOMETER_RADIUS-1 "114.0"
*HW_GONIOMETER_RADIUS-2 "190.0"
*HW_GONIOMETER_RADIUS-3 "300.0"
*HW_GONIOMETER_RADIUS-4 "187.0"
*HW_GONIOMETER_RADIUS-5 "300.0"
*HW_GONIOMETER_RADIUS-6 "113.0"
*HW_GONIOMETER_RADIUS-7 "331.0"
*HW_I_OPT_ID-0 "CBO0021"
*HW_I_OPT_ID-1 "ICR0023"
*HW_I_OPT_ID-2 "ISL0021"
*HW_I_OPT_ID-3 "ISO0021"
*HW_I_OPT_ID-4 "IAD0021"
*HW_I_OPT_ID-5 "IPR0001"
*HW_I_OPT_NAME-0 "CBOユニット|CBO unit"
*HW_I_OPT_NAME-1 "標準入射光学ユニット|Standard incident optical unit"
*HW_I_OPT_NAME-2 "標準入射スリットボックス|Standard incident slit box"
*HW_I_OPT_NAME-3 "入射平行スリット|Incident parallel slit"
*HW_I_OPT_NAME-4 "長手制限スリット|Length limiting slit"
*HW_I_OPT_NAME-5 "None|None"
*HW_R_ATTENUATER_AUTOMODE "0"
*HW_R_OPT_ID-0 "RSS0021"
*HW_R_OPT_ID-1 "RCR0023"
*HW_R_OPT_ID-2 "RSO0021"
*HW_R_OPT_ID-3 "RRS0021"
*HW_R_OPT_ID-4 "ATN0021"
*HW_R_OPT_ID-5 "RFL0021"
*HW_R_OPT_ID-6 "RAD0021"
*HW_R_OPT_NAME-0 "標準受光スリットボックス1|Standard receiving slit box # 1"
*HW_R_OPT_NAME-1 "標準受光光学ユニット1|Standard receiving unit # 1"
*HW_R_OPT_NAME-2 "標準受光光学ユニット2|Standard receiving optical unit # 2"
*HW_R_OPT_NAME-3 "標準受光スリットボックス2|Standard receiving slit box # 2"
*HW_R_OPT_NAME-4 "標準アッテネータ|Standard Attenuator"
*HW_R_OPT_NAME-5 "Cu Kβ|Cu K-beta"
*HW_R_OPT_NAME-6 "調整用受光スリット|Alignment receiving slit"
*HW_SAMPLE_HOLDER_ID "SMP0023"
*HW_SAMPLE_HOLDER_NAME "標準Zステージ|Standard Z stage"
*HW_XG_CURRENT_MAX "50"
*HW_XG_CURRENT_MIN "2"
*HW_XG_CURRENT_RESOLUTION "1"
*HW_XG_CURRENT_UNIT "mA"
*HW_XG_FOCUS "1mm x 10mm"
*HW_XG_FOCUS_TYPE "Normal"
*HW_XG_ID ""
*HW_XG_NAME "3kW 封入管(ID:1200)|3kW Sealed tube(ID:1200)"
*HW_XG_TARGET_ATOMIC_NUMBER "29.0000000000"
*HW_XG_TARGET_NAME "Cu"
*HW_XG_TYPE "Hermetic"
*HW_XG_VOLTAGE_MAX "60"
*HW_XG_VOLTAGE_MIN "20"
*HW_XG_VOLTAGE_RESOLUTION "1"
*HW_XG_VOLTAGE_UNIT "kV"
*HW_XG_WATT_MAX "1.500"
*HW_XG_WATT_UNIT "kW"
*HW_XG_WAVE_LENGTH_ALPHA1 "1.540593"
*HW_XG_WAVE_LENGTH_ALPHA2 "1.544414"
*HW_XG_WAVE_LENGTH_BETA "1.392250"
*MEAS_COND_AXIS_NAME-0 "2θ/θ"
*MEAS_COND_AXIS_NAME-1 "2θ"
*MEAS_COND_AXIS_NAME-2 "ω"
*MEAS_COND_AXIS_NAME-3 "Z"
*MEAS_COND_AXIS_NAME-4 "2θ/ω"
*MEAS_COND_AXIS_NAME-5 "θs"
*MEAS_COND_AXIS_NAME-6 "θd"
*MEAS_COND_AXIS_NAME-7 "Ts"
*MEAS_COND_AXIS_NAME-8 "CBO選択スリット"
*MEAS_COND_AXIS_NAME-9 "M"
*MEAS_COND_AXIS_NAME-10 "入射平行スリット"
*MEAS_COND_AXIS_NAME-11 "入射スリット"
*MEAS_COND_AXIS_NAME-12 ""
*MEAS_COND_AXIS_NAME-13 "Zs"
*MEAS_COND_AXIS_NAME-14 "入射光学素子"
*MEAS_COND_AXIS_NAME-15 "長手制限スリット"
*MEAS_COND_AXIS_NAME-16 "センタースリット"
*MEAS_COND_AXIS_NAME-17 "フィルター"
*MEAS_COND_AXIS_NAME-18 "受光スリット1"
*MEAS_COND_AXIS_NAME-19 "受光スリット2"
*MEAS_COND_AXIS_NAME-20 "受光光学素子"
*MEAS_COND_AXIS_NAME-21 "受光平行スリット"
*MEAS_COND_AXIS_NAME-22 "調整用受光スリット"
*MEAS_COND_AXIS_NAME-23 ""
*MEAS_COND_AXIS_NAME-24 ""
*MEAS_COND_AXIS_NAME-25 "Zd"
*MEAS_COND_AXIS_NAME-26 "アッテネータ"
*MEAS_COND_AXIS_NAME-27 "検出器モノクロメータ"
*MEAS_COND_AXIS_NAME-28 "モノクロメータスリット"
*MEAS_COND_AXIS_NAME-29 "プライマリビーム"
*MEAS_COND_AXIS_NAME-30 "PHA"
*MEAS_COND_AXIS_NAME_INTERNAL-0 "TwoThetaTheta"
*MEAS_COND_AXIS_NAME_INTERNAL-1 "TwoTheta"
*MEAS_COND_AXIS_NAME_INTERNAL-2 "Omega"
*MEAS_COND_AXIS_NAME_INTERNAL-3 "Z"
*MEAS_COND_AXIS_NAME_INTERNAL-4 "TwoThetaOmega"
*MEAS_COND_AXIS_NAME_INTERNAL-5 "ThetaS"
*MEAS_COND_AXIS_NAME_INTERNAL-6 "ThetaD"
*MEAS_COND_AXIS_NAME_INTERNAL-7 "Ts"
*MEAS_COND_AXIS_NAME_INTERNAL-8 "CBO"
*MEAS_COND_AXIS_NAME_INTERNAL-9 "CBO-M"
*MEAS_COND_AXIS_NAME_INTERNAL-10 "IncidentSollerSlit"
*MEAS_COND_AXIS_NAME_INTERNAL-11 "IncidentSlitBox"
*MEAS_COND_AXIS_NAME_INTERNAL-12 "IncidentSlitBox-_Axis"
*MEAS_COND_AXIS_NAME_INTERNAL-13 "Zs"
*MEAS_COND_AXIS_NAME_INTERNAL-14 "IncidentMonochromator"
*MEAS_COND_AXIS_NAME_INTERNAL-15 "IncidentAxdSlit"
*MEAS_COND_AXIS_NAME_INTERNAL-16 "CenterSlit"
*MEAS_COND_AXIS_NAME_INTERNAL-17 "Filter"
*MEAS_COND_AXIS_NAME_INTERNAL-18 "ReceivingSlitBox1"
*MEAS_COND_AXIS_NAME_INTERNAL-19 "ReceivingSlitBox2"
*MEAS_COND_AXIS_NAME_INTERNAL-20 "ReceivingOptics"
*MEAS_COND_AXIS_NAME_INTERNAL-21 "ReceivingSollerSlit"
*MEAS_COND_AXIS_NAME_INTERNAL-22 "ReceivingAxdSlit"
*MEAS_COND_AXIS_NAME_INTERNAL-23 "ReceivingSlitBox1-_Axis"
*MEAS_COND_AXIS_NAME_INTERNAL-24 "ReceivingSlitBox2-_Axis"
*MEAS_COND_AXIS_NAME_INTERNAL-25 "ReceivingSlitBox2-Zd"
*MEAS_COND_AXIS_NAME_INTERNAL-26 "Attenuator"
*MEAS_COND_AXIS_NAME_INTERNAL-27 "CounterMonochromator"
*MEAS_COND_AXIS_NAME_INTERNAL-28 "CounterSlit"
*MEAS_COND_AXIS_NAME_INTERNAL-29 "IncidentPrimary"
*MEAS_COND_AXIS_NAME_INTERNAL-30 "PHA"
*MEAS_COND_AXIS_NAME_MAGICNO-0 "83951616.0000000000"
*MEAS_COND_AXIS_NAME_MAGICNO-1 "268632064.0000000000"
*MEAS_COND_AXIS_NAME_MAGICNO-2 "268500992.0000000000"
*MEAS_COND_AXIS_NAME_MAGICNO-3 "285278208.0000000000"
*MEAS_COND_AXIS_NAME_MAGICNO-4 "83951616.0000000000"
*MEAS_COND_AXIS_NAME_MAGICNO-5 "131072.0000000000"
*MEAS_COND_AXIS_NAME_MAGICNO-6 "131072.0000000000"
*MEAS_COND_AXIS_NAME_MAGICNO-7 "318898176.0000000000"
*MEAS_COND_AXIS_NAME_MAGICNO-8 "20971521.0000000000"
*MEAS_COND_AXIS_NAME_MAGICNO-9 "285343744.0000000000"
*MEAS_COND_AXIS_NAME_MAGICNO-10 "20971521.0000000000"
*MEAS_COND_AXIS_NAME_MAGICNO-11 "22020097.0000000000"
*MEAS_COND_AXIS_NAME_MAGICNO-12 "25165824.0000000000"
*MEAS_COND_AXIS_NAME_MAGICNO-13 "318898176.0000000000"
*MEAS_COND_AXIS_NAME_MAGICNO-14 "1.0000000000"
*MEAS_COND_AXIS_NAME_MAGICNO-15 "20971521.0000000000"
*MEAS_COND_AXIS_NAME_MAGICNO-16 "20971521.0000000000"
*MEAS_COND_AXIS_NAME_MAGICNO-17 "20971521.0000000000"
*MEAS_COND_AXIS_NAME_MAGICNO-18 "23068673.0000000000"
*MEAS_COND_AXIS_NAME_MAGICNO-19 "23068673.0000000000"
*MEAS_COND_AXIS_NAME_MAGICNO-20 "20971521.0000000000"
*MEAS_COND_AXIS_NAME_MAGICNO-21 "20971521.0000000000"
*MEAS_COND_AXIS_NAME_MAGICNO-22 "20971521.0000000000"
*MEAS_COND_AXIS_NAME_MAGICNO-23 "25165824.0000000000"
*MEAS_COND_AXIS_NAME_MAGICNO-24 "25165824.0000000000"
*MEAS_COND_AXIS_NAME_MAGICNO-25 "285343744.0000000000"
*MEAS_COND_AXIS_NAME_MAGICNO-26 "17301505.0000000000"
*MEAS_COND_AXIS_NAME_MAGICNO-27 "20971521.0000000000"
*MEAS_COND_AXIS_NAME_MAGICNO-28 "20971521.0000000000"
*MEAS_COND_AXIS_NAME_MAGICNO-29 "20971521.0000000000"
*MEAS_COND_AXIS_NAME_MAGICNO-30 "0.0000000000"
*MEAS_COND_AXIS_OFFSET-0 "-"
*MEAS_COND_AXIS_OFFSET-1 "-0.1081000000"
*MEAS_COND_AXIS_OFFSET-2 "0.3758000000"
*MEAS_COND_AXIS_OFFSET-3 "-"
*MEAS_COND_AXIS_OFFSET-4 "-"
*MEAS_COND_AXIS_OFFSET-5 "0.3758000000"
*MEAS_COND_AXIS_OFFSET-6 "-0.4839000000"
*MEAS_COND_AXIS_OFFSET-7 "-"
*MEAS_COND_AXIS_OFFSET-8 "-"
*MEAS_COND_AXIS_OFFSET-9 "-"
*MEAS_COND_AXIS_OFFSET-10 "-"
*MEAS_COND_AXIS_OFFSET-11 "-"
*MEAS_COND_AXIS_OFFSET-12 "-"
*MEAS_COND_AXIS_OFFSET-13 "-"
*MEAS_COND_AXIS_OFFSET-14 "-"
*MEAS_COND_AXIS_OFFSET-15 "-"
*MEAS_COND_AXIS_OFFSET-16 "-"
*MEAS_COND_AXIS_OFFSET-17 "-"
*MEAS_COND_AXIS_OFFSET-18 "-"
*MEAS_COND_AXIS_OFFSET-19 "-"
*MEAS_COND_AXIS_OFFSET-20 "-"
*MEAS_COND_AXIS_OFFSET-21 "-"
*MEAS_COND_AXIS_OFFSET-22 "-"
*MEAS_COND_AXIS_OFFSET-23 "-"
*MEAS_COND_AXIS_OFFSET-24 "-"
*MEAS_COND_AXIS_OFFSET-25 "-"
*MEAS_COND_AXIS_OFFSET-26 "-"
*MEAS_COND_AXIS_OFFSET-27 "-"
*MEAS_COND_AXIS_OFFSET-28 "-"
*MEAS_COND_AXIS_OFFSET-29 "-"
*MEAS_COND_AXIS_OFFSET-30 "-"
*MEAS_COND_AXIS_POSITION-0 "0.0000000000"
*MEAS_COND_AXIS_POSITION-1 "0.0000000000"
*MEAS_COND_AXIS_POSITION-2 "0.0000000000"
*MEAS_COND_AXIS_POSITION-3 "-0.5500000000"
*MEAS_COND_AXIS_POSITION-4 "0.0000000000"
*MEAS_COND_AXIS_POSITION-5 "0.0000000000"
*MEAS_COND_AXIS_POSITION-6 "0.0000000000"
*MEAS_COND_AXIS_POSITION-7 "-0.4278800000"
*MEAS_COND_AXIS_POSITION-8 "BB"
*MEAS_COND_AXIS_POSITION-9 "0.0000000000"
*MEAS_COND_AXIS_POSITION-10 "Soller_slit_5.0deg"
*MEAS_COND_AXIS_POSITION-11 "2/3deg"
*MEAS_COND_AXIS_POSITION-12 "2.2088000000"
*MEAS_COND_AXIS_POSITION-13 "-0.4140600000"
*MEAS_COND_AXIS_POSITION-14 "0.0000000000"
*MEAS_COND_AXIS_POSITION-15 "10.0mm"
*MEAS_COND_AXIS_POSITION-16 "None"
*MEAS_COND_AXIS_POSITION-17 "Cu_K-beta"
*MEAS_COND_AXIS_POSITION-18 "13.000mm"
*MEAS_COND_AXIS_POSITION-19 "13.000mm"
*MEAS_COND_AXIS_POSITION-20 "No_unit"
*MEAS_COND_AXIS_POSITION-21 "Soller_slit_5.0deg"
*MEAS_COND_AXIS_POSITION-22 "None"
*MEAS_COND_AXIS_POSITION-23 "13.0000000000"
*MEAS_COND_AXIS_POSITION-24 "13.0000000000"
*MEAS_COND_AXIS_POSITION-25 "0.0109400000"
*MEAS_COND_AXIS_POSITION-26 "Open"
*MEAS_COND_AXIS_POSITION-27 "None"
*MEAS_COND_AXIS_POSITION-28 "None"
*MEAS_COND_AXIS_POSITION-29 "None"
*MEAS_COND_AXIS_POSITION-30 "38.0000000000"
*MEAS_COND_AXIS_UNIT-0 "deg"
*MEAS_COND_AXIS_UNIT-1 "deg"
*MEAS_COND_AXIS_UNIT-2 "deg"
*MEAS_COND_AXIS_UNIT-3 "mm"
*MEAS_COND_AXIS_UNIT-4 "deg"
*MEAS_COND_AXIS_UNIT-5 "deg"
*MEAS_COND_AXIS_UNIT-6 "deg"
*MEAS_COND_AXIS_UNIT-7 "mm"
*MEAS_COND_AXIS_UNIT-8 ""
*MEAS_COND_AXIS_UNIT-9 "pulse"
*MEAS_COND_AXIS_UNIT-10 ""
*MEAS_COND_AXIS_UNIT-11 ""
*MEAS_COND_AXIS_UNIT-12 "mm"
*MEAS_COND_AXIS_UNIT-13 "mm"
*MEAS_COND_AXIS_UNIT-14 ""
*MEAS_COND_AXIS_UNIT-15 ""
*MEAS_COND_AXIS_UNIT-16 ""
*MEAS_COND_AXIS_UNIT-17 ""
*MEAS_COND_AXIS_UNIT-18 ""
*MEAS_COND_AXIS_UNIT-19 ""
*MEAS_COND_AXIS_UNIT-20 ""
*MEAS_COND_AXIS_UNIT-21 ""
*MEAS_COND_AXIS_UNIT-22 ""
*MEAS_COND_AXIS_UNIT-23 "mm"
*MEAS_COND_AXIS_UNIT-24 "mm"
*MEAS_COND_AXIS_UNIT-25 "mm"
*MEAS_COND_AXIS_UNIT-26 ""
*MEAS_COND_AXIS_UNIT-27 ""
*MEAS_COND_AXIS_UNIT-28 ""
*MEAS_COND_AXIS_UNIT-29 ""
*MEAS_COND_AXIS_UNIT-30 "div"
*MEAS_COND_COUNTER_CNTLOSS_CORR "0.0000000000"
*MEAS_COND_COUNTER_PHABASE "38.0000000000"
*MEAS_COND_COUNTER_PHAWINDOW "16.0000000000"
*MEAS_COND_COUNTER_PHA_UNIT "div"
*MEAS_COND_COUNTER_TAUDIFF "30.0000000000"
*MEAS_COND_COUNTER_TAUINT "0.0000000000"
*MEAS_COND_IRRADIATION_MODE "OFF"
*MEAS_COND_IRRADIATION_WIDTH ""
*MEAS_COND_OPT_ATTR "集中法"
*MEAS_COND_OPT_NAME "@集中法"
*MEAS_COND_UNSYMMETRIC_MODE "OFF"
*MEAS_COND_XG_CURRENT "30.0000000000"
*MEAS_COND_XG_VOLTAGE "40.0000000000"
*MEAS_COND_XG_WAVE_TYPE "Ka"
*MEAS_DATA_COUNT "5001.0000000000"
*MEAS_SCAN_AXIS_X "2θ/θ"
*MEAS_SCAN_AXIS_X_INTERNAL "TwoThetaTheta"
*MEAS_SCAN_END_TIME "07/14/21 19:32:50"
*MEAS_SCAN_MODE "CONTINUOUS"
*MEAS_SCAN_MONITOR "0"
*MEAS_SCAN_RESOLUTION_X "0.0002"
*MEAS_SCAN_SPEED "1.0"
*MEAS_SCAN_SPEED_UNIT "deg/min"
*MEAS_SCAN_START "20.0000000000"
*MEAS_SCAN_START_TIME "07/14/21 18:39:56"
*MEAS_SCAN_STEP "0.0100000000"
*MEAS_SCAN_STOP "70.0000000000"
*MEAS_SCAN_UNIT_X "deg"
*MEAS_SCAN_UNIT_Y "counts"
*RAS_HEADER_END
*RAS_INT_START
20.0000 1258.0000 1.0000
20.0100 1294.0000 1.0000
20.0200 1333.0000 1.0000
20.0300 1277.0000 1.0000
20.0400 1323.0000 1.0000
20.0500 1276.0000 1.0000
20.0600 1310.0000 1.0000
20.0700 1274.0000 1.0000
20.0800 1301.0000 1.0000
20.0900 1270.0000 1.0000
20.1000 1302.0000 1.0000
20.1100 1291.0000 1.0000
20.1200 1281.0000 1.0000
20.1300 1278.0000 1.0000
20.1400 1263.0000 1.0000
20.1500 1260.0000 1.0000
20.1600 1323.0000 1.0000
20.1700 1292.0000 1.0000
20.1800 1267.0000 1.0000
20.1900 1312.0000 1.0000
20.2000 1309.0000 1.0000
20.2100 1276.0000 1.0000
20.2200 1245.0000 1.0000
20.2300 1300.0000 1.0000
20.2400 1255.0000 1.0000
20.2500 1315.0000 1.0000
20.2600 1286.0000 1.0000
20.2700 1283.0000 1.0000
20.2800 1303.0000 1.0000
20.2900 1301.0000 1.0000
20.3000 1308.0000 1.0000
20.3100 1257.0000 1.0000
20.3200 1338.0000 1.0000
20.3300 1284.0000 1.0000
20.3400 1332.0000 1.0000
20.3500 1309.0000 1.0000
20.3600 1370.0000 1.0000
20.3700 1371.0000 1.0000
20.3800 1275.0000 1.0000
20.3900 1234.0000 1.0000
20.4000 1256.0000 1.0000
20.4100 1287.0000 1.0000
20.4200 1266.0000 1.0000
20.4300 1242.0000 1.0000
20.4400 1306.0000 1.0000
20.4500 1280.0000 1.0000
20.4600 1246.0000 1.0000
20.4700 1310.0000 1.0000
20.4800 1340.0000 1.0000
20.4900 1305.0000 1.0000
20.5000 1310.0000 1.0000
20.5100 1301.0000 1.0000
20.5200 1281.0000 1.0000
20.5300 1301.0000 1.0000
20.5400 1265.0000 1.0000
20.5500 1325.0000 1.0000
20.5600 1283.0000 1.0000
20.5700 1215.0000 1.0000
20.5800 1271.0000 1.0000
20.5900 1315.0000 1.0000
20.6000 1267.0000 1.0000
20.6100 1208.0000 1.0000
20.6200 1271.0000 1.0000
20.6300 1342.0000 1.0000
20.6400 1318.0000 1.0000
20.6500 1346.0000 1.0000
20.6600 1333.0000 1.0000
20.6700 1241.0000 1.0000
20.6800 1306.0000 1.0000
20.6900 1332.0000 1.0000
20.7000 1344.0000 1.0000
20.7100 1319.0000 1.0000
20.7200 1310.0000 1.0000
20.7300 1286.0000 1.0000
20.7400 1347.0000 1.0000
20.7500 1303.0000 1.0000
20.7600 1330.0000 1.0000
20.7700 1302.0000 1.0000
20.7800 1336.0000 1.0000
20.7900 1345.0000 1.0000
20.8000 1306.0000 1.0000
20.8100 1332.0000 1.0000
20.8200 1310.0000 1.0000
20.8300 1295.0000 1.0000
20.8400 1290.0000 1.0000
20.8500 1325.0000 1.0000
20.8600 1289.0000 1.0000
20.8700 1327.0000 1.0000
20.8800 1321.0000 1.0000
20.8900 1308.0000 1.0000
20.9000 1303.0000 1.0000
20.9100 1308.0000 1.0000
20.9200 1275.0000 1.0000
20.9300 1259.0000 1.0000
20.9400 1280.0000 1.0000
20.9500 1291.0000 1.0000
20.9600 1303.0000 1.0000
20.9700 1319.0000 1.0000
20.9800 1321.0000 1.0000
20.9900 1311.0000 1.0000
21.0000 1273.0000 1.0000
21.0100 1325.0000 1.0000
21.0200 1315.0000 1.0000
21.0300 1238.0000 1.0000
21.0400 1303.0000 1.0000
21.0500 1372.0000 1.0000
21.0600 1371.0000 1.0000
21.0700 1257.0000 1.0000
21.0800 1245.0000 1.0000
21.0900 1259.0000 1.0000
21.1000 1282.0000 1.0000
21.1100 1332.0000 1.0000
21.1200 1315.0000 1.0000
21.1300 1278.0000 1.0000
21.1400 1331.0000 1.0000
21.1500 1306.0000 1.0000
21.1600 1364.0000 1.0000
21.1700 1306.0000 1.0000
21.1800 1281.0000 1.0000
21.1900 1295.0000 1.0000
21.2000 1339.0000 1.0000
21.2100 1299.0000 1.0000
21.2200 1308.0000 1.0000
21.2300 1307.0000 1.0000
21.2400 1285.0000 1.0000
21.2500 1307.0000 1.0000
21.2600 1274.0000 1.0000
21.2700 1330.0000 1.0000
21.2800 1301.0000 1.0000
21.2900 1274.0000 1.0000
21.3000 1286.0000 1.0000
21.3100 1342.0000 1.0000
21.3200 1346.0000 1.0000
21.3300 1343.0000 1.0000
21.3400 1303.0000 1.0000
21.3500 1305.0000 1.0000
21.3600 1362.0000 1.0000
21.3700 1304.0000 1.0000
21.3800 1282.0000 1.0000
21.3900 1322.0000 1.0000
21.4000 1319.0000 1.0000
21.4100 1338.0000 1.0000
21.4200 1290.0000 1.0000
21.4300 1368.0000 1.0000
21.4400 1329.0000 1.0000
21.4500 1257.0000 1.0000
21.4600 1279.0000 1.0000
21.4700 1349.0000 1.0000
21.4800 1286.0000 1.0000
21.4900 1347.0000 1.0000
21.5000 1303.0000 1.0000
21.5100 1314.0000 1.0000
21.5200 1370.0000 1.0000
21.5300 1308.0000 1.0000
21.5400 1304.0000 1.0000
21.5500 1322.0000 1.0000
21.5600 1278.0000 1.0000
21.5700 1292.0000 1.0000
21.5800 1347.0000 1.0000
21.5900 1348.0000 1.0000
21.6000 1270.0000 1.0000
21.6100 1310.0000 1.0000
21.6200 1351.0000 1.0000
21.6300 1347.0000 1.0000
21.6400 1383.0000 1.0000
21.6500 1292.0000 1.0000
21.6600 1358.0000 1.0000
21.6700 1374.0000 1.0000
21.6800 1361.0000 1.0000
21.6900 1338.0000 1.0000
21.7000 1322.0000 1.0000
21.7100 1324.0000 1.0000
21.7200 1310.0000 1.0000
21.7300 1388.0000 1.0000
21.7400 1375.0000 1.0000
21.7500 1332.0000 1.0000
21.7600 1302.0000 1.0000
21.7700 1315.0000 1.0000
21.7800 1341.0000 1.0000
21.7900 1287.0000 1.0000
21.8000 1307.0000 1.0000
21.8100 1335.0000 1.0000
21.8200 1318.0000 1.0000
21.8300 1363.0000 1.0000
21.8400 1311.0000 1.0000
21.8500 1414.0000 1.0000
21.8600 1371.0000 1.0000
21.8700 1345.0000 1.0000
21.8800 1341.0000 1.0000
21.8900 1352.0000 1.0000
21.9000 1322.0000 1.0000
21.9100 1362.0000 1.0000
21.9200 1320.0000 1.0000
21.9300 1292.0000 1.0000
21.9400 1358.0000 1.0000
21.9500 1375.0000 1.0000
21.9600 1322.0000 1.0000
21.9700 1309.0000 1.0000
21.9800 1332.0000 1.0000
21.9900 1391.0000 1.0000
22.0000 1344.0000 1.0000
22.0100 1344.0000 1.0000
22.0200 1339.0000 1.0000
22.0300 1325.0000 1.0000
22.0400 1356.0000 1.0000
22.0500 1308.0000 1.0000
22.0600 1312.0000 1.0000
22.0700 1248.0000 1.0000
22.0800 1380.0000 1.0000
22.0900 1354.0000 1.0000
22.1000 1360.0000 1.0000
22.1100 1336.0000 1.0000
22.1200 1341.0000 1.0000
22.1300 1323.0000 1.0000
22.1400 1392.0000 1.0000
22.1500 1338.0000 1.0000
22.1600 1366.0000 1.0000
22.1700 1347.0000 1.0000
22.1800 1344.0000 1.0000
22.1900 1341.0000 1.0000
22.2000 1417.0000 1.0000
22.2100 1391.0000 1.0000
22.2200 1285.0000 1.0000
22.2300 1362.0000 1.0000
22.2400 1326.0000 1.0000
22.2500 1366.0000 1.0000
22.2600 1358.0000 1.0000
22.2700 1366.0000 1.0000
22.2800 1372.0000 1.0000
22.2900 1379.0000 1.0000
22.3000 1341.0000 1.0000
22.3100 1321.0000 1.0000
22.3200 1305.0000 1.0000
22.3300 1313.0000 1.0000
22.3400 1322.0000 1.0000
22.3500 1345.0000 1.0000
22.3600 1355.0000 1.0000
22.3700 1398.0000 1.0000
22.3800 1344.0000 1.0000
22.3900 1294.0000 1.0000
22.4000 1340.0000 1.0000
22.4100 1359.0000 1.0000
22.4200 1314.0000 1.0000
22.4300 1383.0000 1.0000
22.4400 1378.0000 1.0000
22.4500 1365.0000 1.0000
22.4600 1353.0000 1.0000
22.4700 1333.0000 1.0000
22.4800 1324.0000 1.0000
22.4900 1315.0000 1.0000
22.5000 1399.0000 1.0000
22.5100 1378.0000 1.0000
22.5200 1409.0000 1.0000
22.5300 1417.0000 1.0000
22.5400 1297.0000 1.0000
22.5500 1322.0000 1.0000
22.5600 1305.0000 1.0000
22.5700 1321.0000 1.0000
22.5800 1332.0000 1.0000
22.5900 1339.0000 1.0000
22.6000 1333.0000 1.0000
22.6100 1367.0000 1.0000
22.6200 1339.0000 1.0000
22.6300 1391.0000 1.0000
22.6400 1408.0000 1.0000
22.6500 1271.0000 1.0000
22.6600 1350.0000 1.0000
22.6700 1333.0000 1.0000
22.6800 1417.0000 1.0000
22.6900 1476.0000 1.0000
22.7000 1408.0000 1.0000
22.7100 1327.0000 1.0000
22.7200 1397.0000 1.0000
22.7300 1376.0000 1.0000
22.7400 1382.0000 1.0000
22.7500 1416.0000 1.0000
22.7600 1421.0000 1.0000
22.7700 1393.0000 1.0000
22.7800 1347.0000 1.0000
22.7900 1364.0000 1.0000
22.8000 1317.0000 1.0000
22.8100 1334.0000 1.0000
22.8200 1345.0000 1.0000
22.8300 1355.0000 1.0000
22.8400 1297.0000 1.0000
22.8500 1360.0000 1.0000
22.8600 1343.0000 1.0000
22.8700 1343.0000 1.0000
22.8800 1360.0000 1.0000
22.8900 1371.0000 1.0000
22.9000 1325.0000 1.0000
22.9100 1337.0000 1.0000
22.9200 1420.0000 1.0000
22.9300 1381.0000 1.0000
22.9400 1391.0000 1.0000
22.9500 1315.0000 1.0000
22.9600 1387.0000 1.0000
22.9700 1349.0000 1.0000
22.9800 1384.0000 1.0000
22.9900 1410.0000 1.0000
23.0000 1366.0000 1.0000
23.0100 1402.0000 1.0000
23.0200 1350.0000 1.0000
23.0300 1402.0000 1.0000
23.0400 1432.0000 1.0000
23.0500 1403.0000 1.0000
23.0600 1382.0000 1.0000
23.0700 1408.0000 1.0000
23.0800 1386.0000 1.0000
23.0900 1388.0000 1.0000
23.1000 1370.0000 1.0000
23.1100 1386.0000 1.0000
23.1200 1382.0000 1.0000
23.1300 1325.0000 1.0000
23.1400 1341.0000 1.0000
23.1500 1396.0000 1.0000
23.1600 1411.0000 1.0000
23.1700 1379.0000 1.0000
23.1800 1355.0000 1.0000
23.1900 1361.0000 1.0000
23.2000 1349.0000 1.0000
23.2100 1360.0000 1.0000
23.2200 1399.0000 1.0000
23.2300 1377.0000 1.0000
23.2400 1389.0000 1.0000
23.2500 1378.0000 1.0000
23.2600 1368.0000 1.0000
23.2700 1320.0000 1.0000
23.2800 1385.0000 1.0000
23.2900 1328.0000 1.0000
23.3000 1381.0000 1.0000
23.3100 1360.0000 1.0000
23.3200 1338.0000 1.0000
23.3300 1424.0000 1.0000
23.3400 1366.0000 1.0000
23.3500 1351.0000 1.0000
23.3600 1356.0000 1.0000
23.3700 1369.0000 1.0000
23.3800 1378.0000 1.0000
23.3900 1396.0000 1.0000
23.4000 1330.0000 1.0000
23.4100 1357.0000 1.0000
23.4200 1385.0000 1.0000
23.4300 1386.0000 1.0000
23.4400 1381.0000 1.0000
23.4500 1433.0000 1.0000
23.4600 1390.0000 1.0000
23.4700 1280.0000 1.0000
23.4800 1336.0000 1.0000
23.4900 1372.0000 1.0000
23.5000 1384.0000 1.0000
23.5100 1322.0000 1.0000
23.5200 1384.0000 1.0000
23.5300 1315.0000 1.0000
23.5400 1365.0000 1.0000
23.5500 1447.0000 1.0000
23.5600 1369.0000 1.0000
23.5700 1376.0000 1.0000
23.5800 1353.0000 1.0000
23.5900 1401.0000 1.0000
23.6000 1350.0000 1.0000
23.6100 1370.0000 1.0000
23.6200 1322.0000 1.0000
23.6300 1395.0000 1.0000
23.6400 1315.0000 1.0000
23.6500 1400.0000 1.0000
23.6600 1320.0000 1.0000
23.6700 1396.0000 1.0000
23.6800 1428.0000 1.0000
23.6900 1367.0000 1.0000
23.7000 1372.0000 1.0000
23.7100 1375.0000 1.0000
23.7200 1398.0000 1.0000
23.7300 1368.0000 1.0000
23.7400 1359.0000 1.0000
23.7500 1317.0000 1.0000
23.7600 1402.0000 1.0000
23.7700 1423.0000 1.0000
23.7800 1397.0000 1.0000
23.7900 1413.0000 1.0000
23.8000 1377.0000 1.0000
23.8100 1386.0000 1.0000
23.8200 1380.0000 1.0000
23.8300 1425.0000 1.0000
23.8400 1425.0000 1.0000
23.8500 1408.0000 1.0000
23.8600 1328.0000 1.0000
23.8700 1405.0000 1.0000
23.8800 1360.0000 1.0000
23.8900 1358.0000 1.0000
23.9000 1452.0000 1.0000
23.9100 1347.0000 1.0000
23.9200 1346.0000 1.0000
23.9300 1379.0000 1.0000
23.9400 1400.0000 1.0000
23.9500 1353.0000 1.0000
23.9600 1337.0000 1.0000
23.9700 1351.0000 1.0000
23.9800 1338.0000 1.0000
23.9900 1387.0000 1.0000
24.0000 1398.0000 1.0000
24.0100 1440.0000 1.0000
24.0200 1421.0000 1.0000
24.0300 1336.0000 1.0000
24.0400 1435.0000 1.0000
24.0500 1422.0000 1.0000
24.0600 1400.0000 1.0000
24.0700 1384.0000 1.0000
24.0800 1417.0000 1.0000
24.0900 1443.0000 1.0000
24.1000 1453.0000 1.0000
24.1100 1384.0000 1.0000
24.1200 1388.0000 1.0000
24.1300 1411.0000 1.0000
24.1400 1460.0000 1.0000
24.1500 1350.0000 1.0000
24.1600 1405.0000 1.0000
24.1700 1351.0000 1.0000
24.1800 1369.0000 1.0000
24.1900 1385.0000 1.0000
24.2000 1409.0000 1.0000
24.2100 1436.0000 1.0000
24.2200 1383.0000 1.0000
24.2300 1456.0000 1.0000
24.2400 1419.0000 1.0000
24.2500 1354.0000 1.0000
24.2600 1371.0000 1.0000
24.2700 1386.0000 1.0000
24.2800 1391.0000 1.0000
24.2900 1392.0000 1.0000
24.3000 1400.0000 1.0000
24.3100 1392.0000 1.0000
24.3200 1421.0000 1.0000
24.3300 1440.0000 1.0000
24.3400 1433.0000 1.0000
24.3500 1420.0000 1.0000
24.3600 1391.0000 1.0000
24.3700 1382.0000 1.0000
24.3800 1362.0000 1.0000
24.3900 1400.0000 1.0000
24.4000 1358.0000 1.0000
24.4100 1374.0000 1.0000
24.4200 1393.0000 1.0000
24.4300 1465.0000 1.0000
24.4400 1389.0000 1.0000
24.4500 1426.0000 1.0000
24.4600 1385.0000 1.0000
24.4700 1356.0000 1.0000
24.4800 1392.0000 1.0000
24.4900 1463.0000 1.0000
24.5000 1424.0000 1.0000
24.5100 1385.0000 1.0000
24.5200 1369.0000 1.0000
24.5300 1410.0000 1.0000
24.5400 1444.0000 1.0000
24.5500 1422.0000 1.0000
24.5600 1470.0000 1.0000
24.5700 1444.0000 1.0000
24.5800 1461.0000 1.0000
24.5900 1398.0000 1.0000
24.6000 1389.0000 1.0000
24.6100 1466.0000 1.0000
24.6200 1514.0000 1.0000
24.6300 1422.0000 1.0000
24.6400 1499.0000 1.0000
24.6500 1447.0000 1.0000
24.6600 1423.0000 1.0000
24.6700 1516.0000 1.0000
24.6800 1458.0000 1.0000
24.6900 1430.0000 1.0000
24.7000 1379.0000 1.0000
24.7100 1426.0000 1.0000
24.7200 1461.0000 1.0000
24.7300 1484.0000 1.0000
24.7400 1432.0000 1.0000
24.7500 1426.0000 1.0000
24.7600 1407.0000 1.0000
24.7700 1491.0000 1.0000
24.7800 1436.0000 1.0000
24.7900 1416.0000 1.0000
24.8000 1419.0000 1.0000
24.8100 1456.0000 1.0000
24.8200 1463.0000 1.0000
24.8300 1423.0000 1.0000
24.8400 1471.0000 1.0000
24.8500 1448.0000 1.0000
24.8600 1435.0000 1.0000
24.8700 1443.0000 1.0000
24.8800 1422.0000 1.0000
24.8900 1390.0000 1.0000
24.9000 1414.0000 1.0000
24.9100 1376.0000 1.0000
24.9200 1415.0000 1.0000
24.9300 1437.0000 1.0000
24.9400 1476.0000 1.0000
24.9500 1459.0000 1.0000
24.9600 1394.0000 1.0000
24.9700 1437.0000 1.0000
24.9800 1423.0000 1.0000
24.9900 1440.0000 1.0000
25.0000 1405.0000 1.0000
25.0100 1419.0000 1.0000
25.0200 1436.0000 1.0000
25.0300 1474.0000 1.0000
25.0400 1433.0000 1.0000
25.0500 1438.0000 1.0000
25.0600 1431.0000 1.0000
25.0700 1386.0000 1.0000
25.0800 1476.0000 1.0000
25.0900 1463.0000 1.0000
25.1000 1431.0000 1.0000
25.1100 1491.0000 1.0000
25.1200 1485.0000 1.0000
25.1300 1470.0000 1.0000
25.1400 1453.0000 1.0000
25.1500 1466.0000 1.0000
25.1600 1461.0000 1.0000
25.1700 1484.0000 1.0000
25.1800 1423.0000 1.0000
25.1900 1394.0000 1.0000
25.2000 1430.0000 1.0000
25.2100 1371.0000 1.0000
25.2200 1435.0000 1.0000
25.2300 1431.0000 1.0000
25.2400 1484.0000 1.0000
25.2500 1451.0000 1.0000
25.2600 1469.0000 1.0000
25.2700 1391.0000 1.0000
25.2800 1436.0000 1.0000
25.2900 1388.0000 1.0000
25.3000 1395.0000 1.0000
25.3100 1428.0000 1.0000
25.3200 1418.0000 1.0000
25.3300 1464.0000 1.0000
25.3400 1421.0000 1.0000
25.3500 1363.0000 1.0000
25.3600 1385.0000 1.0000
25.3700 1380.0000 1.0000
25.3800 1451.0000 1.0000
25.3900 1415.0000 1.0000
25.4000 1498.0000 1.0000
25.4100 1411.0000 1.0000
25.4200 1442.0000 1.0000
25.4300 1432.0000 1.0000
25.4400 1427.0000 1.0000
25.4500 1384.0000 1.0000
25.4600 1386.0000 1.0000
25.4700 1447.0000 1.0000
25.4800 1451.0000 1.0000
25.4900 1432.0000 1.0000
25.5000 1438.0000 1.0000
25.5100 1419.0000 1.0000
25.5200 1426.0000 1.0000
25.5300 1509.0000 1.0000
25.5400 1464.0000 1.0000
25.5500 1414.0000 1.0000
25.5600 1405.0000 1.0000
25.5700 1412.0000 1.0000
25.5800 1346.0000 1.0000
25.5900 1389.0000 1.0000
25.6000 1409.0000 1.0000
25.6100 1436.0000 1.0000
25.6200 1470.0000 1.0000
25.6300 1459.0000 1.0000
25.6400 1414.0000 1.0000
25.6500 1453.0000 1.0000
25.6600 1441.0000 1.0000
25.6700 1472.0000 1.0000
25.6800 1472.0000 1.0000
25.6900 1410.0000 1.0000
25.7000 1393.0000 1.0000
25.7100 1402.0000 1.0000
25.7200 1444.0000 1.0000
25.7300 1451.0000 1.0000
25.7400 1407.0000 1.0000
25.7500 1446.0000 1.0000
25.7600 1427.0000 1.0000
25.7700 1387.0000 1.0000
25.7800 1448.0000 1.0000
25.7900 1466.0000 1.0000
25.8000 1491.0000 1.0000
25.8100 1459.0000 1.0000
25.8200 1449.0000 1.0000
25.8300 1455.0000 1.0000
25.8400 1377.0000 1.0000
25.8500 1365.0000 1.0000
25.8600 1465.0000 1.0000
25.8700 1402.0000 1.0000
25.8800 1403.0000 1.0000
25.8900 1453.0000 1.0000
25.9000 1493.0000 1.0000
25.9100 1430.0000 1.0000
25.9200 1432.0000 1.0000
25.9300 1405.0000 1.0000
25.9400 1429.0000 1.0000
25.9500 1446.0000 1.0000
25.9600 1443.0000 1.0000
25.9700 1457.0000 1.0000
25.9800 1381.0000 1.0000
25.9900 1431.0000 1.0000
26.0000 1433.0000 1.0000
26.0100 1417.0000 1.0000
26.0200 1473.0000 1.0000
26.0300 1444.0000 1.0000
26.0400 1482.0000 1.0000
26.0500 1421.0000 1.0000
26.0600 1431.0000 1.0000
26.0700 1396.0000 1.0000
26.0800 1439.0000 1.0000
26.0900 1463.0000 1.0000
26.1000 1502.0000 1.0000
26.1100 1510.0000 1.0000
26.1200 1449.0000 1.0000
26.1300 1453.0000 1.0000
26.1400 1478.0000 1.0000
26.1500 1451.0000 1.0000
26.1600 1455.0000 1.0000
26.1700 1481.0000 1.0000
26.1800 1391.0000 1.0000
26.1900 1461.0000 1.0000
26.2000 1467.0000 1.0000
26.2100 1427.0000 1.0000
26.2200 1450.0000 1.0000
26.2300 1449.0000 1.0000
26.2400 1483.0000 1.0000
26.2500 1453.0000 1.0000
26.2600 1467.0000 1.0000
26.2700 1422.0000 1.0000
26.2800 1465.0000 1.0000
26.2900 1497.0000 1.0000
26.3000 1467.0000 1.0000
26.3100 1452.0000 1.0000
26.3200 1467.0000 1.0000
26.3300 1500.0000 1.0000
26.3400 1467.0000 1.0000
26.3500 1489.0000 1.0000
26.3600 1485.0000 1.0000
26.3700 1501.0000 1.0000
26.3800 1453.0000 1.0000
26.3900 1518.0000 1.0000
26.4000 1485.0000 1.0000
26.4100 1446.0000 1.0000
26.4200 1520.0000 1.0000
26.4300 1543.0000 1.0000
26.4400 1469.0000 1.0000
26.4500 1515.0000 1.0000
26.4600 1459.0000 1.0000
26.4700 1477.0000 1.0000
26.4800 1531.0000 1.0000
26.4900 1477.0000 1.0000
26.5000 1554.0000 1.0000
26.5100 1486.0000 1.0000
26.5200 1528.0000 1.0000
26.5300 1469.0000 1.0000
26.5400 1515.0000 1.0000
26.5500 1463.0000 1.0000
26.5600 1461.0000 1.0000
26.5700 1498.0000 1.0000
26.5800 1534.0000 1.0000
26.5900 1519.0000 1.0000
26.6000 1523.0000 1.0000
26.6100 1472.0000 1.0000
26.6200 1529.0000 1.0000
26.6300 1503.0000 1.0000
26.6400 1608.0000 1.0000
26.6500 1597.0000 1.0000
26.6600 1548.0000 1.0000
26.6700 1527.0000 1.0000
26.6800 1541.0000 1.0000
26.6900 1578.0000 1.0000
26.7000 1606.0000 1.0000
26.7100 1571.0000 1.0000
26.7200 1547.0000 1.0000
26.7300 1576.0000 1.0000
26.7400 1540.0000 1.0000
26.7500 1589.0000 1.0000
26.7600 1597.0000 1.0000
26.7700 1598.0000 1.0000
26.7800 1570.0000 1.0000
26.7900 1538.0000 1.0000
26.8000 1623.0000 1.0000
26.8100 1674.0000 1.0000
26.8200 1689.0000 1.0000
26.8300 1643.0000 1.0000
26.8400 1676.0000 1.0000
26.8500 1647.0000 1.0000
26.8600 1746.0000 1.0000
26.8700 1684.0000 1.0000
26.8800 1662.0000 1.0000
26.8900 1700.0000 1.0000
26.9000 1784.0000 1.0000
26.9100 1740.0000 1.0000
26.9200 1771.0000 1.0000
26.9300 1810.0000 1.0000
26.9400 1817.0000 1.0000
26.9500 1861.0000 1.0000
26.9600 1911.0000 1.0000
26.9700 1916.0000 1.0000
26.9800 1971.0000 1.0000
26.9900 2092.0000 1.0000
27.0000 2034.0000 1.0000
27.0100 2077.0000 1.0000
27.0200 2137.0000 1.0000
27.0300 2226.0000 1.0000
27.0400 2274.0000 1.0000
27.0500 2300.0000 1.0000
27.0600 2415.0000 1.0000
27.0700 2507.0000 1.0000
27.0800 2559.0000 1.0000
27.0900 2643.0000 1.0000
27.1000 2711.0000 1.0000
27.1100 2784.0000 1.0000
27.1200 2984.0000 1.0000
27.1300 3108.0000 1.0000
27.1400 3190.0000 1.0000
27.1500 3432.0000 1.0000
27.1600 3579.0000 1.0000
27.1700 3780.0000 1.0000
27.1800 3901.0000 1.0000
27.1900 4161.0000 1.0000
27.2000 4475.0000 1.0000
27.2100 4648.0000 1.0000
27.2200 4911.0000 1.0000
27.2300 5196.0000 1.0000
27.2400 5560.0000 1.0000
27.2500 5764.0000 1.0000
27.2600 6101.0000 1.0000
27.2700 6120.0000 1.0000
27.2800 6074.0000 1.0000
27.2900 6186.0000 1.0000
27.3000 6255.0000 1.0000
27.3100 6097.0000 1.0000
27.3200 5897.0000 1.0000
27.3300 5776.0000 1.0000
27.3400 5504.0000 1.0000
27.3500 5228.0000 1.0000
27.3600 4968.0000 1.0000
27.3700 4677.0000 1.0000
27.3800 4525.0000 1.0000
27.3900 4222.0000 1.0000
27.4000 4049.0000 1.0000
27.4100 3753.0000 1.0000
27.4200 3535.0000 1.0000
27.4300 3390.0000 1.0000
27.4400 3173.0000 1.0000
27.4500 3078.0000 1.0000
27.4600 3030.0000 1.0000
27.4700 2830.0000 1.0000
27.4800 2713.0000 1.0000
27.4900 2597.0000 1.0000
27.5000 2477.0000 1.0000
27.5100 2415.0000 1.0000
27.5200 2303.0000 1.0000
27.5300 2327.0000 1.0000
27.5400 2197.0000 1.0000
27.5500 2148.0000 1.0000
27.5600 2087.0000 1.0000
27.5700 2057.0000 1.0000
27.5800 2025.0000 1.0000
27.5900 1944.0000 1.0000
27.6000 1859.0000 1.0000
27.6100 1880.0000 1.0000
27.6200 1860.0000 1.0000
27.6300 1756.0000 1.0000
27.6400 1826.0000 1.0000
27.6500 1785.0000 1.0000
27.6600 1777.0000 1.0000
27.6700 1796.0000 1.0000
27.6800 1724.0000 1.0000
27.6900 1692.0000 1.0000
27.7000 1681.0000 1.0000
27.7100 1650.0000 1.0000
27.7200 1715.0000 1.0000
27.7300 1568.0000 1.0000
27.7400 1587.0000 1.0000
27.7500 1599.0000 1.0000
27.7600 1628.0000 1.0000
27.7700 1591.0000 1.0000
27.7800 1564.0000 1.0000
27.7900 1568.0000 1.0000
27.8000 1541.0000 1.0000
27.8100 1560.0000 1.0000
27.8200 1535.0000 1.0000
27.8300 1584.0000 1.0000
27.8400 1574.0000 1.0000
27.8500 1509.0000 1.0000
27.8600 1555.0000 1.0000
27.8700 1480.0000 1.0000
27.8800 1446.0000 1.0000
27.8900 1499.0000 1.0000
27.9000 1481.0000 1.0000
27.9100 1385.0000 1.0000
27.9200 1514.0000 1.0000
27.9300 1479.0000 1.0000
27.9400 1476.0000 1.0000
27.9500 1473.0000 1.0000
27.9600 1426.0000 1.0000
27.9700 1475.0000 1.0000
27.9800 1485.0000 1.0000
27.9900 1433.0000 1.0000
28.0000 1458.0000 1.0000
28.0100 1401.0000 1.0000
28.0200 1437.0000 1.0000
28.0300 1395.0000 1.0000
28.0400 1412.0000 1.0000
28.0500 1427.0000 1.0000
28.0600 1405.0000 1.0000
28.0700 1435.0000 1.0000
28.0800 1444.0000 1.0000
28.0900 1396.0000 1.0000
28.1000 1474.0000 1.0000
28.1100 1496.0000 1.0000
28.1200 1389.0000 1.0000
28.1300 1414.0000 1.0000
28.1400 1402.0000 1.0000
28.1500 1362.0000 1.0000
28.1600 1376.0000 1.0000
28.1700 1400.0000 1.0000
28.1800 1324.0000 1.0000
28.1900 1314.0000 1.0000
28.2000 1329.0000 1.0000
28.2100 1406.0000 1.0000
28.2200 1416.0000 1.0000
28.2300 1373.0000 1.0000
28.2400 1392.0000 1.0000
28.2500 1408.0000 1.0000
28.2600 1310.0000 1.0000
28.2700 1332.0000 1.0000
28.2800 1366.0000 1.0000
28.2900 1361.0000 1.0000
28.3000 1387.0000 1.0000
28.3100 1372.0000 1.0000
28.3200 1399.0000 1.0000
28.3300 1391.0000 1.0000
28.3400 1356.0000 1.0000
28.3500 1409.0000 1.0000
28.3600 1385.0000 1.0000
28.3700 1368.0000 1.0000
28.3800 1362.0000 1.0000
28.3900 1363.0000 1.0000
28.4000 1314.0000 1.0000
28.4100 1333.0000 1.0000
28.4200 1276.0000 1.0000
28.4300 1276.0000 1.0000
28.4400 1320.0000 1.0000
28.4500 1351.0000 1.0000
28.4600 1340.0000 1.0000
28.4700 1342.0000 1.0000
28.4800 1377.0000 1.0000
28.4900 1397.0000 1.0000
28.5000 1296.0000 1.0000
28.5100 1351.0000 1.0000
28.5200 1277.0000 1.0000
28.5300 1287.0000 1.0000
28.5400 1346.0000 1.0000
28.5500 1292.0000 1.0000
28.5600 1346.0000 1.0000
28.5700 1297.0000 1.0000
28.5800 1317.0000 1.0000
28.5900 1301.0000 1.0000
28.6000 1325.0000 1.0000
28.6100 1340.0000 1.0000
28.6200 1340.0000 1.0000
28.6300 1322.0000 1.0000
28.6400 1342.0000 1.0000
28.6500 1347.0000 1.0000
28.6600 1355.0000 1.0000
28.6700 1333.0000 1.0000
28.6800 1300.0000 1.0000
28.6900 1305.0000 1.0000
28.7000 1244.0000 1.0000
28.7100 1319.0000 1.0000
28.7200 1318.0000 1.0000
28.7300 1309.0000 1.0000
28.7400 1307.0000 1.0000
28.7500 1345.0000 1.0000
28.7600 1334.0000 1.0000
28.7700 1302.0000 1.0000
28.7800 1277.0000 1.0000
28.7900 1314.0000 1.0000
28.8000 1333.0000 1.0000
28.8100 1337.0000 1.0000
28.8200 1328.0000 1.0000
28.8300 1305.0000 1.0000
28.8400 1288.0000 1.0000
28.8500 1261.0000 1.0000
28.8600 1285.0000 1.0000
28.8700 1279.0000 1.0000
28.8800 1307.0000 1.0000
28.8900 1286.0000 1.0000
28.9000 1339.0000 1.0000
28.9100 1329.0000 1.0000
28.9200 1334.0000 1.0000
28.9300 1311.0000 1.0000
28.9400 1292.0000 1.0000
28.9500 1293.0000 1.0000
28.9600 1278.0000 1.0000
28.9700 1244.0000 1.0000
28.9800 1241.0000 1.0000
28.9900 1270.0000 1.0000
29.0000 1265.0000 1.0000
29.0100 1289.0000 1.0000
29.0200 1320.0000 1.0000
29.0300 1276.0000 1.0000
29.0400 1281.0000 1.0000
29.0500 1255.0000 1.0000
29.0600 1252.0000 1.0000
29.0700 1295.0000 1.0000
29.0800 1349.0000 1.0000
29.0900 1379.0000 1.0000
29.1000 1358.0000 1.0000
29.1100 1385.0000 1.0000
29.1200 1350.0000 1.0000
29.1300 1339.0000 1.0000
29.1400 1340.0000 1.0000
29.1500 1365.0000 1.0000
29.1600 1346.0000 1.0000
29.1700 1350.0000 1.0000
29.1800 1343.0000 1.0000
29.1900 1310.0000 1.0000
29.2000 1267.0000 1.0000
29.2100 1300.0000 1.0000
29.2200 1336.0000 1.0000
29.2300 1312.0000 1.0000
29.2400 1295.0000 1.0000
29.2500 1317.0000 1.0000
29.2600 1343.0000 1.0000
29.2700 1304.0000 1.0000
29.2800 1244.0000 1.0000
29.2900 1256.0000 1.0000
29.3000 1254.0000 1.0000
29.3100 1295.0000 1.0000
29.3200 1358.0000 1.0000
29.3300 1300.0000 1.0000
29.3400 1256.0000 1.0000
29.3500 1287.0000 1.0000
29.3600 1259.0000 1.0000
29.3700 1258.0000 1.0000
29.3800 1236.0000 1.0000
29.3900 1254.0000 1.0000
29.4000 1225.0000 1.0000
29.4100 1257.0000 1.0000
29.4200 1298.0000 1.0000
29.4300 1208.0000 1.0000
29.4400 1242.0000 1.0000
29.4500 1242.0000 1.0000
29.4600 1303.0000 1.0000
29.4700 1263.0000 1.0000
29.4800 1250.0000 1.0000
29.4900 1214.0000 1.0000
29.5000 1229.0000 1.0000
29.5100 1246.0000 1.0000
29.5200 1237.0000 1.0000
29.5300 1278.0000 1.0000
29.5400 1258.0000 1.0000
29.5500 1294.0000 1.0000
29.5600 1264.0000 1.0000
29.5700 1257.0000 1.0000
29.5800 1294.0000 1.0000
29.5900 1274.0000 1.0000
29.6000 1299.0000 1.0000
29.6100 1306.0000 1.0000
29.6200 1304.0000 1.0000
29.6300 1257.0000 1.0000
29.6400 1284.0000 1.0000
29.6500 1243.0000 1.0000
29.6600 1239.0000 1.0000
29.6700 1238.0000 1.0000
29.6800 1258.0000 1.0000
29.6900 1268.0000 1.0000
29.7000 1318.0000 1.0000
29.7100 1245.0000 1.0000
29.7200 1270.0000 1.0000
29.7300 1252.0000 1.0000
29.7400 1262.0000 1.0000
29.7500 1261.0000 1.0000
29.7600 1234.0000 1.0000
29.7700 1210.0000 1.0000
29.7800 1268.0000 1.0000
29.7900 1228.0000 1.0000
29.8000 1253.0000 1.0000
29.8100 1207.0000 1.0000
29.8200 1270.0000 1.0000
29.8300 1242.0000 1.0000
29.8400 1192.0000 1.0000
29.8500 1214.0000 1.0000
29.8600 1206.0000 1.0000
29.8700 1232.0000 1.0000
29.8800 1217.0000 1.0000
29.8900 1242.0000 1.0000
29.9000 1212.0000 1.0000
29.9100 1229.0000 1.0000
29.9200 1210.0000 1.0000
29.9300 1255.0000 1.0000
29.9400 1221.0000 1.0000
29.9500 1320.0000 1.0000
29.9600 1257.0000 1.0000
29.9700 1294.0000 1.0000
29.9800 1259.0000 1.0000
29.9900 1248.0000 1.0000
30.0000 1289.0000 1.0000
30.0100 1176.0000 1.0000
30.0200 1276.0000 1.0000
30.0300 1219.0000 1.0000
30.0400 1274.0000 1.0000
30.0500 1241.0000 1.0000
30.0600 1247.0000 1.0000
30.0700 1284.0000 1.0000
30.0800 1270.0000 1.0000
30.0900 1249.0000 1.0000
30.1000 1193.0000 1.0000
30.1100 1220.0000 1.0000
30.1200 1225.0000 1.0000
30.1300 1164.0000 1.0000
30.1400 1211.0000 1.0000
30.1500 1196.0000 1.0000
30.1600 1198.0000 1.0000
30.1700 1211.0000 1.0000
30.1800 1177.0000 1.0000
30.1900 1193.0000 1.0000
30.2000 1165.0000 1.0000
30.2100 1179.0000 1.0000
30.2200 1224.0000 1.0000
30.2300 1234.0000 1.0000
30.2400 1233.0000 1.0000
30.2500 1173.0000 1.0000
30.2600 1158.0000 1.0000
30.2700 1194.0000 1.0000
30.2800 1180.0000 1.0000
30.2900 1186.0000 1.0000
30.3000 1192.0000 1.0000
30.3100 1182.0000 1.0000
30.3200 1232.0000 1.0000
30.3300 1161.0000 1.0000
30.3400 1235.0000 1.0000
30.3500 1224.0000 1.0000
30.3600 1198.0000 1.0000
30.3700 1169.0000 1.0000
30.3800 1183.0000 1.0000
30.3900 1161.0000 1.0000
30.4000 1177.0000 1.0000
30.4100 1200.0000 1.0000
30.4200 1173.0000 1.0000
30.4300 1204.0000 1.0000
30.4400 1209.0000 1.0000
30.4500 1232.0000 1.0000
30.4600 1200.0000 1.0000
30.4700 1252.0000 1.0000
30.4800 1167.0000 1.0000
30.4900 1198.0000 1.0000
30.5000 1179.0000 1.0000
30.5100 1168.0000 1.0000
30.5200 1239.0000 1.0000
30.5300 1191.0000 1.0000
30.5400 1199.0000 1.0000
30.5500 1182.0000 1.0000
30.5600 1193.0000 1.0000
30.5700 1209.0000 1.0000
30.5800 1188.0000 1.0000
30.5900 1194.0000 1.0000
30.6000 1290.0000 1.0000
30.6100 1231.0000 1.0000
30.6200 1227.0000 1.0000
30.6300 1173.0000 1.0000
30.6400 1174.0000 1.0000
30.6500 1202.0000 1.0000
30.6600 1141.0000 1.0000
30.6700 1116.0000 1.0000
30.6800 1197.0000 1.0000
30.6900 1173.0000 1.0000
30.7000 1207.0000 1.0000
30.7100 1145.0000 1.0000
30.7200 1178.0000 1.0000
30.7300 1180.0000 1.0000
30.7400 1145.0000 1.0000
30.7500 1174.0000 1.0000
30.7600 1190.0000 1.0000
30.7700 1190.0000 1.0000
30.7800 1206.0000 1.0000
30.7900 1191.0000 1.0000
30.8000 1199.0000 1.0000
30.8100 1150.0000 1.0000
30.8200 1185.0000 1.0000
30.8300 1173.0000 1.0000
30.8400 1178.0000 1.0000
30.8500 1237.0000 1.0000
30.8600 1241.0000 1.0000
30.8700 1214.0000 1.0000
30.8800 1171.0000 1.0000
30.8900 1189.0000 1.0000
30.9000 1151.0000 1.0000
30.9100 1190.0000 1.0000
30.9200 1180.0000 1.0000
30.9300 1224.0000 1.0000
30.9400 1207.0000 1.0000
30.9500 1191.0000 1.0000
30.9600 1207.0000 1.0000
30.9700 1181.0000 1.0000
30.9800 1189.0000 1.0000
30.9900 1068.0000 1.0000
31.0000 1169.0000 1.0000
31.0100 1225.0000 1.0000
31.0200 1191.0000 1.0000
31.0300 1193.0000 1.0000
31.0400 1195.0000 1.0000
31.0500 1194.0000 1.0000
31.0600 1225.0000 1.0000
31.0700 1165.0000 1.0000
31.0800 1151.0000 1.0000
31.0900 1178.0000 1.0000
31.1000 1184.0000 1.0000
31.1100 1180.0000 1.0000
31.1200 1191.0000 1.0000
31.1300 1143.0000 1.0000
31.1400 1170.0000 1.0000
31.1500 1162.0000 1.0000
31.1600 1132.0000 1.0000
31.1700 1182.0000 1.0000
31.1800 1166.0000 1.0000
31.1900 1204.0000 1.0000
31.2000 1145.0000 1.0000
31.2100 1210.0000 1.0000
31.2200 1136.0000 1.0000
31.2300 1145.0000 1.0000
31.2400 1152.0000 1.0000
31.2500 1197.0000 1.0000
31.2600 1160.0000 1.0000
31.2700 1169.0000 1.0000
31.2800 1140.0000 1.0000
31.2900 1166.0000 1.0000
31.3000 1158.0000 1.0000
31.3100 1192.0000 1.0000
31.3200 1192.0000 1.0000
31.3300 1178.0000 1.0000
31.3400 1195.0000 1.0000
31.3500 1205.0000 1.0000
31.3600 1146.0000 1.0000
31.3700 1149.0000 1.0000
31.3800 1186.0000 1.0000
31.3900 1129.0000 1.0000
31.4000 1081.0000 1.0000
31.4100 1182.0000 1.0000
31.4200 1178.0000 1.0000
31.4300 1147.0000 1.0000
31.4400 1187.0000 1.0000
31.4500 1150.0000 1.0000
31.4600 1140.0000 1.0000
31.4700 1102.0000 1.0000
31.4800 1123.0000 1.0000
31.4900 1163.0000 1.0000
31.5000 1145.0000 1.0000
31.5100 1156.0000 1.0000
31.5200 1174.0000 1.0000
31.5300 1149.0000 1.0000
31.5400 1126.0000 1.0000
31.5500 1133.0000 1.0000
31.5600 1155.0000 1.0000
31.5700 1163.0000 1.0000
31.5800 1120.0000 1.0000
31.5900 1129.0000 1.0000
31.6000 1117.0000 1.0000
31.6100 1156.0000 1.0000
31.6200 1095.0000 1.0000
31.6300 1114.0000 1.0000
31.6400 1137.0000 1.0000
31.6500 1157.0000 1.0000
31.6600 1147.0000 1.0000
31.6700 1140.0000 1.0000
31.6800 1150.0000 1.0000
31.6900 1153.0000 1.0000
31.7000 1157.0000 1.0000
31.7100 1170.0000 1.0000
31.7200 1105.0000 1.0000
31.7300 1110.0000 1.0000
31.7400 1191.0000 1.0000
31.7500 1144.0000 1.0000
31.7600 1183.0000 1.0000
31.7700 1124.0000 1.0000
31.7800 1131.0000 1.0000
31.7900 1158.0000 1.0000
31.8000 1081.0000 1.0000
31.8100 1165.0000 1.0000
31.8200 1194.0000 1.0000
31.8300 1142.0000 1.0000
31.8400 1099.0000 1.0000
31.8500 1162.0000 1.0000
31.8600 1126.0000 1.0000
31.8700 1123.0000 1.0000
31.8800 1154.0000 1.0000
31.8900 1170.0000 1.0000
31.9000 1130.0000 1.0000
31.9100 1115.0000 1.0000
31.9200 1153.0000 1.0000
31.9300 1176.0000 1.0000
31.9400 1124.0000 1.0000
31.9500 1112.0000 1.0000
31.9600 1190.0000 1.0000
31.9700 1148.0000 1.0000
31.9800 1123.0000 1.0000
31.9900 1164.0000 1.0000
32.0000 1137.0000 1.0000
32.0100 1176.0000 1.0000
32.0200 1187.0000 1.0000
32.0300 1151.0000 1.0000
32.0400 1221.0000 1.0000
32.0500 1146.0000 1.0000
32.0600 1139.0000 1.0000
32.0700 1207.0000 1.0000
32.0800 1190.0000 1.0000
32.0900 1150.0000 1.0000
32.1000 1125.0000 1.0000
32.1100 1126.0000 1.0000
32.1200 1156.0000 1.0000
32.1300 1161.0000 1.0000
32.1400 1106.0000 1.0000
32.1500 1141.0000 1.0000
32.1600 1084.0000 1.0000
32.1700 1130.0000 1.0000
32.1800 1122.0000 1.0000
32.1900 1071.0000 1.0000
32.2000 1101.0000 1.0000
32.2100 1123.0000 1.0000
32.2200 1158.0000 1.0000
32.2300 1126.0000 1.0000
32.2400 1124.0000 1.0000
32.2500 1158.0000 1.0000
32.2600 1145.0000 1.0000
32.2700 1136.0000 1.0000
32.2800 1138.0000 1.0000
32.2900 1112.0000 1.0000
32.3000 1145.0000 1.0000
32.3100 1125.0000 1.0000
32.3200 1130.0000 1.0000
32.3300 1141.0000 1.0000
32.3400 1069.0000 1.0000
32.3500 1158.0000 1.0000
32.3600 1131.0000 1.0000
32.3700 1110.0000 1.0000
32.3800 1157.0000 1.0000
32.3900 1161.0000 1.0000
32.4000 1143.0000 1.0000
32.4100 1165.0000 1.0000
32.4200 1182.0000 1.0000
32.4300 1176.0000 1.0000
32.4400 1169.0000 1.0000
32.4500 1199.0000 1.0000
32.4600 1126.0000 1.0000
32.4700 1123.0000 1.0000
32.4800 1135.0000 1.0000
32.4900 1123.0000 1.0000
32.5000 1150.0000 1.0000
32.5100 1164.0000 1.0000
32.5200 1118.0000 1.0000
32.5300 1165.0000 1.0000
32.5400 1089.0000 1.0000
32.5500 1123.0000 1.0000
32.5600 1170.0000 1.0000
32.5700 1139.0000 1.0000
32.5800 1115.0000 1.0000
32.5900 1064.0000 1.0000
32.6000 1138.0000 1.0000
32.6100 1084.0000 1.0000
32.6200 1087.0000 1.0000
32.6300 1090.0000 1.0000
32.6400 1123.0000 1.0000
32.6500 1028.0000 1.0000
32.6600 1102.0000 1.0000
32.6700 1124.0000 1.0000
32.6800 1070.0000 1.0000
32.6900 1065.0000 1.0000
32.7000 1086.0000 1.0000
32.7100 1092.0000 1.0000
32.7200 1108.0000 1.0000
32.7300 1068.0000 1.0000
32.7400 1063.0000 1.0000
32.7500 1070.0000 1.0000
32.7600 1086.0000 1.0000
32.7700 1077.0000 1.0000
32.7800 1101.0000 1.0000
32.7900 1075.0000 1.0000
32.8000 1082.0000 1.0000
32.8100 1074.0000 1.0000
32.8200 1068.0000 1.0000
32.8300 1099.0000 1.0000
32.8400 1011.0000 1.0000
32.8500 1122.0000 1.0000
32.8600 1094.0000 1.0000
32.8700 1060.0000 1.0000
32.8800 1108.0000 1.0000
32.8900 1079.0000 1.0000
32.9000 1047.0000 1.0000
32.9100 1042.0000 1.0000
32.9200 1091.0000 1.0000
32.9300 1096.0000 1.0000
32.9400 1127.0000 1.0000
32.9500 1061.0000 1.0000
32.9600 1061.0000 1.0000
32.9700 1060.0000 1.0000
32.9800 1025.0000 1.0000
32.9900 1124.0000 1.0000
33.0000 1071.0000 1.0000
33.0100 1110.0000 1.0000
33.0200 1036.0000 1.0000
33.0300 1002.0000 1.0000
33.0400 1123.0000 1.0000
33.0500 1106.0000 1.0000
33.0600 1075.0000 1.0000
33.0700 1045.0000 1.0000
33.0800 1060.0000 1.0000
33.0900 1061.0000 1.0000
33.1000 1033.0000 1.0000
33.1100 1028.0000 1.0000
33.1200 1061.0000 1.0000
33.1300 1096.0000 1.0000
33.1400 1054.0000 1.0000
33.1500 1097.0000 1.0000
33.1600 1086.0000 1.0000
33.1700 1064.0000 1.0000
33.1800 1013.0000 1.0000
33.1900 1078.0000 1.0000
33.2000 1070.0000 1.0000
33.2100 1032.0000 1.0000
33.2200 1039.0000 1.0000
33.2300 1078.0000 1.0000
33.2400 1094.0000 1.0000
33.2500 1092.0000 1.0000
33.2600 1077.0000 1.0000
33.2700 1047.0000 1.0000
33.2800 1054.0000 1.0000
33.2900 1097.0000 1.0000
33.3000 1037.0000 1.0000
33.3100 1042.0000 1.0000
33.3200 1086.0000 1.0000
33.3300 1054.0000 1.0000
33.3400 1071.0000 1.0000
33.3500 1066.0000 1.0000
33.3600 1091.0000 1.0000
33.3700 1037.0000 1.0000
33.3800 1071.0000 1.0000
33.3900 1152.0000 1.0000
33.4000 1084.0000 1.0000
33.4100 1041.0000 1.0000
33.4200 1134.0000 1.0000
33.4300 1091.0000 1.0000
33.4400 1051.0000 1.0000
33.4500 1022.0000 1.0000
33.4600 1037.0000 1.0000
33.4700 1081.0000 1.0000
33.4800 1034.0000 1.0000
33.4900 1066.0000 1.0000
33.5000 1057.0000 1.0000
33.5100 1091.0000 1.0000
33.5200 1058.0000 1.0000
33.5300 1094.0000 1.0000
33.5400 1069.0000 1.0000
33.5500 1043.0000 1.0000
33.5600 1060.0000 1.0000
33.5700 1101.0000 1.0000
33.5800 1061.0000 1.0000
33.5900 1084.0000 1.0000
33.6000 1018.0000 1.0000
33.6100 1095.0000 1.0000
33.6200 1116.0000 1.0000
33.6300 1070.0000 1.0000
33.6400 1044.0000 1.0000
33.6500 1046.0000 1.0000
33.6600 1048.0000 1.0000
33.6700 1059.0000 1.0000
33.6800 1100.0000 1.0000
33.6900 1105.0000 1.0000
33.7000 1056.0000 1.0000
33.7100 1062.0000 1.0000
33.7200 1119.0000 1.0000
33.7300 1077.0000 1.0000
33.7400 1036.0000 1.0000
33.7500 1142.0000 1.0000
33.7600 1099.0000 1.0000
33.7700 1129.0000 1.0000
33.7800 1073.0000 1.0000
33.7900 1095.0000 1.0000
33.8000 1081.0000 1.0000
33.8100 1098.0000 1.0000
33.8200 1118.0000 1.0000
33.8300 1073.0000 1.0000
33.8400 1092.0000 1.0000
33.8500 1068.0000 1.0000
33.8600 1063.0000 1.0000
33.8700 1123.0000 1.0000
33.8800 1099.0000 1.0000
33.8900 1128.0000 1.0000
33.9000 1139.0000 1.0000
33.9100 1125.0000 1.0000
33.9200 1143.0000 1.0000
33.9300 1119.0000 1.0000
33.9400 1136.0000 1.0000
33.9500 1094.0000 1.0000
33.9600 1125.0000 1.0000
33.9700 1092.0000 1.0000
33.9800 1136.0000 1.0000
33.9900 1074.0000 1.0000
34.0000 1160.0000 1.0000
34.0100 1171.0000 1.0000
34.0200 1164.0000 1.0000
34.0300 1130.0000 1.0000
34.0400 1165.0000 1.0000
34.0500 1147.0000 1.0000
34.0600 1175.0000 1.0000
34.0700 1212.0000 1.0000
34.0800 1156.0000 1.0000
34.0900 1180.0000 1.0000
34.1000 1171.0000 1.0000
34.1100 1211.0000 1.0000
34.1200 1225.0000 1.0000
34.1300 1182.0000 1.0000
34.1400 1228.0000 1.0000
34.1500 1260.0000 1.0000
34.1600 1298.0000 1.0000
34.1700 1228.0000 1.0000
34.1800 1276.0000 1.0000
34.1900 1315.0000 1.0000
34.2000 1315.0000 1.0000
34.2100 1281.0000 1.0000
34.2200 1337.0000 1.0000
34.2300 1369.0000 1.0000
34.2400 1346.0000 1.0000
34.2500 1371.0000 1.0000
34.2600 1435.0000 1.0000
34.2700 1468.0000 1.0000
34.2800 1495.0000 1.0000
34.2900 1516.0000 1.0000
34.3000 1538.0000 1.0000
34.3100 1609.0000 1.0000
34.3200 1646.0000 1.0000
34.3300 1762.0000 1.0000
34.3400 1775.0000 1.0000
34.3500 1836.0000 1.0000
34.3600 1927.0000 1.0000
34.3700 2016.0000 1.0000
34.3800 2028.0000 1.0000
34.3900 2201.0000 1.0000
34.4000 2354.0000 1.0000
34.4100 2496.0000 1.0000
34.4200 2601.0000 1.0000
34.4300 2624.0000 1.0000
34.4400 2687.0000 1.0000
34.4500 2746.0000 1.0000
34.4600 2934.0000 1.0000
34.4700 2971.0000 1.0000
34.4800 3026.0000 1.0000
34.4900 2889.0000 1.0000
34.5000 2911.0000 1.0000
34.5100 2859.0000 1.0000
34.5200 2802.0000 1.0000
34.5300 2779.0000 1.0000
34.5400 2585.0000 1.0000
34.5500 2703.0000 1.0000
34.5600 2604.0000 1.0000
34.5700 2426.0000 1.0000
34.5800 2345.0000 1.0000
34.5900 2234.0000 1.0000
34.6000 2123.0000 1.0000
34.6100 2060.0000 1.0000
34.6200 1975.0000 1.0000
34.6300 1862.0000 1.0000
34.6400 1849.0000 1.0000
34.6500 1754.0000 1.0000
34.6600 1687.0000 1.0000
34.6700 1573.0000 1.0000
34.6800 1562.0000 1.0000
34.6900 1522.0000 1.0000
34.7000 1494.0000 1.0000
34.7100 1452.0000 1.0000
34.7200 1447.0000 1.0000
34.7300 1411.0000 1.0000
34.7400 1388.0000 1.0000
34.7500 1319.0000 1.0000
34.7600 1324.0000 1.0000
34.7700 1324.0000 1.0000
34.7800 1270.0000 1.0000
34.7900 1256.0000 1.0000
34.8000 1234.0000 1.0000
34.8100 1245.0000 1.0000
34.8200 1221.0000 1.0000
34.8300 1197.0000 1.0000
34.8400 1165.0000 1.0000
34.8500 1134.0000 1.0000
34.8600 1145.0000 1.0000
34.8700 1180.0000 1.0000
34.8800 1200.0000 1.0000
34.8900 1168.0000 1.0000
34.9000 1107.0000 1.0000
34.9100 1126.0000 1.0000
34.9200 1101.0000 1.0000
34.9300 1139.0000 1.0000
34.9400 1072.0000 1.0000
34.9500 1081.0000 1.0000
34.9600 1060.0000 1.0000
34.9700 1077.0000 1.0000
34.9800 1077.0000 1.0000
34.9900 1052.0000 1.0000
35.0000 1020.0000 1.0000
35.0100 1059.0000 1.0000
35.0200 971.0000 1.0000
35.0300 1025.0000 1.0000
35.0400 1017.0000 1.0000
35.0500 1044.0000 1.0000
35.0600 999.0000 1.0000
35.0700 997.0000 1.0000
35.0800 1024.0000 1.0000
35.0900 1005.0000 1.0000
35.1000 975.0000 1.0000
35.1100 956.0000 1.0000
35.1200 1009.0000 1.0000
35.1300 1028.0000 1.0000
35.1400 1033.0000 1.0000
35.1500 987.0000 1.0000
35.1600 1039.0000 1.0000
35.1700 966.0000 1.0000
35.1800 939.0000 1.0000
35.1900 972.0000 1.0000
35.2000 982.0000 1.0000
35.2100 983.0000 1.0000
35.2200 987.0000 1.0000
35.2300 982.0000 1.0000
35.2400 944.0000 1.0000
35.2500 985.0000 1.0000
35.2600 976.0000 1.0000
35.2700 979.0000 1.0000
35.2800 938.0000 1.0000
35.2900 953.0000 1.0000
35.3000 966.0000 1.0000
35.3100 968.0000 1.0000
35.3200 926.0000 1.0000
35.3300 926.0000 1.0000
35.3400 945.0000 1.0000
35.3500 919.0000 1.0000
35.3600 904.0000 1.0000
35.3700 918.0000 1.0000
35.3800 953.0000 1.0000
35.3900 888.0000 1.0000
35.4000 881.0000 1.0000
35.4100 939.0000 1.0000
35.4200 946.0000 1.0000
35.4300 985.0000 1.0000
35.4400 975.0000 1.0000
35.4500 939.0000 1.0000
35.4600 906.0000 1.0000
35.4700 929.0000 1.0000
35.4800 891.0000 1.0000
35.4900 969.0000 1.0000
35.5000 853.0000 1.0000
35.5100 923.0000 1.0000
35.5200 887.0000 1.0000
35.5300 931.0000 1.0000
35.5400 911.0000 1.0000
35.5500 906.0000 1.0000
35.5600 897.0000 1.0000
35.5700 936.0000 1.0000
35.5800 963.0000 1.0000
35.5900 945.0000 1.0000
35.6000 884.0000 1.0000
35.6100 887.0000 1.0000
35.6200 918.0000 1.0000
35.6300 892.0000 1.0000
35.6400 971.0000 1.0000
35.6500 946.0000 1.0000
35.6600 939.0000 1.0000
35.6700 939.0000 1.0000
35.6800 906.0000 1.0000
35.6900 896.0000 1.0000
35.7000 909.0000 1.0000
35.7100 888.0000 1.0000
35.7200 895.0000 1.0000
35.7300 896.0000 1.0000
35.7400 890.0000 1.0000
35.7500 939.0000 1.0000
35.7600 980.0000 1.0000
35.7700 860.0000 1.0000
35.7800 909.0000 1.0000
35.7900 883.0000 1.0000
35.8000 899.0000 1.0000
35.8100 937.0000 1.0000
35.8200 910.0000 1.0000
35.8300 917.0000 1.0000
35.8400 911.0000 1.0000
35.8500 863.0000 1.0000
35.8600 879.0000 1.0000
35.8700 901.0000 1.0000
35.8800 891.0000 1.0000
35.8900 888.0000 1.0000
35.9000 921.0000 1.0000
35.9100 878.0000 1.0000
35.9200 890.0000 1.0000
35.9300 901.0000 1.0000
35.9400 919.0000 1.0000
35.9500 913.0000 1.0000
35.9600 869.0000 1.0000
35.9700 931.0000 1.0000
35.9800 923.0000 1.0000
35.9900 867.0000 1.0000
36.0000 891.0000 1.0000
36.0100 912.0000 1.0000
36.0200 889.0000 1.0000
36.0300 875.0000 1.0000
36.0400 895.0000 1.0000
36.0500 863.0000 1.0000
36.0600 894.0000 1.0000
36.0700 894.0000 1.0000
36.0800 913.0000 1.0000
36.0900 888.0000 1.0000
36.1000 926.0000 1.0000
36.1100 872.0000 1.0000
36.1200 866.0000 1.0000
36.1300 889.0000 1.0000
36.1400 943.0000 1.0000
36.1500 857.0000 1.0000
36.1600 906.0000 1.0000
36.1700 913.0000 1.0000
36.1800 938.0000 1.0000
36.1900 936.0000 1.0000
36.2000 922.0000 1.0000
36.2100 909.0000 1.0000
36.2200 960.0000 1.0000
36.2300 936.0000 1.0000
36.2400 915.0000 1.0000
36.2500 939.0000 1.0000
36.2600 874.0000 1.0000
36.2700 861.0000 1.0000
36.2800 924.0000 1.0000
36.2900 981.0000 1.0000
36.3000 944.0000 1.0000
36.3100 925.0000 1.0000
36.3200 940.0000 1.0000
36.3300 965.0000 1.0000
36.3400 980.0000 1.0000
36.3500 986.0000 1.0000
36.3600 962.0000 1.0000
36.3700 1007.0000 1.0000
36.3800 919.0000 1.0000
36.3900 955.0000 1.0000
36.4000 984.0000 1.0000
36.4100 977.0000 1.0000
36.4200 946.0000 1.0000
36.4300 930.0000 1.0000
36.4400 916.0000 1.0000
36.4500 910.0000 1.0000
36.4600 954.0000 1.0000
36.4700 949.0000 1.0000
36.4800 923.0000 1.0000
36.4900 899.0000 1.0000
36.5000 964.0000 1.0000
36.5100 929.0000 1.0000
36.5200 937.0000 1.0000
36.5300 888.0000 1.0000
36.5400 844.0000 1.0000
36.5500 899.0000 1.0000
36.5600 900.0000 1.0000
36.5700 902.0000 1.0000
36.5800 898.0000 1.0000
36.5900 953.0000 1.0000
36.6000 883.0000 1.0000
36.6100 888.0000 1.0000
36.6200 863.0000 1.0000
36.6300 878.0000 1.0000
36.6400 887.0000 1.0000
36.6500 849.0000 1.0000
36.6600 829.0000 1.0000
36.6700 834.0000 1.0000
36.6800 852.0000 1.0000
36.6900 858.0000 1.0000
36.7000 903.0000 1.0000
36.7100 881.0000 1.0000
36.7200 886.0000 1.0000
36.7300 886.0000 1.0000
36.7400 824.0000 1.0000
36.7500 833.0000 1.0000
36.7600 792.0000 1.0000
36.7700 848.0000 1.0000
36.7800 878.0000 1.0000
36.7900 837.0000 1.0000
36.8000 850.0000 1.0000
36.8100 854.0000 1.0000
36.8200 890.0000 1.0000
36.8300 889.0000 1.0000
36.8400 840.0000 1.0000
36.8500 829.0000 1.0000
36.8600 821.0000 1.0000
36.8700 889.0000 1.0000
36.8800 848.0000 1.0000
36.8900 807.0000 1.0000
36.9000 843.0000 1.0000
36.9100 856.0000 1.0000
36.9200 855.0000 1.0000
36.9300 897.0000 1.0000
36.9400 825.0000 1.0000
36.9500 878.0000 1.0000
36.9600 803.0000 1.0000
36.9700 843.0000 1.0000
36.9800 881.0000 1.0000
36.9900 850.0000 1.0000
37.0000 837.0000 1.0000
37.0100 795.0000 1.0000
37.0200 811.0000 1.0000
37.0300 827.0000 1.0000
37.0400 806.0000 1.0000
37.0500 829.0000 1.0000
37.0600 857.0000 1.0000
37.0700 857.0000 1.0000
37.0800 835.0000 1.0000
37.0900 850.0000 1.0000
37.1000 820.0000 1.0000
37.1100 797.0000 1.0000
37.1200 841.0000 1.0000
37.1300 851.0000 1.0000
37.1400 881.0000 1.0000
37.1500 817.0000 1.0000
37.1600 812.0000 1.0000
37.1700 830.0000 1.0000
37.1800 814.0000 1.0000
37.1900 862.0000 1.0000
37.2000 811.0000 1.0000
37.2100 798.0000 1.0000
37.2200 824.0000 1.0000
37.2300 822.0000 1.0000
37.2400 784.0000 1.0000
37.2500 829.0000 1.0000
37.2600 835.0000 1.0000
37.2700 787.0000 1.0000
37.2800 843.0000 1.0000
37.2900 838.0000 1.0000
37.3000 815.0000 1.0000
37.3100 803.0000 1.0000
37.3200 819.0000 1.0000
37.3300 791.0000 1.0000
37.3400 801.0000 1.0000
37.3500 790.0000 1.0000
37.3600 810.0000 1.0000
37.3700 797.0000 1.0000
37.3800 817.0000 1.0000
37.3900 776.0000 1.0000
37.4000 795.0000 1.0000
37.4100 808.0000 1.0000
37.4200 823.0000 1.0000
37.4300 827.0000 1.0000
37.4400 809.0000 1.0000
37.4500 840.0000 1.0000
37.4600 821.0000 1.0000
37.4700 850.0000 1.0000
37.4800 806.0000 1.0000
37.4900 808.0000 1.0000
37.5000 831.0000 1.0000
37.5100 837.0000 1.0000
37.5200 813.0000 1.0000
37.5300 850.0000 1.0000
37.5400 827.0000 1.0000
37.5500 854.0000 1.0000
37.5600 833.0000 1.0000
37.5700 850.0000 1.0000
37.5800 826.0000 1.0000
37.5900 866.0000 1.0000
37.6000 809.0000 1.0000
37.6100 822.0000 1.0000
37.6200 843.0000 1.0000
37.6300 791.0000 1.0000
37.6400 832.0000 1.0000
37.6500 856.0000 1.0000
37.6600 839.0000 1.0000
37.6700 821.0000 1.0000
37.6800 875.0000 1.0000
37.6900 828.0000 1.0000
37.7000 844.0000 1.0000
37.7100 812.0000 1.0000
37.7200 818.0000 1.0000
37.7300 810.0000 1.0000
37.7400 817.0000 1.0000
37.7500 830.0000 1.0000
37.7600 894.0000 1.0000
37.7700 893.0000 1.0000
37.7800 883.0000 1.0000
37.7900 836.0000 1.0000
37.8000 823.0000 1.0000
37.8100 838.0000 1.0000
37.8200 881.0000 1.0000
37.8300 825.0000 1.0000
37.8400 847.0000 1.0000
37.8500 861.0000 1.0000
37.8600 875.0000 1.0000
37.8700 857.0000 1.0000
37.8800 866.0000 1.0000
37.8900 845.0000 1.0000
37.9000 852.0000 1.0000
37.9100 850.0000 1.0000
37.9200 879.0000 1.0000
37.9300 878.0000 1.0000
37.9400 816.0000 1.0000
37.9500 823.0000 1.0000
37.9600 828.0000 1.0000
37.9700 867.0000 1.0000
37.9800 872.0000 1.0000
37.9900 880.0000 1.0000
38.0000 881.0000 1.0000
38.0100 895.0000 1.0000
38.0200 874.0000 1.0000
38.0300 904.0000 1.0000
38.0400 935.0000 1.0000
38.0500 938.0000 1.0000
38.0600 928.0000 1.0000
38.0700 953.0000 1.0000
38.0800 966.0000 1.0000
38.0900 948.0000 1.0000
38.1000 964.0000 1.0000
38.1100 1050.0000 1.0000
38.1200 1000.0000 1.0000
38.1300 1028.0000 1.0000
38.1400 1059.0000 1.0000
38.1500 1060.0000 1.0000
38.1600 1056.0000 1.0000
38.1700 1117.0000 1.0000
38.1800 1127.0000 1.0000
38.1900 1168.0000 1.0000
38.2000 1164.0000 1.0000
38.2100 1176.0000 1.0000
38.2200 1142.0000 1.0000
38.2300 1272.0000 1.0000
38.2400 1384.0000 1.0000
38.2500 1370.0000 1.0000
38.2600 1458.0000 1.0000
38.2700 1484.0000 1.0000
38.2800 1571.0000 1.0000
38.2900 1520.0000 1.0000
38.3000 1685.0000 1.0000
38.3100 1837.0000 1.0000
38.3200 1835.0000 1.0000
38.3300 1944.0000 1.0000
38.3400 2115.0000 1.0000
38.3500 2230.0000 1.0000
38.3600 2340.0000 1.0000
38.3700 2531.0000 1.0000
38.3800 2588.0000 1.0000
38.3900 2862.0000 1.0000
38.4000 3090.0000 1.0000
38.4100 3312.0000 1.0000
38.4200 3602.0000 1.0000
38.4300 3807.0000 1.0000
38.4400 4143.0000 1.0000
38.4500 4328.0000 1.0000
38.4600 4599.0000 1.0000
38.4700 4880.0000 1.0000
38.4800 5010.0000 1.0000
38.4900 5070.0000 1.0000
38.5000 5160.0000 1.0000
38.5100 5258.0000 1.0000
38.5200 5196.0000 1.0000
38.5300 5222.0000 1.0000
38.5400 5168.0000 1.0000
38.5500 5097.0000 1.0000
38.5600 5037.0000 1.0000
38.5700 4883.0000 1.0000
38.5800 4610.0000 1.0000
38.5900 4536.0000 1.0000
38.6000 4292.0000 1.0000
38.6100 4048.0000 1.0000
38.6200 3960.0000 1.0000
38.6300 3746.0000 1.0000
38.6400 3559.0000 1.0000
38.6500 3319.0000 1.0000
38.6600 3064.0000 1.0000
38.6700 2787.0000 1.0000
38.6800 2799.0000 1.0000
38.6900 2499.0000 1.0000
38.7000 2397.0000 1.0000
38.7100 2214.0000 1.0000
38.7200 2062.0000 1.0000
38.7300 1824.0000 1.0000
38.7400 1850.0000 1.0000
38.7500 1777.0000 1.0000
38.7600 1651.0000 1.0000
38.7700 1539.0000 1.0000
38.7800 1451.0000 1.0000
38.7900 1441.0000 1.0000
38.8000 1374.0000 1.0000
38.8100 1281.0000 1.0000
38.8200 1240.0000 1.0000
38.8300 1151.0000 1.0000
38.8400 1157.0000 1.0000
38.8500 1130.0000 1.0000
38.8600 1082.0000 1.0000
38.8700 1028.0000 1.0000
38.8800 1042.0000 1.0000
38.8900 1044.0000 1.0000
38.9000 976.0000 1.0000
38.9100 988.0000 1.0000
38.9200 965.0000 1.0000
38.9300 944.0000 1.0000
38.9400 931.0000 1.0000
38.9500 897.0000 1.0000
38.9600 865.0000 1.0000
38.9700 890.0000 1.0000
38.9800 850.0000 1.0000
38.9900 893.0000 1.0000
39.0000 835.0000 1.0000
39.0100 838.0000 1.0000
39.0200 832.0000 1.0000
39.0300 854.0000 1.0000
39.0400 833.0000 1.0000
39.0500 837.0000 1.0000
39.0600 848.0000 1.0000
39.0700 788.0000 1.0000
39.0800 804.0000 1.0000
39.0900 795.0000 1.0000
39.1000 808.0000 1.0000
39.1100 780.0000 1.0000
39.1200 838.0000 1.0000
39.1300 805.0000 1.0000
39.1400 747.0000 1.0000
39.1500 770.0000 1.0000
39.1600 779.0000 1.0000
39.1700 780.0000 1.0000
39.1800 769.0000 1.0000
39.1900 731.0000 1.0000
39.2000 768.0000 1.0000
39.2100 789.0000 1.0000
39.2200 738.0000 1.0000
39.2300 781.0000 1.0000
39.2400 740.0000 1.0000
39.2500 752.0000 1.0000
39.2600 767.0000 1.0000
39.2700 767.0000 1.0000
39.2800 737.0000 1.0000
39.2900 731.0000 1.0000
39.3000 765.0000 1.0000
39.3100 743.0000 1.0000
39.3200 799.0000 1.0000
39.3300 789.0000 1.0000
39.3400 743.0000 1.0000
39.3500 768.0000 1.0000
39.3600 749.0000 1.0000
39.3700 729.0000 1.0000
39.3800 748.0000 1.0000
39.3900 804.0000 1.0000
39.4000 774.0000 1.0000
39.4100 784.0000 1.0000
39.4200 756.0000 1.0000
39.4300 769.0000 1.0000
39.4400 775.0000 1.0000
39.4500 762.0000 1.0000
39.4600 727.0000 1.0000
39.4700 742.0000 1.0000
39.4800 767.0000 1.0000
39.4900 741.0000 1.0000
39.5000 770.0000 1.0000
39.5100 785.0000 1.0000
39.5200 797.0000 1.0000
39.5300 746.0000 1.0000
39.5400 807.0000 1.0000
39.5500 781.0000 1.0000
39.5600 786.0000 1.0000
39.5700 789.0000 1.0000
39.5800 847.0000 1.0000
39.5900 795.0000 1.0000
39.6000 803.0000 1.0000
39.6100 780.0000 1.0000
39.6200 807.0000 1.0000
39.6300 780.0000 1.0000
39.6400 800.0000 1.0000
39.6500 728.0000 1.0000
39.6600 735.0000 1.0000
39.6700 746.0000 1.0000
39.6800 783.0000 1.0000
39.6900 765.0000 1.0000
39.7000 749.0000 1.0000
39.7100 739.0000 1.0000
39.7200 739.0000 1.0000
39.7300 766.0000 1.0000
39.7400 726.0000 1.0000
39.7500 694.0000 1.0000
39.7600 722.0000 1.0000
39.7700 743.0000 1.0000
39.7800 702.0000 1.0000
39.7900 729.0000 1.0000
39.8000 683.0000 1.0000
39.8100 696.0000 1.0000
39.8200 687.0000 1.0000
39.8300 691.0000 1.0000
39.8400 696.0000 1.0000
39.8500 681.0000 1.0000
39.8600 710.0000 1.0000
39.8700 744.0000 1.0000
39.8800 679.0000 1.0000
39.8900 747.0000 1.0000
39.9000 721.0000 1.0000
39.9100 733.0000 1.0000
39.9200 679.0000 1.0000
39.9300 708.0000 1.0000
39.9400 702.0000 1.0000
39.9500 677.0000 1.0000
39.9600 702.0000 1.0000
39.9700 692.0000 1.0000
39.9800 692.0000 1.0000
39.9900 654.0000 1.0000
40.0000 703.0000 1.0000
40.0100 709.0000 1.0000
40.0200 712.0000 1.0000
40.0300 725.0000 1.0000
40.0400 705.0000 1.0000
40.0500 687.0000 1.0000
40.0600 677.0000 1.0000
40.0700 676.0000 1.0000
40.0800 669.0000 1.0000
40.0900 708.0000 1.0000
40.1000 684.0000 1.0000
40.1100 705.0000 1.0000
40.1200 666.0000 1.0000
40.1300 683.0000 1.0000
40.1400 695.0000 1.0000
40.1500 678.0000 1.0000
40.1600 639.0000 1.0000
40.1700 669.0000 1.0000
40.1800 686.0000 1.0000
40.1900 641.0000 1.0000
40.2000 662.0000 1.0000
40.2100 650.0000 1.0000
40.2200 654.0000 1.0000
40.2300 661.0000 1.0000
40.2400 660.0000 1.0000
40.2500 703.0000 1.0000
40.2600 694.0000 1.0000
40.2700 644.0000 1.0000
40.2800 679.0000 1.0000
40.2900 642.0000 1.0000
40.3000 676.0000 1.0000
40.3100 699.0000 1.0000
40.3200 673.0000 1.0000
40.3300 679.0000 1.0000
40.3400 695.0000 1.0000
40.3500 650.0000 1.0000
40.3600 653.0000 1.0000
40.3700 691.0000 1.0000
40.3800 678.0000 1.0000
40.3900 632.0000 1.0000
40.4000 639.0000 1.0000
40.4100 693.0000 1.0000
40.4200 679.0000 1.0000
40.4300 709.0000 1.0000
40.4400 675.0000 1.0000
40.4500 684.0000 1.0000
40.4600 642.0000 1.0000
40.4700 673.0000 1.0000
40.4800 659.0000 1.0000
40.4900 695.0000 1.0000
40.5000 657.0000 1.0000
40.5100 657.0000 1.0000
40.5200 702.0000 1.0000
40.5300 689.0000 1.0000
40.5400 671.0000 1.0000
40.5500 688.0000 1.0000
40.5600 675.0000 1.0000
40.5700 648.0000 1.0000
40.5800 649.0000 1.0000
40.5900 673.0000 1.0000
40.6000 631.0000 1.0000
40.6100 654.0000 1.0000
40.6200 690.0000 1.0000
40.6300 688.0000 1.0000
40.6400 656.0000 1.0000
40.6500 698.0000 1.0000
40.6600 666.0000 1.0000
40.6700 680.0000 1.0000
40.6800 703.0000 1.0000
40.6900 676.0000 1.0000
40.7000 642.0000 1.0000
40.7100 669.0000 1.0000
40.7200 701.0000 1.0000
40.7300 666.0000 1.0000
40.7400 622.0000 1.0000
40.7500 625.0000 1.0000
40.7600 660.0000 1.0000
40.7700 677.0000 1.0000
40.7800 689.0000 1.0000
40.7900 715.0000 1.0000
40.8000 685.0000 1.0000
40.8100 649.0000 1.0000
40.8200 632.0000 1.0000
40.8300 673.0000 1.0000
40.8400 635.0000 1.0000
40.8500 680.0000 1.0000
40.8600 668.0000 1.0000
40.8700 676.0000 1.0000
40.8800 683.0000 1.0000
40.8900 695.0000 1.0000
40.9000 648.0000 1.0000
40.9100 642.0000 1.0000
40.9200 617.0000 1.0000
40.9300 666.0000 1.0000
40.9400 687.0000 1.0000
40.9500 700.0000 1.0000
40.9600 680.0000 1.0000
40.9700 666.0000 1.0000
40.9800 658.0000 1.0000
40.9900 652.0000 1.0000
41.0000 649.0000 1.0000
41.0100 662.0000 1.0000
41.0200 636.0000 1.0000
41.0300 663.0000 1.0000
41.0400 661.0000 1.0000
41.0500 667.0000 1.0000
41.0600 650.0000 1.0000
41.0700 647.0000 1.0000
41.0800 696.0000 1.0000
41.0900 630.0000 1.0000
41.1000 661.0000 1.0000
41.1100 666.0000 1.0000
41.1200 638.0000 1.0000
41.1300 664.0000 1.0000
41.1400 682.0000 1.0000
41.1500 655.0000 1.0000
41.1600 645.0000 1.0000
41.1700 699.0000 1.0000
41.1800 665.0000 1.0000
41.1900 682.0000 1.0000
41.2000 675.0000 1.0000
41.2100 669.0000 1.0000
41.2200 653.0000 1.0000
41.2300 684.0000 1.0000
41.2400 633.0000 1.0000
41.2500 637.0000 1.0000
41.2600 649.0000 1.0000
41.2700 619.0000 1.0000
41.2800 667.0000 1.0000
41.2900 689.0000 1.0000
41.3000 645.0000 1.0000
41.3100 663.0000 1.0000
41.3200 663.0000 1.0000
41.3300 691.0000 1.0000
41.3400 649.0000 1.0000
41.3500 651.0000 1.0000
41.3600 637.0000 1.0000
41.3700 649.0000 1.0000
41.3800 637.0000 1.0000
41.3900 656.0000 1.0000
41.4000 634.0000 1.0000
41.4100 646.0000 1.0000
41.4200 617.0000 1.0000
41.4300 632.0000 1.0000
41.4400 641.0000 1.0000
41.4500 676.0000 1.0000
41.4600 648.0000 1.0000
41.4700 638.0000 1.0000
41.4800 607.0000 1.0000
41.4900 632.0000 1.0000
41.5000 663.0000 1.0000
41.5100 626.0000 1.0000
41.5200 648.0000 1.0000
41.5300 659.0000 1.0000
41.5400 678.0000 1.0000
41.5500 666.0000 1.0000
41.5600 677.0000 1.0000
41.5700 669.0000 1.0000
41.5800 632.0000 1.0000
41.5900 645.0000 1.0000
41.6000 666.0000 1.0000
41.6100 664.0000 1.0000
41.6200 667.0000 1.0000
41.6300 676.0000 1.0000
41.6400 642.0000 1.0000
41.6500 652.0000 1.0000
41.6600 641.0000 1.0000
41.6700 688.0000 1.0000
41.6800 662.0000 1.0000
41.6900 631.0000 1.0000
41.7000 669.0000 1.0000
41.7100 638.0000 1.0000
41.7200 643.0000 1.0000
41.7300 653.0000 1.0000
41.7400 666.0000 1.0000
41.7500 652.0000 1.0000
41.7600 671.0000 1.0000
41.7700 692.0000 1.0000
41.7800 647.0000 1.0000
41.7900 665.0000 1.0000
41.8000 648.0000 1.0000
41.8100 654.0000 1.0000
41.8200 635.0000 1.0000
41.8300 661.0000 1.0000
41.8400 655.0000 1.0000
41.8500 642.0000 1.0000
41.8600 668.0000 1.0000
41.8700 679.0000 1.0000
41.8800 663.0000 1.0000
41.8900 656.0000 1.0000
41.9000 667.0000 1.0000
41.9100 636.0000 1.0000
41.9200 626.0000 1.0000
41.9300 602.0000 1.0000
41.9400 654.0000 1.0000
41.9500 671.0000 1.0000
41.9600 665.0000 1.0000
41.9700 662.0000 1.0000
41.9800 669.0000 1.0000
41.9900 644.0000 1.0000
42.0000 678.0000 1.0000
42.0100 628.0000 1.0000
42.0200 634.0000 1.0000
42.0300 654.0000 1.0000
42.0400 655.0000 1.0000
42.0500 674.0000 1.0000
42.0600 611.0000 1.0000
42.0700 629.0000 1.0000
42.0800 638.0000 1.0000
42.0900 651.0000 1.0000
42.1000 641.0000 1.0000
42.1100 651.0000 1.0000
42.1200 686.0000 1.0000
42.1300 632.0000 1.0000
42.1400 634.0000 1.0000
42.1500 645.0000 1.0000
42.1600 653.0000 1.0000
42.1700 624.0000 1.0000
42.1800 673.0000 1.0000
42.1900 650.0000 1.0000
42.2000 646.0000 1.0000
42.2100 672.0000 1.0000
42.2200 639.0000 1.0000
42.2300 686.0000 1.0000
42.2400 652.0000 1.0000
42.2500 680.0000 1.0000
42.2600 652.0000 1.0000
42.2700 690.0000 1.0000
42.2800 707.0000 1.0000
42.2900 676.0000 1.0000
42.3000 657.0000 1.0000
42.3100 646.0000 1.0000
42.3200 635.0000 1.0000
42.3300 653.0000 1.0000
42.3400 638.0000 1.0000
42.3500 653.0000 1.0000
42.3600 652.0000 1.0000
42.3700 648.0000 1.0000
42.3800 625.0000 1.0000
42.3900 639.0000 1.0000
42.4000 691.0000 1.0000
42.4100 652.0000 1.0000
42.4200 652.0000 1.0000
42.4300 670.0000 1.0000
42.4400 664.0000 1.0000
42.4500 639.0000 1.0000
42.4600 602.0000 1.0000
42.4700 617.0000 1.0000
42.4800 671.0000 1.0000
42.4900 645.0000 1.0000
42.5000 655.0000 1.0000
42.5100 632.0000 1.0000
42.5200 614.0000 1.0000
42.5300 619.0000 1.0000
42.5400 648.0000 1.0000
42.5500 643.0000 1.0000
42.5600 619.0000 1.0000
42.5700 663.0000 1.0000
42.5800 658.0000 1.0000
42.5900 689.0000 1.0000
42.6000 662.0000 1.0000
42.6100 635.0000 1.0000
42.6200 644.0000 1.0000
42.6300 645.0000 1.0000
42.6400 641.0000 1.0000
42.6500 633.0000 1.0000
42.6600 622.0000 1.0000
42.6700 646.0000 1.0000
42.6800 692.0000 1.0000
42.6900 689.0000 1.0000
42.7000 610.0000 1.0000
42.7100 608.0000 1.0000
42.7200 618.0000 1.0000
42.7300 650.0000 1.0000
42.7400 619.0000 1.0000
42.7500 650.0000 1.0000
42.7600 641.0000 1.0000
42.7700 680.0000 1.0000
42.7800 637.0000 1.0000
42.7900 646.0000 1.0000
42.8000 584.0000 1.0000
42.8100 581.0000 1.0000
42.8200 594.0000 1.0000
42.8300 652.0000 1.0000
42.8400 652.0000 1.0000
42.8500 682.0000 1.0000
42.8600 669.0000 1.0000
42.8700 633.0000 1.0000
42.8800 635.0000 1.0000
42.8900 638.0000 1.0000
42.9000 682.0000 1.0000
42.9100 660.0000 1.0000
42.9200 640.0000 1.0000
42.9300 631.0000 1.0000
42.9400 625.0000 1.0000
42.9500 621.0000 1.0000
42.9600 639.0000 1.0000
42.9700 628.0000 1.0000
42.9800 650.0000 1.0000
42.9900 645.0000 1.0000
43.0000 640.0000 1.0000
43.0100 652.0000 1.0000
43.0200 684.0000 1.0000
43.0300 691.0000 1.0000
43.0400 669.0000 1.0000
43.0500 668.0000 1.0000
43.0600 688.0000 1.0000
43.0700 664.0000 1.0000
43.0800 670.0000 1.0000
43.0900 692.0000 1.0000
43.1000 685.0000 1.0000
43.1100 701.0000 1.0000
43.1200 676.0000 1.0000
43.1300 701.0000 1.0000
43.1400 737.0000 1.0000
43.1500 737.0000 1.0000
43.1600 707.0000 1.0000
43.1700 716.0000 1.0000
43.1800 696.0000 1.0000
43.1900 715.0000 1.0000
43.2000 703.0000 1.0000
43.2100 754.0000 1.0000
43.2200 720.0000 1.0000
43.2300 738.0000 1.0000
43.2400 689.0000 1.0000
43.2500 731.0000 1.0000
43.2600 725.0000 1.0000
43.2700 727.0000 1.0000
43.2800 689.0000 1.0000
43.2900 689.0000 1.0000
43.3000 692.0000 1.0000
43.3100 677.0000 1.0000
43.3200 695.0000 1.0000
43.3300 704.0000 1.0000
43.3400 695.0000 1.0000
43.3500 728.0000 1.0000
43.3600 651.0000 1.0000
43.3700 665.0000 1.0000
43.3800 642.0000 1.0000
43.3900 651.0000 1.0000
43.4000 671.0000 1.0000
43.4100 630.0000 1.0000
43.4200 672.0000 1.0000
43.4300 664.0000 1.0000
43.4400 631.0000 1.0000
43.4500 631.0000 1.0000
43.4600 632.0000 1.0000
43.4700 643.0000 1.0000
43.4800 653.0000 1.0000
43.4900 647.0000 1.0000
43.5000 637.0000 1.0000
43.5100 633.0000 1.0000
43.5200 648.0000 1.0000
43.5300 620.0000 1.0000
43.5400 627.0000 1.0000
43.5500 607.0000 1.0000
43.5600 616.0000 1.0000
43.5700 688.0000 1.0000
43.5800 630.0000 1.0000
43.5900 646.0000 1.0000
43.6000 668.0000 1.0000
43.6100 658.0000 1.0000
43.6200 631.0000 1.0000
43.6300 643.0000 1.0000
43.6400 622.0000 1.0000
43.6500 615.0000 1.0000
43.6600 674.0000 1.0000
43.6700 674.0000 1.0000
43.6800 626.0000 1.0000
43.6900 612.0000 1.0000
43.7000 609.0000 1.0000
43.7100 609.0000 1.0000
43.7200 623.0000 1.0000
43.7300 619.0000 1.0000
43.7400 617.0000 1.0000
43.7500 606.0000 1.0000
43.7600 653.0000 1.0000
43.7700 639.0000 1.0000
43.7800 624.0000 1.0000
43.7900 645.0000 1.0000
43.8000 665.0000 1.0000
43.8100 640.0000 1.0000
43.8200 620.0000 1.0000
43.8300 588.0000 1.0000
43.8400 615.0000 1.0000
43.8500 631.0000 1.0000
43.8600 608.0000 1.0000
43.8700 644.0000 1.0000
43.8800 627.0000 1.0000
43.8900 597.0000 1.0000
43.9000 625.0000 1.0000
43.9100 643.0000 1.0000
43.9200 603.0000 1.0000
43.9300 622.0000 1.0000
43.9400 661.0000 1.0000
43.9500 585.0000 1.0000
43.9600 627.0000 1.0000
43.9700 616.0000 1.0000
43.9800 585.0000 1.0000
43.9900 638.0000 1.0000
44.0000 649.0000 1.0000
44.0100 601.0000 1.0000
44.0200 621.0000 1.0000
44.0300 619.0000 1.0000
44.0400 642.0000 1.0000
44.0500 576.0000 1.0000
44.0600 571.0000 1.0000
44.0700 582.0000 1.0000
44.0800 602.0000 1.0000
44.0900 570.0000 1.0000
44.1000 600.0000 1.0000
44.1100 646.0000 1.0000
44.1200 675.0000 1.0000
44.1300 640.0000 1.0000
44.1400 609.0000 1.0000
44.1500 657.0000 1.0000
44.1600 615.0000 1.0000
44.1700 590.0000 1.0000
44.1800 601.0000 1.0000
44.1900 628.0000 1.0000
44.2000 583.0000 1.0000
44.2100 620.0000 1.0000
44.2200 577.0000 1.0000
44.2300 651.0000 1.0000
44.2400 599.0000 1.0000
44.2500 613.0000 1.0000
44.2600 623.0000 1.0000
44.2700 608.0000 1.0000
44.2800 634.0000 1.0000
44.2900 658.0000 1.0000
44.3000 651.0000 1.0000
44.3100 624.0000 1.0000
44.3200 603.0000 1.0000
44.3300 616.0000 1.0000
44.3400 631.0000 1.0000
44.3500 596.0000 1.0000
44.3600 608.0000 1.0000
44.3700 602.0000 1.0000
44.3800 621.0000 1.0000
44.3900 601.0000 1.0000
44.4000 623.0000 1.0000
44.4100 601.0000 1.0000
44.4200 610.0000 1.0000
44.4300 603.0000 1.0000
44.4400 625.0000 1.0000
44.4500 583.0000 1.0000
44.4600 581.0000 1.0000
44.4700 596.0000 1.0000
44.4800 615.0000 1.0000
44.4900 633.0000 1.0000
44.5000 608.0000 1.0000
44.5100 599.0000 1.0000
44.5200 597.0000 1.0000
44.5300 557.0000 1.0000
44.5400 599.0000 1.0000
44.5500 624.0000 1.0000
44.5600 610.0000 1.0000
44.5700 603.0000 1.0000
44.5800 597.0000 1.0000
44.5900 624.0000 1.0000
44.6000 611.0000 1.0000
44.6100 640.0000 1.0000
44.6200 644.0000 1.0000
44.6300 645.0000 1.0000
44.6400 626.0000 1.0000
44.6500 583.0000 1.0000
44.6600 640.0000 1.0000
44.6700 574.0000 1.0000
44.6800 640.0000 1.0000
44.6900 609.0000 1.0000
44.7000 616.0000 1.0000
44.7100 607.0000 1.0000
44.7200 616.0000 1.0000
44.7300 635.0000 1.0000
44.7400 626.0000 1.0000
44.7500 587.0000 1.0000
44.7600 598.0000 1.0000
44.7700 599.0000 1.0000
44.7800 583.0000 1.0000
44.7900 577.0000 1.0000
44.8000 597.0000 1.0000
44.8100 577.0000 1.0000
44.8200 589.0000 1.0000
44.8300 585.0000 1.0000
44.8400 574.0000 1.0000
44.8500 585.0000 1.0000
44.8600 604.0000 1.0000
44.8700 625.0000 1.0000
44.8800 599.0000 1.0000
44.8900 602.0000 1.0000
44.9000 624.0000 1.0000
44.9100 561.0000 1.0000
44.9200 594.0000 1.0000
44.9300 630.0000 1.0000
44.9400 589.0000 1.0000
44.9500 611.0000 1.0000
44.9600 587.0000 1.0000
44.9700 609.0000 1.0000
44.9800 604.0000 1.0000
44.9900 598.0000 1.0000
45.0000 616.0000 1.0000
45.0100 572.0000 1.0000
45.0200 615.0000 1.0000
45.0300 601.0000 1.0000
45.0400 633.0000 1.0000
45.0500 568.0000 1.0000
45.0600 598.0000 1.0000
45.0700 620.0000 1.0000
45.0800 607.0000 1.0000
45.0900 573.0000 1.0000
45.1000 599.0000 1.0000
45.1100 596.0000 1.0000
45.1200 622.0000 1.0000
45.1300 609.0000 1.0000
45.1400 600.0000 1.0000
45.1500 573.0000 1.0000
45.1600 576.0000 1.0000
45.1700 613.0000 1.0000
45.1800 578.0000 1.0000
45.1900 590.0000 1.0000
45.2000 591.0000 1.0000
45.2100 624.0000 1.0000
45.2200 618.0000 1.0000
45.2300 573.0000 1.0000
45.2400 610.0000 1.0000
45.2500 567.0000 1.0000
45.2600 589.0000 1.0000
45.2700 609.0000 1.0000
45.2800 632.0000 1.0000
45.2900 595.0000 1.0000
45.3000 613.0000 1.0000
45.3100 606.0000 1.0000
45.3200 630.0000 1.0000
45.3300 602.0000 1.0000
45.3400 553.0000 1.0000
45.3500 588.0000 1.0000
45.3600 580.0000 1.0000
45.3700 595.0000 1.0000
45.3800 600.0000 1.0000
45.3900 608.0000 1.0000
45.4000 592.0000 1.0000
45.4100 584.0000 1.0000
45.4200 572.0000 1.0000
45.4300 593.0000 1.0000
45.4400 574.0000 1.0000
45.4500 589.0000 1.0000
45.4600 618.0000 1.0000
45.4700 608.0000 1.0000
45.4800 615.0000 1.0000
45.4900 575.0000 1.0000
45.5000 590.0000 1.0000
45.5100 610.0000 1.0000
45.5200 568.0000 1.0000
45.5300 626.0000 1.0000
45.5400 549.0000 1.0000
45.5500 573.0000 1.0000
45.5600 596.0000 1.0000
45.5700 566.0000 1.0000
45.5800 600.0000 1.0000
45.5900 596.0000 1.0000
45.6000 582.0000 1.0000
45.6100 564.0000 1.0000
45.6200 568.0000 1.0000
45.6300 553.0000 1.0000
45.6400 565.0000 1.0000
45.6500 610.0000 1.0000
45.6600 590.0000 1.0000
45.6700 578.0000 1.0000
45.6800 602.0000 1.0000
45.6900 623.0000 1.0000
45.7000 594.0000 1.0000
45.7100 573.0000 1.0000
45.7200 610.0000 1.0000
45.7300 578.0000 1.0000
45.7400 591.0000 1.0000
45.7500 569.0000 1.0000
45.7600 576.0000 1.0000
45.7700 584.0000 1.0000
45.7800 580.0000 1.0000
45.7900 582.0000 1.0000
45.8000 597.0000 1.0000
45.8100 580.0000 1.0000
45.8200 588.0000 1.0000
45.8300 595.0000 1.0000
45.8400 590.0000 1.0000
45.8500 604.0000 1.0000
45.8600 595.0000 1.0000
45.8700 578.0000 1.0000
45.8800 619.0000 1.0000
45.8900 587.0000 1.0000
45.9000 589.0000 1.0000
45.9100 568.0000 1.0000
45.9200 579.0000 1.0000
45.9300 571.0000 1.0000
45.9400 554.0000 1.0000
45.9500 567.0000 1.0000
45.9600 577.0000 1.0000
45.9700 554.0000 1.0000
45.9800 619.0000 1.0000
45.9900 604.0000 1.0000
46.0000 553.0000 1.0000
46.0100 560.0000 1.0000
46.0200 575.0000 1.0000
46.0300 610.0000 1.0000
46.0400 612.0000 1.0000
46.0500 591.0000 1.0000
46.0600 586.0000 1.0000
46.0700 583.0000 1.0000
46.0800 565.0000 1.0000
46.0900 571.0000 1.0000
46.1000 573.0000 1.0000
46.1100 583.0000 1.0000
46.1200 605.0000 1.0000
46.1300 600.0000 1.0000
46.1400 579.0000 1.0000
46.1500 586.0000 1.0000
46.1600 587.0000 1.0000
46.1700 592.0000 1.0000
46.1800 578.0000 1.0000
46.1900 576.0000 1.0000
46.2000 589.0000 1.0000
46.2100 545.0000 1.0000
46.2200 579.0000 1.0000
46.2300 622.0000 1.0000
46.2400 624.0000 1.0000
46.2500 593.0000 1.0000
46.2600 596.0000 1.0000
46.2700 581.0000 1.0000
46.2800 587.0000 1.0000
46.2900 574.0000 1.0000
46.3000 519.0000 1.0000
46.3100 554.0000 1.0000
46.3200 615.0000 1.0000
46.3300 602.0000 1.0000
46.3400 597.0000 1.0000
46.3500 609.0000 1.0000
46.3600 585.0000 1.0000
46.3700 596.0000 1.0000
46.3800 586.0000 1.0000
46.3900 597.0000 1.0000
46.4000 590.0000 1.0000
46.4100 533.0000 1.0000
46.4200 594.0000 1.0000
46.4300 590.0000 1.0000
46.4400 596.0000 1.0000
46.4500 578.0000 1.0000
46.4600 594.0000 1.0000
46.4700 588.0000 1.0000
46.4800 596.0000 1.0000
46.4900 563.0000 1.0000
46.5000 567.0000 1.0000
46.5100 550.0000 1.0000
46.5200 580.0000 1.0000
46.5300 575.0000 1.0000
46.5400 565.0000 1.0000
46.5500 585.0000 1.0000
46.5600 563.0000 1.0000
46.5700 587.0000 1.0000
46.5800 569.0000 1.0000
46.5900 573.0000 1.0000
46.6000 564.0000 1.0000
46.6100 556.0000 1.0000
46.6200 597.0000 1.0000
46.6300 577.0000 1.0000
46.6400 582.0000 1.0000
46.6500 616.0000 1.0000
46.6600 595.0000 1.0000
46.6700 548.0000 1.0000
46.6800 592.0000 1.0000
46.6900 554.0000 1.0000
46.7000 588.0000 1.0000
46.7100 590.0000 1.0000
46.7200 575.0000 1.0000
46.7300 552.0000 1.0000
46.7400 578.0000 1.0000
46.7500 599.0000 1.0000
46.7600 558.0000 1.0000
46.7700 606.0000 1.0000
46.7800 609.0000 1.0000
46.7900 542.0000 1.0000
46.8000 569.0000 1.0000
46.8100 584.0000 1.0000
46.8200 583.0000 1.0000
46.8300 572.0000 1.0000
46.8400 545.0000 1.0000
46.8500 589.0000 1.0000
46.8600 601.0000 1.0000
46.8700 575.0000 1.0000
46.8800 638.0000 1.0000
46.8900 596.0000 1.0000
46.9000 561.0000 1.0000
46.9100 582.0000 1.0000
46.9200 578.0000 1.0000
46.9300 604.0000 1.0000
46.9400 587.0000 1.0000
46.9500 579.0000 1.0000
46.9600 569.0000 1.0000
46.9700 558.0000 1.0000
46.9800 619.0000 1.0000
46.9900 582.0000 1.0000
47.0000 590.0000 1.0000
47.0100 616.0000 1.0000
47.0200 603.0000 1.0000
47.0300 597.0000 1.0000
47.0400 622.0000 1.0000
47.0500 605.0000 1.0000
47.0600 575.0000 1.0000
47.0700 582.0000 1.0000
47.0800 591.0000 1.0000
47.0900 593.0000 1.0000
47.1000 543.0000 1.0000
47.1100 559.0000 1.0000
47.1200 566.0000 1.0000
47.1300 572.0000 1.0000
47.1400 546.0000 1.0000
47.1500 604.0000 1.0000
47.1600 568.0000 1.0000
47.1700 551.0000 1.0000
47.1800 557.0000 1.0000
47.1900 558.0000 1.0000
47.2000 613.0000 1.0000
47.2100 559.0000 1.0000
47.2200 545.0000 1.0000
47.2300 548.0000 1.0000
47.2400 579.0000 1.0000
47.2500 609.0000 1.0000
47.2600 588.0000 1.0000
47.2700 549.0000 1.0000
47.2800 533.0000 1.0000
47.2900 542.0000 1.0000
47.3000 516.0000 1.0000
47.3100 568.0000 1.0000
47.3200 573.0000 1.0000
47.3300 536.0000 1.0000
47.3400 536.0000 1.0000
47.3500 542.0000 1.0000
47.3600 543.0000 1.0000
47.3700 557.0000 1.0000
47.3800 539.0000 1.0000
47.3900 563.0000 1.0000
47.4000 546.0000 1.0000
47.4100 581.0000 1.0000
47.4200 555.0000 1.0000
47.4300 554.0000 1.0000
47.4400 560.0000 1.0000
47.4500 591.0000 1.0000
47.4600 532.0000 1.0000
47.4700 536.0000 1.0000
47.4800 616.0000 1.0000
47.4900 542.0000 1.0000
47.5000 561.0000 1.0000
47.5100 545.0000 1.0000
47.5200 597.0000 1.0000
47.5300 592.0000 1.0000
47.5400 571.0000 1.0000
47.5500 552.0000 1.0000
47.5600 575.0000 1.0000
47.5700 565.0000 1.0000
47.5800 565.0000 1.0000
47.5900 539.0000 1.0000
47.6000 545.0000 1.0000
47.6100 525.0000 1.0000
47.6200 541.0000 1.0000
47.6300 568.0000 1.0000
47.6400 600.0000 1.0000
47.6500 534.0000 1.0000
47.6600 579.0000 1.0000
47.6700 573.0000 1.0000
47.6800 547.0000 1.0000
47.6900 551.0000 1.0000
47.7000 532.0000 1.0000
47.7100 549.0000 1.0000
47.7200 518.0000 1.0000
47.7300 579.0000 1.0000
47.7400 588.0000 1.0000
47.7500 526.0000 1.0000
47.7600 556.0000 1.0000
47.7700 546.0000 1.0000
47.7800 571.0000 1.0000
47.7900 570.0000 1.0000
47.8000 554.0000 1.0000
47.8100 520.0000 1.0000
47.8200 536.0000 1.0000
47.8300 565.0000 1.0000
47.8400 570.0000 1.0000
47.8500 560.0000 1.0000
47.8600 586.0000 1.0000
47.8700 581.0000 1.0000
47.8800 572.0000 1.0000
47.8900 533.0000 1.0000
47.9000 528.0000 1.0000
47.9100 545.0000 1.0000
47.9200 549.0000 1.0000
47.9300 547.0000 1.0000
47.9400 563.0000 1.0000
47.9500 568.0000 1.0000
47.9600 567.0000 1.0000
47.9700 537.0000 1.0000
47.9800 562.0000 1.0000
47.9900 574.0000 1.0000
48.0000 557.0000 1.0000
48.0100 542.0000 1.0000
48.0200 537.0000 1.0000
48.0300 572.0000 1.0000
48.0400 531.0000 1.0000
48.0500 567.0000 1.0000
48.0600 545.0000 1.0000
48.0700 526.0000 1.0000
48.0800 534.0000 1.0000
48.0900 527.0000 1.0000
48.1000 536.0000 1.0000
48.1100 555.0000 1.0000
48.1200 533.0000 1.0000
48.1300 564.0000 1.0000
48.1400 526.0000 1.0000
48.1500 575.0000 1.0000
48.1600 562.0000 1.0000
48.1700 498.0000 1.0000
48.1800 552.0000 1.0000
48.1900 578.0000 1.0000
48.2000 585.0000 1.0000
48.2100 537.0000 1.0000
48.2200 527.0000 1.0000
48.2300 547.0000 1.0000
48.2400 562.0000 1.0000
48.2500 573.0000 1.0000
48.2600 541.0000 1.0000
48.2700 544.0000 1.0000
48.2800 521.0000 1.0000
48.2900 548.0000 1.0000
48.3000 551.0000 1.0000
48.3100 574.0000 1.0000
48.3200 570.0000 1.0000
48.3300 524.0000 1.0000
48.3400 558.0000 1.0000
48.3500 545.0000 1.0000
48.3600 550.0000 1.0000
48.3700 570.0000 1.0000
48.3800 552.0000 1.0000
48.3900 528.0000 1.0000
48.4000 537.0000 1.0000
48.4100 515.0000 1.0000
48.4200 557.0000 1.0000
48.4300 531.0000 1.0000
48.4400 562.0000 1.0000
48.4500 569.0000 1.0000
48.4600 529.0000 1.0000
48.4700 536.0000 1.0000
48.4800 565.0000 1.0000
48.4900 551.0000 1.0000
48.5000 522.0000 1.0000
48.5100 558.0000 1.0000
48.5200 540.0000 1.0000
48.5300 504.0000 1.0000
48.5400 561.0000 1.0000
48.5500 555.0000 1.0000
48.5600 562.0000 1.0000
48.5700 562.0000 1.0000
48.5800 541.0000 1.0000
48.5900 515.0000 1.0000
48.6000 535.0000 1.0000
48.6100 505.0000 1.0000
48.6200 514.0000 1.0000
48.6300 551.0000 1.0000
48.6400 539.0000 1.0000
48.6500 544.0000 1.0000
48.6600 535.0000 1.0000
48.6700 528.0000 1.0000
48.6800 524.0000 1.0000
48.6900 528.0000 1.0000
48.7000 539.0000 1.0000
48.7100 552.0000 1.0000
48.7200 524.0000 1.0000
48.7300 530.0000 1.0000
48.7400 566.0000 1.0000
48.7500 539.0000 1.0000
48.7600 525.0000 1.0000
48.7700 509.0000 1.0000
48.7800 535.0000 1.0000
48.7900 527.0000 1.0000
48.8000 520.0000 1.0000
48.8100 548.0000 1.0000
48.8200 556.0000 1.0000
48.8300 539.0000 1.0000
48.8400 552.0000 1.0000
48.8500 529.0000 1.0000
48.8600 524.0000 1.0000
48.8700 515.0000 1.0000
48.8800 548.0000 1.0000
48.8900 551.0000 1.0000
48.9000 530.0000 1.0000
48.9100 522.0000 1.0000
48.9200 506.0000 1.0000
48.9300 529.0000 1.0000
48.9400 549.0000 1.0000
48.9500 551.0000 1.0000
48.9600 549.0000 1.0000
48.9700 548.0000 1.0000
48.9800 547.0000 1.0000
48.9900 505.0000 1.0000
49.0000 543.0000 1.0000
49.0100 568.0000 1.0000
49.0200 552.0000 1.0000
49.0300 542.0000 1.0000
49.0400 544.0000 1.0000
49.0500 550.0000 1.0000
49.0600 536.0000 1.0000
49.0700 471.0000 1.0000
49.0800 505.0000 1.0000
49.0900 529.0000 1.0000
49.1000 525.0000 1.0000
49.1100 526.0000 1.0000
49.1200 525.0000 1.0000
49.1300 505.0000 1.0000
49.1400 523.0000 1.0000
49.1500 533.0000 1.0000
49.1600 523.0000 1.0000
49.1700 540.0000 1.0000
49.1800 542.0000 1.0000
49.1900 535.0000 1.0000
49.2000 540.0000 1.0000
49.2100 585.0000 1.0000
49.2200 526.0000 1.0000
49.2300 541.0000 1.0000
49.2400 553.0000 1.0000
49.2500 533.0000 1.0000
49.2600 533.0000 1.0000
49.2700 542.0000 1.0000
49.2800 527.0000 1.0000
49.2900 531.0000 1.0000
49.3000 550.0000 1.0000
49.3100 500.0000 1.0000
49.3200 477.0000 1.0000
49.3300 498.0000 1.0000
49.3400 528.0000 1.0000
49.3500 563.0000 1.0000
49.3600 568.0000 1.0000
49.3700 508.0000 1.0000
49.3800 518.0000 1.0000
49.3900 535.0000 1.0000
49.4000 559.0000 1.0000
49.4100 572.0000 1.0000
49.4200 509.0000 1.0000
49.4300 481.0000 1.0000
49.4400 506.0000 1.0000
49.4500 575.0000 1.0000
49.4600 549.0000 1.0000
49.4700 530.0000 1.0000
49.4800 533.0000 1.0000
49.4900 510.0000 1.0000
49.5000 518.0000 1.0000
49.5100 518.0000 1.0000
49.5200 535.0000 1.0000
49.5300 529.0000 1.0000
49.5400 539.0000 1.0000
49.5500 547.0000 1.0000
49.5600 519.0000 1.0000
49.5700 519.0000 1.0000
49.5800 544.0000 1.0000
49.5900 520.0000 1.0000
49.6000 563.0000 1.0000
49.6100 532.0000 1.0000
49.6200 537.0000 1.0000
49.6300 519.0000 1.0000
49.6400 559.0000 1.0000
49.6500 555.0000 1.0000
49.6600 524.0000 1.0000
49.6700 562.0000 1.0000
49.6800 572.0000 1.0000
49.6900 537.0000 1.0000
49.7000 542.0000 1.0000
49.7100 518.0000 1.0000
49.7200 532.0000 1.0000
49.7300 542.0000 1.0000
49.7400 517.0000 1.0000
49.7500 547.0000 1.0000
49.7600 509.0000 1.0000
49.7700 529.0000 1.0000
49.7800 511.0000 1.0000
49.7900 515.0000 1.0000
49.8000 519.0000 1.0000
49.8100 517.0000 1.0000
49.8200 528.0000 1.0000
49.8300 544.0000 1.0000
49.8400 547.0000 1.0000
49.8500 542.0000 1.0000
49.8600 559.0000 1.0000
49.8700 498.0000 1.0000
49.8800 537.0000 1.0000
49.8900 507.0000 1.0000
49.9000 553.0000 1.0000
49.9100 531.0000 1.0000
49.9200 523.0000 1.0000
49.9300 530.0000 1.0000
49.9400 550.0000 1.0000
49.9500 500.0000 1.0000
49.9600 567.0000 1.0000
49.9700 509.0000 1.0000
49.9800 522.0000 1.0000
49.9900 498.0000 1.0000
50.0000 528.0000 1.0000
50.0100 503.0000 1.0000
50.0200 510.0000 1.0000
50.0300 558.0000 1.0000
50.0400 534.0000 1.0000
50.0500 535.0000 1.0000
50.0600 507.0000 1.0000
50.0700 514.0000 1.0000
50.0800 491.0000 1.0000
50.0900 531.0000 1.0000
50.1000 540.0000 1.0000
50.1100 524.0000 1.0000
50.1200 473.0000 1.0000
50.1300 545.0000 1.0000
50.1400 546.0000 1.0000
50.1500 505.0000 1.0000
50.1600 521.0000 1.0000
50.1700 540.0000 1.0000
50.1800 508.0000 1.0000
50.1900 523.0000 1.0000
50.2000 516.0000 1.0000
50.2100 527.0000 1.0000
50.2200 527.0000 1.0000
50.2300 530.0000 1.0000
50.2400 525.0000 1.0000
50.2500 524.0000 1.0000
50.2600 518.0000 1.0000
50.2700 500.0000 1.0000
50.2800 529.0000 1.0000
50.2900 527.0000 1.0000
50.3000 553.0000 1.0000
50.3100 524.0000 1.0000
50.3200 546.0000 1.0000
50.3300 546.0000 1.0000
50.3400 542.0000 1.0000
50.3500 547.0000 1.0000
50.3600 520.0000 1.0000
50.3700 533.0000 1.0000
50.3800 513.0000 1.0000
50.3900 521.0000 1.0000
50.4000 542.0000 1.0000
50.4100 565.0000 1.0000
50.4200 503.0000 1.0000
50.4300 549.0000 1.0000
50.4400 555.0000 1.0000
50.4500 545.0000 1.0000
50.4600 567.0000 1.0000
50.4700 550.0000 1.0000
50.4800 522.0000 1.0000
50.4900 568.0000 1.0000
50.5000 551.0000 1.0000
50.5100 530.0000 1.0000
50.5200 567.0000 1.0000
50.5300 563.0000 1.0000
50.5400 534.0000 1.0000
50.5500 543.0000 1.0000
50.5600 535.0000 1.0000
50.5700 539.0000 1.0000
50.5800 541.0000 1.0000
50.5900 541.0000 1.0000
50.6000 537.0000 1.0000
50.6100 540.0000 1.0000
50.6200 533.0000 1.0000
50.6300 522.0000 1.0000
50.6400 544.0000 1.0000
50.6500 531.0000 1.0000
50.6600 514.0000 1.0000
50.6700 553.0000 1.0000
50.6800 537.0000 1.0000
50.6900 517.0000 1.0000
50.7000 575.0000 1.0000
50.7100 583.0000 1.0000
50.7200 539.0000 1.0000
50.7300 500.0000 1.0000
50.7400 536.0000 1.0000
50.7500 555.0000 1.0000
50.7600 555.0000 1.0000
50.7700 516.0000 1.0000
50.7800 557.0000 1.0000
50.7900 509.0000 1.0000
50.8000 530.0000 1.0000
50.8100 534.0000 1.0000
50.8200 537.0000 1.0000
50.8300 480.0000 1.0000
50.8400 502.0000 1.0000
50.8500 552.0000 1.0000
50.8600 563.0000 1.0000
50.8700 554.0000 1.0000
50.8800 549.0000 1.0000
50.8900 560.0000 1.0000
50.9000 497.0000 1.0000
50.9100 511.0000 1.0000
50.9200 551.0000 1.0000
50.9300 508.0000 1.0000
50.9400 522.0000 1.0000
50.9500 501.0000 1.0000
50.9600 524.0000 1.0000
50.9700 490.0000 1.0000
50.9800 557.0000 1.0000
50.9900 534.0000 1.0000
51.0000 559.0000 1.0000
51.0100 538.0000 1.0000
51.0200 530.0000 1.0000
51.0300 535.0000 1.0000
51.0400 566.0000 1.0000
51.0500 545.0000 1.0000
51.0600 536.0000 1.0000
51.0700 557.0000 1.0000
51.0800 524.0000 1.0000
51.0900 513.0000 1.0000
51.1000 558.0000 1.0000
51.1100 535.0000 1.0000
51.1200 548.0000 1.0000
51.1300 539.0000 1.0000
51.1400 568.0000 1.0000
51.1500 517.0000 1.0000
51.1600 535.0000 1.0000
51.1700 549.0000 1.0000
51.1800 530.0000 1.0000
51.1900 551.0000 1.0000
51.2000 556.0000 1.0000
51.2100 554.0000 1.0000
51.2200 535.0000 1.0000
51.2300 543.0000 1.0000
51.2400 552.0000 1.0000
51.2500 532.0000 1.0000
51.2600 557.0000 1.0000
51.2700 561.0000 1.0000
51.2800 533.0000 1.0000
51.2900 552.0000 1.0000
51.3000 546.0000 1.0000
51.3100 525.0000 1.0000
51.3200 538.0000 1.0000
51.3300 553.0000 1.0000
51.3400 549.0000 1.0000
51.3500 568.0000 1.0000
51.3600 505.0000 1.0000
51.3700 527.0000 1.0000
51.3800 522.0000 1.0000
51.3900 530.0000 1.0000
51.4000 563.0000 1.0000
51.4100 554.0000 1.0000
51.4200 573.0000 1.0000
51.4300 550.0000 1.0000
51.4400 557.0000 1.0000
51.4500 525.0000 1.0000
51.4600 542.0000 1.0000
51.4700 547.0000 1.0000
51.4800 553.0000 1.0000
51.4900 532.0000 1.0000
51.5000 511.0000 1.0000
51.5100 534.0000 1.0000
51.5200 573.0000 1.0000
51.5300 555.0000 1.0000
51.5400 578.0000 1.0000
51.5500 565.0000 1.0000
51.5600 536.0000 1.0000
51.5700 528.0000 1.0000
51.5800 542.0000 1.0000
51.5900 577.0000 1.0000
51.6000 520.0000 1.0000
51.6100 559.0000 1.0000
51.6200 614.0000 1.0000
51.6300 611.0000 1.0000
51.6400 556.0000 1.0000
51.6500 569.0000 1.0000
51.6600 542.0000 1.0000
51.6700 599.0000 1.0000
51.6800 569.0000 1.0000
51.6900 562.0000 1.0000
51.7000 600.0000 1.0000
51.7100 553.0000 1.0000
51.7200 592.0000 1.0000
51.7300 629.0000 1.0000
51.7400 583.0000 1.0000
51.7500 600.0000 1.0000
51.7600 595.0000 1.0000
51.7700 621.0000 1.0000
51.7800 622.0000 1.0000
51.7900 619.0000 1.0000
51.8000 606.0000 1.0000
51.8100 651.0000 1.0000
51.8200 621.0000 1.0000
51.8300 653.0000 1.0000
51.8400 638.0000 1.0000
51.8500 621.0000 1.0000
51.8600 678.0000 1.0000
51.8700 690.0000 1.0000
51.8800 692.0000 1.0000
51.8900 709.0000 1.0000
51.9000 737.0000 1.0000
51.9100 722.0000 1.0000
51.9200 752.0000 1.0000
51.9300 784.0000 1.0000
51.9400 779.0000 1.0000
51.9500 820.0000 1.0000
51.9600 867.0000 1.0000
51.9700 867.0000 1.0000
51.9800 891.0000 1.0000
51.9900 922.0000 1.0000
52.0000 948.0000 1.0000
52.0100 1043.0000 1.0000
52.0200 1040.0000 1.0000
52.0300 1032.0000 1.0000
52.0400 1124.0000 1.0000
52.0500 1177.0000 1.0000
52.0600 1271.0000 1.0000
52.0700 1361.0000 1.0000
52.0800 1366.0000 1.0000
52.0900 1433.0000 1.0000
52.1000 1654.0000 1.0000
52.1100 1698.0000 1.0000
52.1200 1859.0000 1.0000
52.1300 1983.0000 1.0000
52.1400 2178.0000 1.0000
52.1500 2357.0000 1.0000
52.1600 2603.0000 1.0000
52.1700 2762.0000 1.0000
52.1800 3063.0000 1.0000
52.1900 3282.0000 1.0000
52.2000 3591.0000 1.0000
52.2100 3848.0000 1.0000
52.2200 3992.0000 1.0000
52.2300 4100.0000 1.0000
52.2400 4235.0000 1.0000
52.2500 4250.0000 1.0000
52.2600 4313.0000 1.0000
52.2700 4324.0000 1.0000
52.2800 4125.0000 1.0000
52.2900 3874.0000 1.0000
52.3000 3804.0000 1.0000
52.3100 3787.0000 1.0000
52.3200 3687.0000 1.0000
52.3300 3579.0000 1.0000
52.3400 3421.0000 1.0000
52.3500 3393.0000 1.0000
52.3600 3329.0000 1.0000
52.3700 3258.0000 1.0000
52.3800 3080.0000 1.0000
52.3900 3003.0000 1.0000
52.4000 2940.0000 1.0000
52.4100 2661.0000 1.0000
52.4200 2580.0000 1.0000
52.4300 2477.0000 1.0000
52.4400 2275.0000 1.0000
52.4500 2097.0000 1.0000
52.4600 1948.0000 1.0000
52.4700 1798.0000 1.0000
52.4800 1641.0000 1.0000
52.4900 1460.0000 1.0000
52.5000 1445.0000 1.0000
52.5100 1305.0000 1.0000
52.5200 1259.0000 1.0000
52.5300 1235.0000 1.0000
52.5400 1131.0000 1.0000
52.5500 1052.0000 1.0000
52.5600 995.0000 1.0000
52.5700 1011.0000 1.0000
52.5800 972.0000 1.0000
52.5900 931.0000 1.0000
52.6000 904.0000 1.0000
52.6100 876.0000 1.0000
52.6200 872.0000 1.0000
52.6300 772.0000 1.0000
52.6400 772.0000 1.0000
52.6500 762.0000 1.0000
52.6600 773.0000 1.0000
52.6700 783.0000 1.0000
52.6800 755.0000 1.0000
52.6900 698.0000 1.0000
52.7000 707.0000 1.0000
52.7100 703.0000 1.0000
52.7200 676.0000 1.0000
52.7300 664.0000 1.0000
52.7400 699.0000 1.0000
52.7500 690.0000 1.0000
52.7600 652.0000 1.0000
52.7700 686.0000 1.0000
52.7800 656.0000 1.0000
52.7900 643.0000 1.0000
52.8000 628.0000 1.0000
52.8100 616.0000 1.0000
52.8200 618.0000 1.0000
52.8300 581.0000 1.0000
52.8400 586.0000 1.0000
52.8500 582.0000 1.0000
52.8600 611.0000 1.0000
52.8700 588.0000 1.0000
52.8800 610.0000 1.0000
52.8900 604.0000 1.0000
52.9000 543.0000 1.0000
52.9100 576.0000 1.0000
52.9200 587.0000 1.0000
52.9300 567.0000 1.0000
52.9400 585.0000 1.0000
52.9500 561.0000 1.0000
52.9600 544.0000 1.0000
52.9700 554.0000 1.0000
52.9800 538.0000 1.0000
52.9900 539.0000 1.0000
53.0000 541.0000 1.0000
53.0100 543.0000 1.0000
53.0200 563.0000 1.0000
53.0300 561.0000 1.0000
53.0400 581.0000 1.0000
53.0500 559.0000 1.0000
53.0600 563.0000 1.0000
53.0700 590.0000 1.0000
53.0800 557.0000 1.0000
53.0900 526.0000 1.0000
53.1000 535.0000 1.0000
53.1100 590.0000 1.0000
53.1200 568.0000 1.0000
53.1300 553.0000 1.0000
53.1400 539.0000 1.0000
53.1500 505.0000 1.0000
53.1600 546.0000 1.0000
53.1700 543.0000 1.0000
53.1800 547.0000 1.0000
53.1900 537.0000 1.0000
53.2000 513.0000 1.0000
53.2100 569.0000 1.0000
53.2200 547.0000 1.0000
53.2300 553.0000 1.0000
53.2400 546.0000 1.0000
53.2500 531.0000 1.0000
53.2600 548.0000 1.0000
53.2700 535.0000 1.0000
53.2800 561.0000 1.0000
53.2900 545.0000 1.0000
53.3000 537.0000 1.0000
53.3100 545.0000 1.0000
53.3200 556.0000 1.0000
53.3300 525.0000 1.0000
53.3400 570.0000 1.0000
53.3500 546.0000 1.0000
53.3600 542.0000 1.0000
53.3700 509.0000 1.0000
53.3800 505.0000 1.0000
53.3900 515.0000 1.0000
53.4000 557.0000 1.0000
53.4100 533.0000 1.0000
53.4200 577.0000 1.0000
53.4300 530.0000 1.0000
53.4400 542.0000 1.0000
53.4500 544.0000 1.0000
53.4600 509.0000 1.0000
53.4700 521.0000 1.0000
53.4800 547.0000 1.0000
53.4900 526.0000 1.0000
53.5000 476.0000 1.0000
53.5100 519.0000 1.0000
53.5200 501.0000 1.0000
53.5300 541.0000 1.0000
53.5400 545.0000 1.0000
53.5500 516.0000 1.0000
53.5600 510.0000 1.0000
53.5700 521.0000 1.0000
53.5800 527.0000 1.0000
53.5900 539.0000 1.0000
53.6000 514.0000 1.0000
53.6100 513.0000 1.0000
53.6200 504.0000 1.0000
53.6300 502.0000 1.0000
53.6400 521.0000 1.0000
53.6500 524.0000 1.0000
53.6600 501.0000 1.0000
53.6700 533.0000 1.0000
53.6800 517.0000 1.0000
53.6900 534.0000 1.0000
53.7000 527.0000 1.0000
53.7100 478.0000 1.0000
53.7200 506.0000 1.0000
53.7300 500.0000 1.0000
53.7400 505.0000 1.0000
53.7500 497.0000 1.0000
53.7600 463.0000 1.0000
53.7700 485.0000 1.0000
53.7800 501.0000 1.0000
53.7900 521.0000 1.0000
53.8000 480.0000 1.0000
53.8100 452.0000 1.0000
53.8200 539.0000 1.0000
53.8300 539.0000 1.0000
53.8400 500.0000 1.0000
53.8500 529.0000 1.0000
53.8600 493.0000 1.0000
53.8700 497.0000 1.0000
53.8800 477.0000 1.0000
53.8900 532.0000 1.0000
53.9000 518.0000 1.0000
53.9100 516.0000 1.0000
53.9200 482.0000 1.0000
53.9300 481.0000 1.0000
53.9400 478.0000 1.0000
53.9500 528.0000 1.0000
53.9600 504.0000 1.0000
53.9700 480.0000 1.0000
53.9800 528.0000 1.0000
53.9900 525.0000 1.0000
54.0000 507.0000 1.0000
54.0100 516.0000 1.0000
54.0200 505.0000 1.0000
54.0300 529.0000 1.0000
54.0400 557.0000 1.0000
54.0500 542.0000 1.0000
54.0600 542.0000 1.0000
54.0700 516.0000 1.0000
54.0800 498.0000 1.0000
54.0900 502.0000 1.0000
54.1000 479.0000 1.0000
54.1100 475.0000 1.0000
54.1200 526.0000 1.0000
54.1300 489.0000 1.0000
54.1400 514.0000 1.0000
54.1500 515.0000 1.0000
54.1600 500.0000 1.0000
54.1700 495.0000 1.0000
54.1800 512.0000 1.0000
54.1900 532.0000 1.0000
54.2000 487.0000 1.0000
54.2100 497.0000 1.0000
54.2200 518.0000 1.0000
54.2300 486.0000 1.0000
54.2400 525.0000 1.0000
54.2500 480.0000 1.0000
54.2600 489.0000 1.0000
54.2700 508.0000 1.0000
54.2800 538.0000 1.0000
54.2900 526.0000 1.0000
54.3000 497.0000 1.0000
54.3100 493.0000 1.0000
54.3200 536.0000 1.0000
54.3300 537.0000 1.0000
54.3400 499.0000 1.0000
54.3500 516.0000 1.0000
54.3600 538.0000 1.0000
54.3700 497.0000 1.0000
54.3800 526.0000 1.0000
54.3900 521.0000 1.0000
54.4000 518.0000 1.0000
54.4100 519.0000 1.0000
54.4200 476.0000 1.0000
54.4300 510.0000 1.0000
54.4400 527.0000 1.0000
54.4500 494.0000 1.0000
54.4600 507.0000 1.0000
54.4700 521.0000 1.0000
54.4800 505.0000 1.0000
54.4900 507.0000 1.0000
54.5000 545.0000 1.0000
54.5100 523.0000 1.0000
54.5200 534.0000 1.0000
54.5300 512.0000 1.0000
54.5400 520.0000 1.0000
54.5500 524.0000 1.0000
54.5600 520.0000 1.0000
54.5700 502.0000 1.0000
54.5800 525.0000 1.0000
54.5900 544.0000 1.0000
54.6000 510.0000 1.0000
54.6100 528.0000 1.0000
54.6200 519.0000 1.0000
54.6300 511.0000 1.0000
54.6400 509.0000 1.0000
54.6500 525.0000 1.0000
54.6600 513.0000 1.0000
54.6700 504.0000 1.0000
54.6800 526.0000 1.0000
54.6900 530.0000 1.0000
54.7000 548.0000 1.0000
54.7100 555.0000 1.0000
54.7200 526.0000 1.0000
54.7300 555.0000 1.0000
54.7400 501.0000 1.0000
54.7500 495.0000 1.0000
54.7600 521.0000 1.0000
54.7700 487.0000 1.0000
54.7800 538.0000 1.0000
54.7900 543.0000 1.0000
54.8000 505.0000 1.0000
54.8100 496.0000 1.0000
54.8200 535.0000 1.0000
54.8300 572.0000 1.0000
54.8400 529.0000 1.0000
54.8500 575.0000 1.0000
54.8600 522.0000 1.0000
54.8700 530.0000 1.0000
54.8800 506.0000 1.0000
54.8900 535.0000 1.0000
54.9000 558.0000 1.0000
54.9100 556.0000 1.0000
54.9200 531.0000 1.0000
54.9300 519.0000 1.0000
54.9400 545.0000 1.0000
54.9500 541.0000 1.0000
54.9600 531.0000 1.0000
54.9700 551.0000 1.0000
54.9800 536.0000 1.0000
54.9900 603.0000 1.0000
55.0000 573.0000 1.0000
55.0100 594.0000 1.0000
55.0200 580.0000 1.0000
55.0300 573.0000 1.0000
55.0400 592.0000 1.0000
55.0500 606.0000 1.0000
55.0600 607.0000 1.0000
55.0700 619.0000 1.0000
55.0800 659.0000 1.0000
55.0900 577.0000 1.0000
55.1000 592.0000 1.0000
55.1100 611.0000 1.0000
55.1200 618.0000 1.0000
55.1300 644.0000 1.0000
55.1400 672.0000 1.0000
55.1500 673.0000 1.0000
55.1600 672.0000 1.0000
55.1700 698.0000 1.0000
55.1800 707.0000 1.0000
55.1900 732.0000 1.0000
55.2000 775.0000 1.0000
55.2100 760.0000 1.0000
55.2200 791.0000 1.0000
55.2300 837.0000 1.0000
55.2400 801.0000 1.0000
55.2500 824.0000 1.0000
55.2600 857.0000 1.0000
55.2700 840.0000 1.0000
55.2800 808.0000 1.0000
55.2900 814.0000 1.0000
55.3000 781.0000 1.0000
55.3100 781.0000 1.0000
55.3200 760.0000 1.0000
55.3300 803.0000 1.0000
55.3400 755.0000 1.0000
55.3500 763.0000 1.0000
55.3600 741.0000 1.0000
55.3700 757.0000 1.0000
55.3800 773.0000 1.0000
55.3900 762.0000 1.0000
55.4000 724.0000 1.0000
55.4100 715.0000 1.0000
55.4200 703.0000 1.0000
55.4300 734.0000 1.0000
55.4400 699.0000 1.0000
55.4500 679.0000 1.0000
55.4600 696.0000 1.0000
55.4700 699.0000 1.0000
55.4800 646.0000 1.0000
55.4900 632.0000 1.0000
55.5000 652.0000 1.0000
55.5100 618.0000 1.0000
55.5200 617.0000 1.0000
55.5300 641.0000 1.0000
55.5400 615.0000 1.0000
55.5500 551.0000 1.0000
55.5600 630.0000 1.0000
55.5700 552.0000 1.0000
55.5800 595.0000 1.0000
55.5900 579.0000 1.0000
55.6000 619.0000 1.0000
55.6100 553.0000 1.0000
55.6200 554.0000 1.0000
55.6300 542.0000 1.0000
55.6400 557.0000 1.0000
55.6500 530.0000 1.0000
55.6600 542.0000 1.0000
55.6700 592.0000 1.0000
55.6800 560.0000 1.0000
55.6900 528.0000 1.0000
55.7000 513.0000 1.0000
55.7100 518.0000 1.0000
55.7200 511.0000 1.0000
55.7300 524.0000 1.0000
55.7400 524.0000 1.0000
55.7500 524.0000 1.0000
55.7600 535.0000 1.0000
55.7700 499.0000 1.0000
55.7800 587.0000 1.0000
55.7900 524.0000 1.0000
55.8000 525.0000 1.0000
55.8100 524.0000 1.0000
55.8200 516.0000 1.0000
55.8300 512.0000 1.0000
55.8400 516.0000 1.0000
55.8500 531.0000 1.0000
55.8600 508.0000 1.0000
55.8700 533.0000 1.0000
55.8800 532.0000 1.0000
55.8900 532.0000 1.0000
55.9000 477.0000 1.0000
55.9100 476.0000 1.0000
55.9200 514.0000 1.0000
55.9300 484.0000 1.0000
55.9400 492.0000 1.0000
55.9500 539.0000 1.0000
55.9600 529.0000 1.0000
55.9700 498.0000 1.0000
55.9800 530.0000 1.0000
55.9900 513.0000 1.0000
56.0000 494.0000 1.0000
56.0100 504.0000 1.0000
56.0200 513.0000 1.0000
56.0300 520.0000 1.0000
56.0400 498.0000 1.0000
56.0500 455.0000 1.0000
56.0600 498.0000 1.0000
56.0700 514.0000 1.0000
56.0800 532.0000 1.0000
56.0900 512.0000 1.0000
56.1000 496.0000 1.0000
56.1100 503.0000 1.0000
56.1200 460.0000 1.0000
56.1300 481.0000 1.0000
56.1400 498.0000 1.0000
56.1500 484.0000 1.0000
56.1600 497.0000 1.0000
56.1700 502.0000 1.0000
56.1800 490.0000 1.0000
56.1900 494.0000 1.0000
56.2000 475.0000 1.0000
56.2100 444.0000 1.0000
56.2200 474.0000 1.0000
56.2300 474.0000 1.0000
56.2400 524.0000 1.0000
56.2500 488.0000 1.0000
56.2600 512.0000 1.0000
56.2700 462.0000 1.0000
56.2800 475.0000 1.0000
56.2900 499.0000 1.0000
56.3000 541.0000 1.0000
56.3100 509.0000 1.0000
56.3200 482.0000 1.0000
56.3300 479.0000 1.0000
56.3400 502.0000 1.0000
56.3500 482.0000 1.0000
56.3600 467.0000 1.0000
56.3700 483.0000 1.0000
56.3800 494.0000 1.0000
56.3900 471.0000 1.0000
56.4000 477.0000 1.0000
56.4100 497.0000 1.0000
56.4200 499.0000 1.0000
56.4300 495.0000 1.0000
56.4400 491.0000 1.0000
56.4500 487.0000 1.0000
56.4600 491.0000 1.0000
56.4700 502.0000 1.0000
56.4800 448.0000 1.0000
56.4900 514.0000 1.0000
56.5000 481.0000 1.0000
56.5100 444.0000 1.0000
56.5200 529.0000 1.0000
56.5300 480.0000 1.0000
56.5400 470.0000 1.0000
56.5500 493.0000 1.0000
56.5600 493.0000 1.0000
56.5700 502.0000 1.0000
56.5800 502.0000 1.0000
56.5900 489.0000 1.0000
56.6000 449.0000 1.0000
56.6100 484.0000 1.0000
56.6200 468.0000 1.0000
56.6300 503.0000 1.0000
56.6400 489.0000 1.0000
56.6500 471.0000 1.0000
56.6600 512.0000 1.0000
56.6700 462.0000 1.0000
56.6800 460.0000 1.0000
56.6900 458.0000 1.0000
56.7000 491.0000 1.0000
56.7100 494.0000 1.0000
56.7200 468.0000 1.0000
56.7300 479.0000 1.0000
56.7400 466.0000 1.0000
56.7500 485.0000 1.0000
56.7600 482.0000 1.0000
56.7700 491.0000 1.0000
56.7800 473.0000 1.0000
56.7900 513.0000 1.0000
56.8000 468.0000 1.0000
56.8100 498.0000 1.0000
56.8200 458.0000 1.0000
56.8300 483.0000 1.0000
56.8400 493.0000 1.0000
56.8500 499.0000 1.0000
56.8600 516.0000 1.0000
56.8700 452.0000 1.0000
56.8800 477.0000 1.0000
56.8900 526.0000 1.0000
56.9000 482.0000 1.0000
56.9100 494.0000 1.0000
56.9200 481.0000 1.0000
56.9300 494.0000 1.0000
56.9400 466.0000 1.0000
56.9500 477.0000 1.0000
56.9600 528.0000 1.0000
56.9700 500.0000 1.0000
56.9800 508.0000 1.0000
56.9900 481.0000 1.0000
57.0000 464.0000 1.0000
57.0100 494.0000 1.0000
57.0200 478.0000 1.0000
57.0300 502.0000 1.0000
57.0400 489.0000 1.0000
57.0500 482.0000 1.0000
57.0600 480.0000 1.0000
57.0700 486.0000 1.0000
57.0800 477.0000 1.0000
57.0900 510.0000 1.0000
57.1000 484.0000 1.0000
57.1100 491.0000 1.0000
57.1200 516.0000 1.0000
57.1300 550.0000 1.0000
57.1400 491.0000 1.0000
57.1500 490.0000 1.0000
57.1600 515.0000 1.0000
57.1700 500.0000 1.0000
57.1800 494.0000 1.0000
57.1900 471.0000 1.0000
57.2000 452.0000 1.0000
57.2100 463.0000 1.0000
57.2200 489.0000 1.0000
57.2300 502.0000 1.0000
57.2400 491.0000 1.0000
57.2500 475.0000 1.0000
57.2600 498.0000 1.0000
57.2700 494.0000 1.0000
57.2800 486.0000 1.0000
57.2900 434.0000 1.0000
57.3000 464.0000 1.0000
57.3100 496.0000 1.0000
57.3200 452.0000 1.0000
57.3300 520.0000 1.0000
57.3400 493.0000 1.0000
57.3500 465.0000 1.0000
57.3600 442.0000 1.0000
57.3700 456.0000 1.0000
57.3800 461.0000 1.0000
57.3900 461.0000 1.0000
57.4000 468.0000 1.0000
57.4100 485.0000 1.0000
57.4200 489.0000 1.0000
57.4300 473.0000 1.0000
57.4400 491.0000 1.0000
57.4500 460.0000 1.0000
57.4600 470.0000 1.0000
57.4700 484.0000 1.0000
57.4800 460.0000 1.0000
57.4900 482.0000 1.0000
57.5000 460.0000 1.0000
57.5100 449.0000 1.0000
57.5200 467.0000 1.0000
57.5300 475.0000 1.0000
57.5400 475.0000 1.0000
57.5500 462.0000 1.0000
57.5600 489.0000 1.0000
57.5700 477.0000 1.0000
57.5800 427.0000 1.0000
57.5900 488.0000 1.0000
57.6000 470.0000 1.0000
57.6100 462.0000 1.0000
57.6200 499.0000 1.0000
57.6300 503.0000 1.0000
57.6400 473.0000 1.0000
57.6500 501.0000 1.0000
57.6600 478.0000 1.0000
57.6700 476.0000 1.0000
57.6800 477.0000 1.0000
57.6900 477.0000 1.0000
57.7000 445.0000 1.0000
57.7100 486.0000 1.0000
57.7200 481.0000 1.0000
57.7300 456.0000 1.0000
57.7400 475.0000 1.0000
57.7500 506.0000 1.0000
57.7600 479.0000 1.0000
57.7700 501.0000 1.0000
57.7800 486.0000 1.0000
57.7900 483.0000 1.0000
57.8000 499.0000 1.0000
57.8100 472.0000 1.0000
57.8200 508.0000 1.0000
57.8300 497.0000 1.0000
57.8400 480.0000 1.0000
57.8500 498.0000 1.0000
57.8600 482.0000 1.0000
57.8700 497.0000 1.0000
57.8800 506.0000 1.0000
57.8900 488.0000 1.0000
57.9000 459.0000 1.0000
57.9100 495.0000 1.0000
57.9200 509.0000 1.0000
57.9300 471.0000 1.0000
57.9400 483.0000 1.0000
57.9500 447.0000 1.0000
57.9600 485.0000 1.0000
57.9700 492.0000 1.0000
57.9800 513.0000 1.0000
57.9900 495.0000 1.0000
58.0000 451.0000 1.0000
58.0100 469.0000 1.0000
58.0200 466.0000 1.0000
58.0300 470.0000 1.0000
58.0400 511.0000 1.0000
58.0500 530.0000 1.0000
58.0600 517.0000 1.0000
58.0700 493.0000 1.0000
58.0800 459.0000 1.0000
58.0900 490.0000 1.0000
58.1000 490.0000 1.0000
58.1100 456.0000 1.0000
58.1200 500.0000 1.0000
58.1300 490.0000 1.0000
58.1400 508.0000 1.0000
58.1500 499.0000 1.0000
58.1600 474.0000 1.0000
58.1700 478.0000 1.0000
58.1800 486.0000 1.0000
58.1900 483.0000 1.0000
58.2000 455.0000 1.0000
58.2100 460.0000 1.0000
58.2200 495.0000 1.0000
58.2300 486.0000 1.0000
58.2400 489.0000 1.0000
58.2500 494.0000 1.0000
58.2600 507.0000 1.0000
58.2700 506.0000 1.0000
58.2800 501.0000 1.0000
58.2900 477.0000 1.0000
58.3000 467.0000 1.0000
58.3100 470.0000 1.0000
58.3200 460.0000 1.0000
58.3300 502.0000 1.0000
58.3400 502.0000 1.0000
58.3500 450.0000 1.0000
58.3600 460.0000 1.0000
58.3700 477.0000 1.0000
58.3800 476.0000 1.0000
58.3900 499.0000 1.0000
58.4000 511.0000 1.0000
58.4100 488.0000 1.0000
58.4200 494.0000 1.0000
58.4300 455.0000 1.0000
58.4400 493.0000 1.0000
58.4500 473.0000 1.0000
58.4600 480.0000 1.0000
58.4700 502.0000 1.0000
58.4800 509.0000 1.0000
58.4900 454.0000 1.0000
58.5000 482.0000 1.0000
58.5100 465.0000 1.0000
58.5200 459.0000 1.0000
58.5300 447.0000 1.0000
58.5400 482.0000 1.0000
58.5500 463.0000 1.0000
58.5600 488.0000 1.0000
58.5700 481.0000 1.0000
58.5800 491.0000 1.0000
58.5900 489.0000 1.0000
58.6000 453.0000 1.0000
58.6100 472.0000 1.0000
58.6200 453.0000 1.0000
58.6300 460.0000 1.0000
58.6400 469.0000 1.0000
58.6500 457.0000 1.0000
58.6600 442.0000 1.0000
58.6700 472.0000 1.0000
58.6800 502.0000 1.0000
58.6900 475.0000 1.0000
58.7000 449.0000 1.0000
58.7100 460.0000 1.0000
58.7200 469.0000 1.0000
58.7300 512.0000 1.0000
58.7400 450.0000 1.0000
58.7500 469.0000 1.0000
58.7600 490.0000 1.0000
58.7700 493.0000 1.0000
58.7800 474.0000 1.0000
58.7900 459.0000 1.0000
58.8000 464.0000 1.0000
58.8100 496.0000 1.0000
58.8200 481.0000 1.0000
58.8300 480.0000 1.0000
58.8400 525.0000 1.0000
58.8500 459.0000 1.0000
58.8600 504.0000 1.0000
58.8700 471.0000 1.0000
58.8800 472.0000 1.0000
58.8900 479.0000 1.0000
58.9000 485.0000 1.0000
58.9100 458.0000 1.0000
58.9200 460.0000 1.0000
58.9300 464.0000 1.0000
58.9400 463.0000 1.0000
58.9500 444.0000 1.0000
58.9600 465.0000 1.0000
58.9700 437.0000 1.0000
58.9800 453.0000 1.0000
58.9900 458.0000 1.0000
59.0000 447.0000 1.0000
59.0100 447.0000 1.0000
59.0200 458.0000 1.0000
59.0300 488.0000 1.0000
59.0400 472.0000 1.0000
59.0500 468.0000 1.0000
59.0600 465.0000 1.0000
59.0700 498.0000 1.0000
59.0800 455.0000 1.0000
59.0900 509.0000 1.0000
59.1000 492.0000 1.0000
59.1100 457.0000 1.0000
59.1200 462.0000 1.0000
59.1300 494.0000 1.0000
59.1400 497.0000 1.0000
59.1500 454.0000 1.0000
59.1600 434.0000 1.0000
59.1700 462.0000 1.0000
59.1800 465.0000 1.0000
59.1900 482.0000 1.0000
59.2000 471.0000 1.0000
59.2100 492.0000 1.0000
59.2200 503.0000 1.0000
59.2300 456.0000 1.0000
59.2400 476.0000 1.0000
59.2500 482.0000 1.0000
59.2600 499.0000 1.0000
59.2700 527.0000 1.0000
59.2800 520.0000 1.0000
59.2900 486.0000 1.0000
59.3000 466.0000 1.0000
59.3100 456.0000 1.0000
59.3200 492.0000 1.0000
59.3300 453.0000 1.0000
59.3400 468.0000 1.0000
59.3500 462.0000 1.0000
59.3600 470.0000 1.0000
59.3700 477.0000 1.0000
59.3800 493.0000 1.0000
59.3900 480.0000 1.0000
59.4000 524.0000 1.0000
59.4100 504.0000 1.0000
59.4200 485.0000 1.0000
59.4300 457.0000 1.0000
59.4400 488.0000 1.0000
59.4500 463.0000 1.0000
59.4600 491.0000 1.0000
59.4700 453.0000 1.0000
59.4800 468.0000 1.0000
59.4900 504.0000 1.0000
59.5000 480.0000 1.0000
59.5100 464.0000 1.0000
59.5200 459.0000 1.0000
59.5300 484.0000 1.0000
59.5400 508.0000 1.0000
59.5500 477.0000 1.0000
59.5600 481.0000 1.0000
59.5700 504.0000 1.0000
59.5800 448.0000 1.0000
59.5900 444.0000 1.0000
59.6000 456.0000 1.0000
59.6100 474.0000 1.0000
59.6200 464.0000 1.0000
59.6300 440.0000 1.0000
59.6400 458.0000 1.0000
59.6500 457.0000 1.0000
59.6600 445.0000 1.0000
59.6700 462.0000 1.0000
59.6800 474.0000 1.0000
59.6900 471.0000 1.0000
59.7000 455.0000 1.0000
59.7100 463.0000 1.0000
59.7200 512.0000 1.0000
59.7300 454.0000 1.0000
59.7400 448.0000 1.0000
59.7500 458.0000 1.0000
59.7600 449.0000 1.0000
59.7700 447.0000 1.0000
59.7800 451.0000 1.0000
59.7900 455.0000 1.0000
59.8000 481.0000 1.0000
59.8100 486.0000 1.0000
59.8200 467.0000 1.0000
59.8300 454.0000 1.0000
59.8400 457.0000 1.0000
59.8500 470.0000 1.0000
59.8600 501.0000 1.0000
59.8700 490.0000 1.0000
59.8800 527.0000 1.0000
59.8900 467.0000 1.0000
59.9000 491.0000 1.0000
59.9100 486.0000 1.0000
59.9200 452.0000 1.0000
59.9300 444.0000 1.0000
59.9400 477.0000 1.0000
59.9500 444.0000 1.0000
59.9600 480.0000 1.0000
59.9700 462.0000 1.0000
59.9800 457.0000 1.0000
59.9900 478.0000 1.0000
60.0000 428.0000 1.0000
60.0100 480.0000 1.0000
60.0200 495.0000 1.0000
60.0300 485.0000 1.0000
60.0400 467.0000 1.0000
60.0500 472.0000 1.0000
60.0600 457.0000 1.0000
60.0700 473.0000 1.0000
60.0800 480.0000 1.0000
60.0900 464.0000 1.0000
60.1000 496.0000 1.0000
60.1100 499.0000 1.0000
60.1200 447.0000 1.0000
60.1300 483.0000 1.0000
60.1400 447.0000 1.0000
60.1500 471.0000 1.0000
60.1600 478.0000 1.0000
60.1700 455.0000 1.0000
60.1800 468.0000 1.0000
60.1900 473.0000 1.0000
60.2000 460.0000 1.0000
60.2100 473.0000 1.0000
60.2200 471.0000 1.0000
60.2300 469.0000 1.0000
60.2400 472.0000 1.0000
60.2500 457.0000 1.0000
60.2600 478.0000 1.0000
60.2700 462.0000 1.0000
60.2800 475.0000 1.0000
60.2900 492.0000 1.0000
60.3000 485.0000 1.0000
60.3100 469.0000 1.0000
60.3200 464.0000 1.0000
60.3300 441.0000 1.0000
60.3400 473.0000 1.0000
60.3500 473.0000 1.0000
60.3600 494.0000 1.0000
60.3700 462.0000 1.0000
60.3800 464.0000 1.0000
60.3900 424.0000 1.0000
60.4000 450.0000 1.0000
60.4100 486.0000 1.0000
60.4200 496.0000 1.0000
60.4300 466.0000 1.0000
60.4400 497.0000 1.0000
60.4500 461.0000 1.0000
60.4600 460.0000 1.0000
60.4700 480.0000 1.0000
60.4800 454.0000 1.0000
60.4900 497.0000 1.0000
60.5000 485.0000 1.0000
60.5100 452.0000 1.0000
60.5200 461.0000 1.0000
60.5300 443.0000 1.0000
60.5400 447.0000 1.0000
60.5500 431.0000 1.0000
60.5600 500.0000 1.0000
60.5700 484.0000 1.0000
60.5800 452.0000 1.0000
60.5900 478.0000 1.0000
60.6000 482.0000 1.0000
60.6100 461.0000 1.0000
60.6200 455.0000 1.0000
60.6300 475.0000 1.0000
60.6400 506.0000 1.0000
60.6500 463.0000 1.0000
60.6600 476.0000 1.0000
60.6700 476.0000 1.0000
60.6800 464.0000 1.0000
60.6900 446.0000 1.0000
60.7000 470.0000 1.0000
60.7100 446.0000 1.0000
60.7200 441.0000 1.0000
60.7300 479.0000 1.0000
60.7400 459.0000 1.0000
60.7500 470.0000 1.0000
60.7600 440.0000 1.0000
60.7700 495.0000 1.0000
60.7800 453.0000 1.0000
60.7900 490.0000 1.0000
60.8000 499.0000 1.0000
60.8100 491.0000 1.0000
60.8200 438.0000 1.0000
60.8300 452.0000 1.0000
60.8400 465.0000 1.0000
60.8500 493.0000 1.0000
60.8600 469.0000 1.0000
60.8700 500.0000 1.0000
60.8800 464.0000 1.0000
60.8900 454.0000 1.0000
60.9000 459.0000 1.0000
60.9100 453.0000 1.0000
60.9200 452.0000 1.0000
60.9300 465.0000 1.0000
60.9400 494.0000 1.0000
60.9500 484.0000 1.0000
60.9600 488.0000 1.0000
60.9700 512.0000 1.0000
60.9800 461.0000 1.0000
60.9900 465.0000 1.0000
61.0000 479.0000 1.0000
61.0100 503.0000 1.0000
61.0200 491.0000 1.0000
61.0300 484.0000 1.0000
61.0400 481.0000 1.0000
61.0500 452.0000 1.0000
61.0600 441.0000 1.0000
61.0700 489.0000 1.0000
61.0800 497.0000 1.0000
61.0900 498.0000 1.0000
61.1000 486.0000 1.0000
61.1100 454.0000 1.0000
61.1200 479.0000 1.0000
61.1300 466.0000 1.0000
61.1400 489.0000 1.0000
61.1500 431.0000 1.0000
61.1600 485.0000 1.0000
61.1700 473.0000 1.0000
61.1800 473.0000 1.0000
61.1900 460.0000 1.0000
61.2000 489.0000 1.0000
61.2100 459.0000 1.0000
61.2200 483.0000 1.0000
61.2300 449.0000 1.0000
61.2400 466.0000 1.0000
61.2500 467.0000 1.0000
61.2600 467.0000 1.0000
61.2700 475.0000 1.0000
61.2800 496.0000 1.0000
61.2900 442.0000 1.0000
61.3000 477.0000 1.0000
61.3100 458.0000 1.0000
61.3200 474.0000 1.0000
61.3300 447.0000 1.0000
61.3400 436.0000 1.0000
61.3500 471.0000 1.0000
61.3600 455.0000 1.0000
61.3700 460.0000 1.0000
61.3800 466.0000 1.0000
61.3900 482.0000 1.0000
61.4000 468.0000 1.0000
61.4100 458.0000 1.0000
61.4200 474.0000 1.0000
61.4300 474.0000 1.0000
61.4400 478.0000 1.0000
61.4500 434.0000 1.0000
61.4600 464.0000 1.0000
61.4700 504.0000 1.0000
61.4800 503.0000 1.0000
61.4900 474.0000 1.0000
61.5000 440.0000 1.0000
61.5100 453.0000 1.0000
61.5200 474.0000 1.0000
61.5300 458.0000 1.0000
61.5400 483.0000 1.0000
61.5500 494.0000 1.0000
61.5600 513.0000 1.0000
61.5700 469.0000 1.0000
61.5800 473.0000 1.0000
61.5900 460.0000 1.0000
61.6000 488.0000 1.0000
61.6100 473.0000 1.0000
61.6200 485.0000 1.0000
61.6300 479.0000 1.0000
61.6400 478.0000 1.0000
61.6500 534.0000 1.0000
61.6600 503.0000 1.0000
61.6700 536.0000 1.0000
61.6800 477.0000 1.0000
61.6900 469.0000 1.0000
61.7000 478.0000 1.0000
61.7100 459.0000 1.0000
61.7200 515.0000 1.0000
61.7300 505.0000 1.0000
61.7400 502.0000 1.0000
61.7500 508.0000 1.0000
61.7600 512.0000 1.0000
61.7700 515.0000 1.0000
61.7800 509.0000 1.0000
61.7900 518.0000 1.0000
61.8000 517.0000 1.0000
61.8100 516.0000 1.0000
61.8200 482.0000 1.0000
61.8300 505.0000 1.0000
61.8400 497.0000 1.0000
61.8500 562.0000 1.0000
61.8600 525.0000 1.0000
61.8700 497.0000 1.0000
61.8800 499.0000 1.0000
61.8900 531.0000 1.0000
61.9000 522.0000 1.0000
61.9100 559.0000 1.0000
61.9200 588.0000 1.0000
61.9300 596.0000 1.0000
61.9400 556.0000 1.0000
61.9500 570.0000 1.0000
61.9600 578.0000 1.0000
61.9700 598.0000 1.0000
61.9800 584.0000 1.0000
61.9900 629.0000 1.0000
62.0000 628.0000 1.0000
62.0100 627.0000 1.0000
62.0200 655.0000 1.0000
62.0300 661.0000 1.0000
62.0400 708.0000 1.0000
62.0500 729.0000 1.0000
62.0600 734.0000 1.0000
62.0700 746.0000 1.0000
62.0800 747.0000 1.0000
62.0900 765.0000 1.0000
62.1000 771.0000 1.0000
62.1100 828.0000 1.0000
62.1200 816.0000 1.0000
62.1300 843.0000 1.0000
62.1400 878.0000 1.0000
62.1500 950.0000 1.0000
62.1600 916.0000 1.0000
62.1700 960.0000 1.0000
62.1800 1000.0000 1.0000
62.1900 1018.0000 1.0000
62.2000 1002.0000 1.0000
62.2100 1080.0000 1.0000
62.2200 1075.0000 1.0000
62.2300 1115.0000 1.0000
62.2400 1091.0000 1.0000
62.2500 1128.0000 1.0000
62.2600 1033.0000 1.0000
62.2700 1099.0000 1.0000
62.2800 1086.0000 1.0000
62.2900 1112.0000 1.0000
62.3000 1150.0000 1.0000
62.3100 1138.0000 1.0000
62.3200 1067.0000 1.0000
62.3300 1059.0000 1.0000
62.3400 1046.0000 1.0000
62.3500 1109.0000 1.0000
62.3600 1001.0000 1.0000
62.3700 1024.0000 1.0000
62.3800 1033.0000 1.0000
62.3900 1030.0000 1.0000
62.4000 987.0000 1.0000
62.4100 1000.0000 1.0000
62.4200 986.0000 1.0000
62.4300 924.0000 1.0000
62.4400 968.0000 1.0000
62.4500 941.0000 1.0000
62.4600 900.0000 1.0000
62.4700 888.0000 1.0000
62.4800 913.0000 1.0000
62.4900 800.0000 1.0000
62.5000 804.0000 1.0000
62.5100 843.0000 1.0000
62.5200 799.0000 1.0000
62.5300 734.0000 1.0000
62.5400 739.0000 1.0000
62.5500 737.0000 1.0000
62.5600 733.0000 1.0000
62.5700 686.0000 1.0000
62.5800 695.0000 1.0000
62.5900 698.0000 1.0000
62.6000 721.0000 1.0000
62.6100 648.0000 1.0000
62.6200 649.0000 1.0000
62.6300 643.0000 1.0000
62.6400 627.0000 1.0000
62.6500 605.0000 1.0000
62.6600 626.0000 1.0000
62.6700 596.0000 1.0000
62.6800 633.0000 1.0000
62.6900 576.0000 1.0000
62.7000 588.0000 1.0000
62.7100 617.0000 1.0000
62.7200 547.0000 1.0000
62.7300 562.0000 1.0000
62.7400 538.0000 1.0000
62.7500 555.0000 1.0000
62.7600 550.0000 1.0000
62.7700 534.0000 1.0000
62.7800 550.0000 1.0000
62.7900 526.0000 1.0000
62.8000 529.0000 1.0000
62.8100 546.0000 1.0000
62.8200 519.0000 1.0000
62.8300 511.0000 1.0000
62.8400 500.0000 1.0000
62.8500 504.0000 1.0000
62.8600 552.0000 1.0000
62.8700 512.0000 1.0000
62.8800 517.0000 1.0000
62.8900 504.0000 1.0000
62.9000 527.0000 1.0000
62.9100 493.0000 1.0000
62.9200 525.0000 1.0000
62.9300 487.0000 1.0000
62.9400 481.0000 1.0000
62.9500 484.0000 1.0000
62.9600 505.0000 1.0000
62.9700 521.0000 1.0000
62.9800 476.0000 1.0000
62.9900 471.0000 1.0000
63.0000 499.0000 1.0000
63.0100 501.0000 1.0000
63.0200 508.0000 1.0000
63.0300 499.0000 1.0000
63.0400 510.0000 1.0000
63.0500 477.0000 1.0000
63.0600 505.0000 1.0000
63.0700 505.0000 1.0000
63.0800 495.0000 1.0000
63.0900 466.0000 1.0000
63.1000 511.0000 1.0000
63.1100 500.0000 1.0000
63.1200 512.0000 1.0000
63.1300 458.0000 1.0000
63.1400 476.0000 1.0000
63.1500 477.0000 1.0000
63.1600 467.0000 1.0000
63.1700 490.0000 1.0000
63.1800 471.0000 1.0000
63.1900 488.0000 1.0000
63.2000 477.0000 1.0000
63.2100 469.0000 1.0000
63.2200 493.0000 1.0000
63.2300 488.0000 1.0000
63.2400 494.0000 1.0000
63.2500 471.0000 1.0000
63.2600 447.0000 1.0000
63.2700 494.0000 1.0000
63.2800 499.0000 1.0000
63.2900 465.0000 1.0000
63.3000 470.0000 1.0000
63.3100 482.0000 1.0000
63.3200 454.0000 1.0000
63.3300 450.0000 1.0000
63.3400 454.0000 1.0000
63.3500 434.0000 1.0000
63.3600 463.0000 1.0000
63.3700 459.0000 1.0000
63.3800 473.0000 1.0000
63.3900 465.0000 1.0000
63.4000 448.0000 1.0000
63.4100 500.0000 1.0000
63.4200 484.0000 1.0000
63.4300 443.0000 1.0000
63.4400 498.0000 1.0000
63.4500 446.0000 1.0000
63.4600 483.0000 1.0000
63.4700 469.0000 1.0000
63.4800 469.0000 1.0000
63.4900 462.0000 1.0000
63.5000 482.0000 1.0000
63.5100 464.0000 1.0000
63.5200 457.0000 1.0000
63.5300 482.0000 1.0000
63.5400 457.0000 1.0000
63.5500 486.0000 1.0000
63.5600 431.0000 1.0000
63.5700 449.0000 1.0000
63.5800 472.0000 1.0000
63.5900 486.0000 1.0000
63.6000 485.0000 1.0000
63.6100 460.0000 1.0000
63.6200 453.0000 1.0000
63.6300 486.0000 1.0000
63.6400 461.0000 1.0000
63.6500 449.0000 1.0000
63.6600 476.0000 1.0000
63.6700 443.0000 1.0000
63.6800 478.0000 1.0000
63.6900 520.0000 1.0000
63.7000 499.0000 1.0000
63.7100 446.0000 1.0000
63.7200 455.0000 1.0000
63.7300 463.0000 1.0000
63.7400 480.0000 1.0000
63.7500 451.0000 1.0000
63.7600 434.0000 1.0000
63.7700 465.0000 1.0000
63.7800 461.0000 1.0000
63.7900 457.0000 1.0000
63.8000 476.0000 1.0000
63.8100 467.0000 1.0000
63.8200 462.0000 1.0000
63.8300 452.0000 1.0000
63.8400 459.0000 1.0000
63.8500 477.0000 1.0000
63.8600 475.0000 1.0000
63.8700 484.0000 1.0000
63.8800 461.0000 1.0000
63.8900 481.0000 1.0000
63.9000 466.0000 1.0000
63.9100 470.0000 1.0000
63.9200 477.0000 1.0000
63.9300 498.0000 1.0000
63.9400 487.0000 1.0000
63.9500 508.0000 1.0000
63.9600 489.0000 1.0000
63.9700 475.0000 1.0000
63.9800 472.0000 1.0000
63.9900 474.0000 1.0000
64.0000 492.0000 1.0000
64.0100 471.0000 1.0000
64.0200 455.0000 1.0000
64.0300 427.0000 1.0000
64.0400 432.0000 1.0000
64.0500 497.0000 1.0000
64.0600 481.0000 1.0000
64.0700 468.0000 1.0000
64.0800 487.0000 1.0000
64.0900 478.0000 1.0000
64.1000 478.0000 1.0000
64.1100 465.0000 1.0000
64.1200 455.0000 1.0000
64.1300 462.0000 1.0000
64.1400 475.0000 1.0000
64.1500 450.0000 1.0000
64.1600 473.0000 1.0000
64.1700 482.0000 1.0000
64.1800 450.0000 1.0000
64.1900 417.0000 1.0000
64.2000 468.0000 1.0000
64.2100 493.0000 1.0000
64.2200 502.0000 1.0000
64.2300 467.0000 1.0000
64.2400 458.0000 1.0000
64.2500 460.0000 1.0000
64.2600 455.0000 1.0000
64.2700 455.0000 1.0000
64.2800 441.0000 1.0000
64.2900 451.0000 1.0000
64.3000 456.0000 1.0000
64.3100 464.0000 1.0000
64.3200 484.0000 1.0000
64.3300 466.0000 1.0000
64.3400 469.0000 1.0000
64.3500 472.0000 1.0000
64.3600 471.0000 1.0000
64.3700 468.0000 1.0000
64.3800 459.0000 1.0000
64.3900 459.0000 1.0000
64.4000 458.0000 1.0000
64.4100 451.0000 1.0000
64.4200 440.0000 1.0000
64.4300 469.0000 1.0000
64.4400 472.0000 1.0000
64.4500 486.0000 1.0000
64.4600 497.0000 1.0000
64.4700 523.0000 1.0000
64.4800 433.0000 1.0000
64.4900 475.0000 1.0000
64.5000 445.0000 1.0000
64.5100 445.0000 1.0000
64.5200 494.0000 1.0000
64.5300 476.0000 1.0000
64.5400 449.0000 1.0000
64.5500 482.0000 1.0000
64.5600 509.0000 1.0000
64.5700 485.0000 1.0000
64.5800 482.0000 1.0000
64.5900 484.0000 1.0000
64.6000 451.0000 1.0000
64.6100 483.0000 1.0000
64.6200 476.0000 1.0000
64.6300 490.0000 1.0000
64.6400 477.0000 1.0000
64.6500 468.0000 1.0000
64.6600 469.0000 1.0000
64.6700 497.0000 1.0000
64.6800 488.0000 1.0000
64.6900 503.0000 1.0000
64.7000 505.0000 1.0000
64.7100 491.0000 1.0000
64.7200 502.0000 1.0000
64.7300 490.0000 1.0000
64.7400 487.0000 1.0000
64.7500 475.0000 1.0000
64.7600 490.0000 1.0000
64.7700 554.0000 1.0000
64.7800 514.0000 1.0000
64.7900 508.0000 1.0000
64.8000 537.0000 1.0000
64.8100 468.0000 1.0000
64.8200 494.0000 1.0000
64.8300 473.0000 1.0000
64.8400 488.0000 1.0000
64.8500 477.0000 1.0000
64.8600 507.0000 1.0000
64.8700 465.0000 1.0000
64.8800 514.0000 1.0000
64.8900 509.0000 1.0000
64.9000 539.0000 1.0000
64.9100 551.0000 1.0000
64.9200 493.0000 1.0000
64.9300 477.0000 1.0000
64.9400 516.0000 1.0000
64.9500 510.0000 1.0000
64.9600 498.0000 1.0000
64.9700 523.0000 1.0000
64.9800 483.0000 1.0000
64.9900 479.0000 1.0000
65.0000 490.0000 1.0000
65.0100 465.0000 1.0000
65.0200 473.0000 1.0000
65.0300 465.0000 1.0000
65.0400 484.0000 1.0000
65.0500 514.0000 1.0000
65.0600 491.0000 1.0000
65.0700 491.0000 1.0000
65.0800 516.0000 1.0000
65.0900 493.0000 1.0000
65.1000 500.0000 1.0000
65.1100 504.0000 1.0000
65.1200 498.0000 1.0000
65.1300 473.0000 1.0000
65.1400 484.0000 1.0000
65.1500 487.0000 1.0000
65.1600 446.0000 1.0000
65.1700 491.0000 1.0000
65.1800 484.0000 1.0000
65.1900 491.0000 1.0000
65.2000 491.0000 1.0000
65.2100 479.0000 1.0000
65.2200 527.0000 1.0000
65.2300 512.0000 1.0000
65.2400 527.0000 1.0000
65.2500 490.0000 1.0000
65.2600 487.0000 1.0000
65.2700 488.0000 1.0000
65.2800 480.0000 1.0000
65.2900 474.0000 1.0000
65.3000 466.0000 1.0000
65.3100 468.0000 1.0000
65.3200 485.0000 1.0000
65.3300 507.0000 1.0000
65.3400 490.0000 1.0000
65.3500 478.0000 1.0000
65.3600 494.0000 1.0000
65.3700 503.0000 1.0000
65.3800 484.0000 1.0000
65.3900 504.0000 1.0000
65.4000 478.0000 1.0000
65.4100 486.0000 1.0000
65.4200 507.0000 1.0000
65.4300 525.0000 1.0000
65.4400 459.0000 1.0000
65.4500 478.0000 1.0000
65.4600 477.0000 1.0000
65.4700 475.0000 1.0000
65.4800 519.0000 1.0000
65.4900 477.0000 1.0000
65.5000 465.0000 1.0000
65.5100 501.0000 1.0000
65.5200 466.0000 1.0000
65.5300 497.0000 1.0000
65.5400 488.0000 1.0000
65.5500 520.0000 1.0000
65.5600 497.0000 1.0000
65.5700 482.0000 1.0000
65.5800 475.0000 1.0000
65.5900 458.0000 1.0000
65.6000 472.0000 1.0000
65.6100 461.0000 1.0000
65.6200 505.0000 1.0000
65.6300 484.0000 1.0000
65.6400 492.0000 1.0000
65.6500 506.0000 1.0000
65.6600 507.0000 1.0000
65.6700 497.0000 1.0000
65.6800 497.0000 1.0000
65.6900 551.0000 1.0000
65.7000 535.0000 1.0000
65.7100 492.0000 1.0000
65.7200 490.0000 1.0000
65.7300 535.0000 1.0000
65.7400 515.0000 1.0000
65.7500 509.0000 1.0000
65.7600 510.0000 1.0000
65.7700 538.0000 1.0000
65.7800 531.0000 1.0000
65.7900 552.0000 1.0000
65.8000 536.0000 1.0000
65.8100 538.0000 1.0000
65.8200 537.0000 1.0000
65.8300 559.0000 1.0000
65.8400 544.0000 1.0000
65.8500 527.0000 1.0000
65.8600 617.0000 1.0000
65.8700 598.0000 1.0000
65.8800 552.0000 1.0000
65.8900 604.0000 1.0000
65.9000 614.0000 1.0000
65.9100 617.0000 1.0000
65.9200 595.0000 1.0000
65.9300 631.0000 1.0000
65.9400 627.0000 1.0000
65.9500 695.0000 1.0000
65.9600 674.0000 1.0000
65.9700 695.0000 1.0000
65.9800 713.0000 1.0000
65.9900 737.0000 1.0000
66.0000 753.0000 1.0000
66.0100 768.0000 1.0000
66.0200 828.0000 1.0000
66.0300 813.0000 1.0000
66.0400 858.0000 1.0000
66.0500 935.0000 1.0000
66.0600 968.0000 1.0000
66.0700 1031.0000 1.0000
66.0800 1039.0000 1.0000
66.0900 1077.0000 1.0000
66.1000 1153.0000 1.0000
66.1100 1230.0000 1.0000
66.1200 1324.0000 1.0000
66.1300 1320.0000 1.0000
66.1400 1444.0000 1.0000
66.1500 1523.0000 1.0000
66.1600 1637.0000 1.0000
66.1700 1690.0000 1.0000
66.1800 1734.0000 1.0000
66.1900 1861.0000 1.0000
66.2000 1983.0000 1.0000
66.2100 1907.0000 1.0000
66.2200 1851.0000 1.0000
66.2300 1958.0000 1.0000
66.2400 1929.0000 1.0000
66.2500 1922.0000 1.0000
66.2600 1890.0000 1.0000
66.2700 1893.0000 1.0000
66.2800 1876.0000 1.0000
66.2900 1777.0000 1.0000
66.3000 1682.0000 1.0000
66.3100 1686.0000 1.0000
66.3200 1731.0000 1.0000
66.3300 1709.0000 1.0000
66.3400 1770.0000 1.0000
66.3500 1659.0000 1.0000
66.3600 1598.0000 1.0000
66.3700 1676.0000 1.0000
66.3800 1583.0000 1.0000
66.3900 1523.0000 1.0000
66.4000 1565.0000 1.0000
66.4100 1528.0000 1.0000
66.4200 1470.0000 1.0000
66.4300 1381.0000 1.0000
66.4400 1414.0000 1.0000
66.4500 1408.0000 1.0000
66.4600 1301.0000 1.0000
66.4700 1228.0000 1.0000
66.4800 1115.0000 1.0000
66.4900 1155.0000 1.0000
66.5000 1121.0000 1.0000
66.5100 1066.0000 1.0000
66.5200 999.0000 1.0000
66.5300 950.0000 1.0000
66.5400 890.0000 1.0000
66.5500 871.0000 1.0000
66.5600 906.0000 1.0000
66.5700 860.0000 1.0000
66.5800 814.0000 1.0000
66.5900 752.0000 1.0000
66.6000 709.0000 1.0000
66.6100 724.0000 1.0000
66.6200 742.0000 1.0000
66.6300 752.0000 1.0000
66.6400 692.0000 1.0000
66.6500 690.0000 1.0000
66.6600 666.0000 1.0000
66.6700 650.0000 1.0000
66.6800 616.0000 1.0000
66.6900 612.0000 1.0000
66.7000 583.0000 1.0000
66.7100 638.0000 1.0000
66.7200 586.0000 1.0000
66.7300 575.0000 1.0000
66.7400 556.0000 1.0000
66.7500 527.0000 1.0000
66.7600 542.0000 1.0000
66.7700 552.0000 1.0000
66.7800 565.0000 1.0000
66.7900 556.0000 1.0000
66.8000 485.0000 1.0000
66.8100 541.0000 1.0000
66.8200 487.0000 1.0000
66.8300 518.0000 1.0000
66.8400 512.0000 1.0000
66.8500 484.0000 1.0000
66.8600 480.0000 1.0000
66.8700 487.0000 1.0000
66.8800 499.0000 1.0000
66.8900 468.0000 1.0000
66.9000 457.0000 1.0000
66.9100 485.0000 1.0000
66.9200 487.0000 1.0000
66.9300 484.0000 1.0000
66.9400 481.0000 1.0000
66.9500 479.0000 1.0000
66.9600 443.0000 1.0000
66.9700 468.0000 1.0000
66.9800 444.0000 1.0000
66.9900 484.0000 1.0000
67.0000 408.0000 1.0000
67.0100 459.0000 1.0000
67.0200 434.0000 1.0000
67.0300 478.0000 1.0000
67.0400 489.0000 1.0000
67.0500 431.0000 1.0000
67.0600 479.0000 1.0000
67.0700 452.0000 1.0000
67.0800 436.0000 1.0000
67.0900 457.0000 1.0000
67.1000 444.0000 1.0000
67.1100 450.0000 1.0000
67.1200 457.0000 1.0000
67.1300 467.0000 1.0000
67.1400 474.0000 1.0000
67.1500 453.0000 1.0000
67.1600 452.0000 1.0000
67.1700 441.0000 1.0000
67.1800 457.0000 1.0000
67.1900 444.0000 1.0000
67.2000 492.0000 1.0000
67.2100 426.0000 1.0000
67.2200 459.0000 1.0000
67.2300 441.0000 1.0000
67.2400 445.0000 1.0000
67.2500 419.0000 1.0000
67.2600 423.0000 1.0000
67.2700 444.0000 1.0000
67.2800 435.0000 1.0000
67.2900 421.0000 1.0000
67.3000 447.0000 1.0000
67.3100 444.0000 1.0000
67.3200 471.0000 1.0000
67.3300 430.0000 1.0000
67.3400 451.0000 1.0000
67.3500 440.0000 1.0000
67.3600 420.0000 1.0000
67.3700 424.0000 1.0000
67.3800 438.0000 1.0000
67.3900 450.0000 1.0000
67.4000 460.0000 1.0000
67.4100 464.0000 1.0000
67.4200 444.0000 1.0000
67.4300 417.0000 1.0000
67.4400 454.0000 1.0000
67.4500 435.0000 1.0000
67.4600 400.0000 1.0000
67.4700 425.0000 1.0000
67.4800 451.0000 1.0000
67.4900 449.0000 1.0000
67.5000 424.0000 1.0000
67.5100 433.0000 1.0000
67.5200 437.0000 1.0000
67.5300 420.0000 1.0000
67.5400 434.0000 1.0000
67.5500 451.0000 1.0000
67.5600 390.0000 1.0000
67.5700 407.0000 1.0000
67.5800 440.0000 1.0000
67.5900 418.0000 1.0000
67.6000 441.0000 1.0000
67.6100 417.0000 1.0000
67.6200 461.0000 1.0000
67.6300 402.0000 1.0000
67.6400 418.0000 1.0000
67.6500 455.0000 1.0000
67.6600 421.0000 1.0000
67.6700 426.0000 1.0000
67.6800 447.0000 1.0000
67.6900 423.0000 1.0000
67.7000 409.0000 1.0000
67.7100 425.0000 1.0000
67.7200 410.0000 1.0000
67.7300 407.0000 1.0000
67.7400 453.0000 1.0000
67.7500 425.0000 1.0000
67.7600 440.0000 1.0000
67.7700 426.0000 1.0000
67.7800 415.0000 1.0000
67.7900 423.0000 1.0000
67.8000 394.0000 1.0000
67.8100 424.0000 1.0000
67.8200 445.0000 1.0000
67.8300 409.0000 1.0000
67.8400 429.0000 1.0000
67.8500 419.0000 1.0000
67.8600 404.0000 1.0000
67.8700 404.0000 1.0000
67.8800 423.0000 1.0000
67.8900 459.0000 1.0000
67.9000 459.0000 1.0000
67.9100 441.0000 1.0000
67.9200 421.0000 1.0000
67.9300 424.0000 1.0000
67.9400 450.0000 1.0000
67.9500 424.0000 1.0000
67.9600 438.0000 1.0000
67.9700 452.0000 1.0000
67.9800 435.0000 1.0000
67.9900 419.0000 1.0000
68.0000 402.0000 1.0000
68.0100 404.0000 1.0000
68.0200 406.0000 1.0000
68.0300 437.0000 1.0000
68.0400 434.0000 1.0000
68.0500 405.0000 1.0000
68.0600 439.0000 1.0000
68.0700 424.0000 1.0000
68.0800 432.0000 1.0000
68.0900 436.0000 1.0000
68.1000 391.0000 1.0000
68.1100 413.0000 1.0000
68.1200 439.0000 1.0000
68.1300 440.0000 1.0000
68.1400 420.0000 1.0000
68.1500 433.0000 1.0000
68.1600 402.0000 1.0000
68.1700 396.0000 1.0000
68.1800 398.0000 1.0000
68.1900 445.0000 1.0000
68.2000 415.0000 1.0000
68.2100 401.0000 1.0000
68.2200 428.0000 1.0000
68.2300 418.0000 1.0000
68.2400 403.0000 1.0000
68.2500 448.0000 1.0000
68.2600 380.0000 1.0000
68.2700 386.0000 1.0000
68.2800 397.0000 1.0000
68.2900 394.0000 1.0000
68.3000 401.0000 1.0000
68.3100 450.0000 1.0000
68.3200 424.0000 1.0000
68.3300 436.0000 1.0000
68.3400 397.0000 1.0000
68.3500 444.0000 1.0000
68.3600 428.0000 1.0000
68.3700 392.0000 1.0000
68.3800 393.0000 1.0000
68.3900 391.0000 1.0000
68.4000 427.0000 1.0000
68.4100 427.0000 1.0000
68.4200 400.0000 1.0000
68.4300 402.0000 1.0000
68.4400 433.0000 1.0000
68.4500 365.0000 1.0000
68.4600 382.0000 1.0000
68.4700 395.0000 1.0000
68.4800 435.0000 1.0000
68.4900 419.0000 1.0000
68.5000 398.0000 1.0000
68.5100 418.0000 1.0000
68.5200 416.0000 1.0000
68.5300 400.0000 1.0000
68.5400 404.0000 1.0000
68.5500 422.0000 1.0000
68.5600 426.0000 1.0000
68.5700 415.0000 1.0000
68.5800 398.0000 1.0000
68.5900 405.0000 1.0000
68.6000 426.0000 1.0000
68.6100 425.0000 1.0000
68.6200 446.0000 1.0000
68.6300 366.0000 1.0000
68.6400 392.0000 1.0000
68.6500 405.0000 1.0000
68.6600 439.0000 1.0000
68.6700 414.0000 1.0000
68.6800 448.0000 1.0000
68.6900 458.0000 1.0000
68.7000 415.0000 1.0000
68.7100 418.0000 1.0000
68.7200 422.0000 1.0000
68.7300 420.0000 1.0000
68.7400 428.0000 1.0000
68.7500 398.0000 1.0000
68.7600 390.0000 1.0000
68.7700 395.0000 1.0000
68.7800 435.0000 1.0000
68.7900 435.0000 1.0000
68.8000 415.0000 1.0000
68.8100 399.0000 1.0000
68.8200 419.0000 1.0000
68.8300 413.0000 1.0000
68.8400 420.0000 1.0000
68.8500 376.0000 1.0000
68.8600 373.0000 1.0000
68.8700 371.0000 1.0000
68.8800 393.0000 1.0000
68.8900 398.0000 1.0000
68.9000 372.0000 1.0000
68.9100 405.0000 1.0000
68.9200 385.0000 1.0000
68.9300 353.0000 1.0000
68.9400 387.0000 1.0000
68.9500 383.0000 1.0000
68.9600 419.0000 1.0000
68.9700 390.0000 1.0000
68.9800 412.0000 1.0000
68.9900 407.0000 1.0000
69.0000 398.0000 1.0000
69.0100 387.0000 1.0000
69.0200 438.0000 1.0000
69.0300 426.0000 1.0000
69.0400 408.0000 1.0000
69.0500 350.0000 1.0000
69.0600 374.0000 1.0000
69.0700 384.0000 1.0000
69.0800 394.0000 1.0000
69.0900 400.0000 1.0000
69.1000 416.0000 1.0000
69.1100 414.0000 1.0000
69.1200 380.0000 1.0000
69.1300 404.0000 1.0000
69.1400 390.0000 1.0000
69.1500 404.0000 1.0000
69.1600 421.0000 1.0000
69.1700 376.0000 1.0000
69.1800 401.0000 1.0000
69.1900 406.0000 1.0000
69.2000 401.0000 1.0000
69.2100 415.0000 1.0000
69.2200 401.0000 1.0000
69.2300 402.0000 1.0000
69.2400 402.0000 1.0000
69.2500 417.0000 1.0000
69.2600 370.0000 1.0000
69.2700 364.0000 1.0000
69.2800 401.0000 1.0000
69.2900 408.0000 1.0000
69.3000 374.0000 1.0000
69.3100 408.0000 1.0000
69.3200 387.0000 1.0000
69.3300 399.0000 1.0000
69.3400 423.0000 1.0000
69.3500 411.0000 1.0000
69.3600 397.0000 1.0000
69.3700 393.0000 1.0000
69.3800 401.0000 1.0000
69.3900 406.0000 1.0000
69.4000 379.0000 1.0000
69.4100 400.0000 1.0000
69.4200 398.0000 1.0000
69.4300 401.0000 1.0000
69.4400 404.0000 1.0000
69.4500 411.0000 1.0000
69.4600 380.0000 1.0000
69.4700 438.0000 1.0000
69.4800 412.0000 1.0000
69.4900 401.0000 1.0000
69.5000 384.0000 1.0000
69.5100 440.0000 1.0000
69.5200 419.0000 1.0000
69.5300 393.0000 1.0000
69.5400 388.0000 1.0000
69.5500 396.0000 1.0000
69.5600 416.0000 1.0000
69.5700 386.0000 1.0000
69.5800 394.0000 1.0000
69.5900 376.0000 1.0000
69.6000 372.0000 1.0000
69.6100 416.0000 1.0000
69.6200 445.0000 1.0000
69.6300 427.0000 1.0000
69.6400 399.0000 1.0000
69.6500 405.0000 1.0000
69.6600 412.0000 1.0000
69.6700 392.0000 1.0000
69.6800 390.0000 1.0000
69.6900 400.0000 1.0000
69.7000 415.0000 1.0000
69.7100 399.0000 1.0000
69.7200 386.0000 1.0000
69.7300 408.0000 1.0000
69.7400 376.0000 1.0000
69.7500 403.0000 1.0000
69.7600 384.0000 1.0000
69.7700 401.0000 1.0000
69.7800 366.0000 1.0000
69.7900 404.0000 1.0000
69.8000 398.0000 1.0000
69.8100 402.0000 1.0000
69.8200 387.0000 1.0000
69.8300 377.0000 1.0000
69.8400 384.0000 1.0000
69.8500 384.0000 1.0000
69.8600 377.0000 1.0000
69.8700 388.0000 1.0000
69.8800 421.0000 1.0000
69.8900 404.0000 1.0000
69.9000 383.0000 1.0000
69.9100 383.0000 1.0000
69.9200 387.0000 1.0000
69.9300 447.0000 1.0000
69.9400 426.0000 1.0000
69.9500 394.0000 1.0000
69.9600 402.0000 1.0000
69.9700 404.0000 1.0000
69.9800 378.0000 1.0000
69.9900 415.0000 1.0000
70.0000 376.0000 1.0000
*RAS_INT_END
*RAS_TEMPERATURE_START
*RAS_TEMPERATURE_END
*RAS_DATA_END
