*RAS_DATA_START
*RAS_HEADER_START
*DISP_FMT_X "%.2f"
*DISP_FMT_Y "%.0f"
*DISP_FULLSCALE "14482.0000000000"
*DISP_LINE_COLOR "255.0000000000"
*DISP_LINE_STYLE "0.0000000000"
*DISP_LINE_WIDTH "0.2500000000"
*DISP_NOTE "測定データ-8"
*DISP_OFFSET_Y "0.0000000000"
*DISP_PEAKSEARCH_UNIT_Y "cps"
*DISP_RANGE_BOTTOM "0.0000000000"
*DISP_RANGE_LEFT "20.0000000000"
*DISP_RANGE_LOGCUTOFF "0.0100000000"
*DISP_RANGE_RIGHT "70.0000000000"
*DISP_RANGE_TOP "14482.0000000000"
*DISP_SCALE_MODE_Y "0.0000000000"
*DISP_TAB_NAME "2θ/θ"
*DISP_TITLE_Y "強度"
*DISP_UNIT_Y "cps"
*DISP_WINDOW_NAME "MSG_MACROENGINE"
*FILE_COMMENT " "
*FILE_MD5 ""
*FILE_MEMO " "
*FILE_OPERATOR "Administrator"
*FILE_SAMPLE " "
*FILE_TYPE "RAS_RAW"
*FILE_USERGROUP "システムマネージャ"
*FILE_VERSION "1.0000000000"
*HW_ATTACHMENT_ID "ATT0025"
*HW_ATTACHMENT_NAME "標準|Standard"
*HW_COUNTER_ID-0 "CUT0025"
*HW_COUNTER_ID-1 "CUT0020"
*HW_COUNTER_ID-2 "CUT0020"
*HW_COUNTER_ID-3 "CSL0021"
*HW_COUNTER_ID-4 "CMC0021"
*HW_COUNTER_NAME-0 "D/teX Ultra|D/teX Ultra"
*HW_COUNTER_NAME-1 "None|None"
*HW_COUNTER_NAME-2 "None|None"
*HW_COUNTER_NAME-3 "BBM|BBM"
*HW_COUNTER_NAME-4 "検出器モノクロメータ|Detector monochromator"
*HW_COUNTER_SELECT_NAME "D/teX Ultra|D/teX Ultra"
*HW_GONIOMETER_ID "GON0023"
*HW_GONIOMETER_NAME "SmartLab|SmartLab"
*HW_GONIOMETER_RADIUS-0 "90.0"
*HW_GONIOMETER_RADIUS-1 "114.0"
*HW_GONIOMETER_RADIUS-2 "190.0"
*HW_GONIOMETER_RADIUS-3 "300.0"
*HW_GONIOMETER_RADIUS-4 "187.0"
*HW_GONIOMETER_RADIUS-5 "300.0"
*HW_GONIOMETER_RADIUS-6 "113.0"
*HW_GONIOMETER_RADIUS-7 "331.0"
*HW_I_OPT_ID-0 "CBO0021"
*HW_I_OPT_ID-1 "ICR0023"
*HW_I_OPT_ID-2 "ISL0021"
*HW_I_OPT_ID-3 "ISO0021"
*HW_I_OPT_ID-4 "IAD0021"
*HW_I_OPT_ID-5 "IPR0001"
*HW_I_OPT_NAME-0 "CBOユニット|CBO unit"
*HW_I_OPT_NAME-1 "標準入射光学ユニット|Standard incident optical unit"
*HW_I_OPT_NAME-2 "標準入射スリットボックス|Standard incident slit box"
*HW_I_OPT_NAME-3 "入射平行スリット|Incident parallel slit"
*HW_I_OPT_NAME-4 "長手制限スリット|Length limiting slit"
*HW_I_OPT_NAME-5 "None|None"
*HW_R_ATTENUATER_AUTOMODE "0"
*HW_R_OPT_ID-0 "RSS0021"
*HW_R_OPT_ID-1 "RCR0023"
*HW_R_OPT_ID-2 "RSO0021"
*HW_R_OPT_ID-3 "RRS0021"
*HW_R_OPT_ID-4 "ATN0021"
*HW_R_OPT_ID-5 "RFL0021"
*HW_R_OPT_ID-6 "RAD0021"
*HW_R_OPT_NAME-0 "標準受光スリットボックス1|Standard receiving slit box # 1"
*HW_R_OPT_NAME-1 "標準受光光学ユニット1|Standard receiving unit # 1"
*HW_R_OPT_NAME-2 "標準受光光学ユニット2|Standard receiving optical unit # 2"
*HW_R_OPT_NAME-3 "標準受光スリットボックス2|Standard receiving slit box # 2"
*HW_R_OPT_NAME-4 "標準アッテネータ|Standard Attenuator"
*HW_R_OPT_NAME-5 "Cu Kβ|Cu K-beta"
*HW_R_OPT_NAME-6 "調整用受光スリット|Alignment receiving slit"
*HW_SAMPLE_HOLDER_ID "SMP0023"
*HW_SAMPLE_HOLDER_NAME "標準Zステージ|Standard Z stage"
*HW_XG_CURRENT_MAX "50"
*HW_XG_CURRENT_MIN "2"
*HW_XG_CURRENT_RESOLUTION "1"
*HW_XG_CURRENT_UNIT "mA"
*HW_XG_FOCUS "1mm x 10mm"
*HW_XG_FOCUS_TYPE "Normal"
*HW_XG_ID ""
*HW_XG_NAME "3kW 封入管(ID:1200)|3kW Sealed tube(ID:1200)"
*HW_XG_TARGET_ATOMIC_NUMBER "29.0000000000"
*HW_XG_TARGET_NAME "Cu"
*HW_XG_TYPE "Hermetic"
*HW_XG_VOLTAGE_MAX "60"
*HW_XG_VOLTAGE_MIN "20"
*HW_XG_VOLTAGE_RESOLUTION "1"
*HW_XG_VOLTAGE_UNIT "kV"
*HW_XG_WATT_MAX "1.500"
*HW_XG_WATT_UNIT "kW"
*HW_XG_WAVE_LENGTH_ALPHA1 "1.540593"
*HW_XG_WAVE_LENGTH_ALPHA2 "1.544414"
*HW_XG_WAVE_LENGTH_BETA "1.392250"
*MEAS_COND_AXIS_NAME-0 "2θ/θ"
*MEAS_COND_AXIS_NAME-1 "2θ"
*MEAS_COND_AXIS_NAME-2 "ω"
*MEAS_COND_AXIS_NAME-3 "Z"
*MEAS_COND_AXIS_NAME-4 "2θ/ω"
*MEAS_COND_AXIS_NAME-5 "θs"
*MEAS_COND_AXIS_NAME-6 "θd"
*MEAS_COND_AXIS_NAME-7 "Ts"
*MEAS_COND_AXIS_NAME-8 "CBO選択スリット"
*MEAS_COND_AXIS_NAME-9 "M"
*MEAS_COND_AXIS_NAME-10 "入射平行スリット"
*MEAS_COND_AXIS_NAME-11 "入射スリット"
*MEAS_COND_AXIS_NAME-12 ""
*MEAS_COND_AXIS_NAME-13 "Zs"
*MEAS_COND_AXIS_NAME-14 "入射光学素子"
*MEAS_COND_AXIS_NAME-15 "長手制限スリット"
*MEAS_COND_AXIS_NAME-16 "センタースリット"
*MEAS_COND_AXIS_NAME-17 "フィルター"
*MEAS_COND_AXIS_NAME-18 "受光スリット1"
*MEAS_COND_AXIS_NAME-19 "受光スリット2"
*MEAS_COND_AXIS_NAME-20 "受光光学素子"
*MEAS_COND_AXIS_NAME-21 "受光平行スリット"
*MEAS_COND_AXIS_NAME-22 "調整用受光スリット"
*MEAS_COND_AXIS_NAME-23 ""
*MEAS_COND_AXIS_NAME-24 ""
*MEAS_COND_AXIS_NAME-25 "Zd"
*MEAS_COND_AXIS_NAME-26 "アッテネータ"
*MEAS_COND_AXIS_NAME-27 "検出器モノクロメータ"
*MEAS_COND_AXIS_NAME-28 "モノクロメータスリット"
*MEAS_COND_AXIS_NAME-29 "プライマリビーム"
*MEAS_COND_AXIS_NAME-30 "PHA"
*MEAS_COND_AXIS_NAME_INTERNAL-0 "TwoThetaTheta"
*MEAS_COND_AXIS_NAME_INTERNAL-1 "TwoTheta"
*MEAS_COND_AXIS_NAME_INTERNAL-2 "Omega"
*MEAS_COND_AXIS_NAME_INTERNAL-3 "Z"
*MEAS_COND_AXIS_NAME_INTERNAL-4 "TwoThetaOmega"
*MEAS_COND_AXIS_NAME_INTERNAL-5 "ThetaS"
*MEAS_COND_AXIS_NAME_INTERNAL-6 "ThetaD"
*MEAS_COND_AXIS_NAME_INTERNAL-7 "Ts"
*MEAS_COND_AXIS_NAME_INTERNAL-8 "CBO"
*MEAS_COND_AXIS_NAME_INTERNAL-9 "CBO-M"
*MEAS_COND_AXIS_NAME_INTERNAL-10 "IncidentSollerSlit"
*MEAS_COND_AXIS_NAME_INTERNAL-11 "IncidentSlitBox"
*MEAS_COND_AXIS_NAME_INTERNAL-12 "IncidentSlitBox-_Axis"
*MEAS_COND_AXIS_NAME_INTERNAL-13 "Zs"
*MEAS_COND_AXIS_NAME_INTERNAL-14 "IncidentMonochromator"
*MEAS_COND_AXIS_NAME_INTERNAL-15 "IncidentAxdSlit"
*MEAS_COND_AXIS_NAME_INTERNAL-16 "CenterSlit"
*MEAS_COND_AXIS_NAME_INTERNAL-17 "Filter"
*MEAS_COND_AXIS_NAME_INTERNAL-18 "ReceivingSlitBox1"
*MEAS_COND_AXIS_NAME_INTERNAL-19 "ReceivingSlitBox2"
*MEAS_COND_AXIS_NAME_INTERNAL-20 "ReceivingOptics"
*MEAS_COND_AXIS_NAME_INTERNAL-21 "ReceivingSollerSlit"
*MEAS_COND_AXIS_NAME_INTERNAL-22 "ReceivingAxdSlit"
*MEAS_COND_AXIS_NAME_INTERNAL-23 "ReceivingSlitBox1-_Axis"
*MEAS_COND_AXIS_NAME_INTERNAL-24 "ReceivingSlitBox2-_Axis"
*MEAS_COND_AXIS_NAME_INTERNAL-25 "ReceivingSlitBox2-Zd"
*MEAS_COND_AXIS_NAME_INTERNAL-26 "Attenuator"
*MEAS_COND_AXIS_NAME_INTERNAL-27 "CounterMonochromator"
*MEAS_COND_AXIS_NAME_INTERNAL-28 "CounterSlit"
*MEAS_COND_AXIS_NAME_INTERNAL-29 "IncidentPrimary"
*MEAS_COND_AXIS_NAME_INTERNAL-30 "PHA"
*MEAS_COND_AXIS_NAME_MAGICNO-0 "83951616.0000000000"
*MEAS_COND_AXIS_NAME_MAGICNO-1 "268632064.0000000000"
*MEAS_COND_AXIS_NAME_MAGICNO-2 "268500992.0000000000"
*MEAS_COND_AXIS_NAME_MAGICNO-3 "285278208.0000000000"
*MEAS_COND_AXIS_NAME_MAGICNO-4 "83951616.0000000000"
*MEAS_COND_AXIS_NAME_MAGICNO-5 "131072.0000000000"
*MEAS_COND_AXIS_NAME_MAGICNO-6 "131072.0000000000"
*MEAS_COND_AXIS_NAME_MAGICNO-7 "318898176.0000000000"
*MEAS_COND_AXIS_NAME_MAGICNO-8 "20971521.0000000000"
*MEAS_COND_AXIS_NAME_MAGICNO-9 "285343744.0000000000"
*MEAS_COND_AXIS_NAME_MAGICNO-10 "20971521.0000000000"
*MEAS_COND_AXIS_NAME_MAGICNO-11 "22020097.0000000000"
*MEAS_COND_AXIS_NAME_MAGICNO-12 "25165824.0000000000"
*MEAS_COND_AXIS_NAME_MAGICNO-13 "318898176.0000000000"
*MEAS_COND_AXIS_NAME_MAGICNO-14 "1.0000000000"
*MEAS_COND_AXIS_NAME_MAGICNO-15 "20971521.0000000000"
*MEAS_COND_AXIS_NAME_MAGICNO-16 "20971521.0000000000"
*MEAS_COND_AXIS_NAME_MAGICNO-17 "20971521.0000000000"
*MEAS_COND_AXIS_NAME_MAGICNO-18 "23068673.0000000000"
*MEAS_COND_AXIS_NAME_MAGICNO-19 "23068673.0000000000"
*MEAS_COND_AXIS_NAME_MAGICNO-20 "20971521.0000000000"
*MEAS_COND_AXIS_NAME_MAGICNO-21 "20971521.0000000000"
*MEAS_COND_AXIS_NAME_MAGICNO-22 "20971521.0000000000"
*MEAS_COND_AXIS_NAME_MAGICNO-23 "25165824.0000000000"
*MEAS_COND_AXIS_NAME_MAGICNO-24 "25165824.0000000000"
*MEAS_COND_AXIS_NAME_MAGICNO-25 "285343744.0000000000"
*MEAS_COND_AXIS_NAME_MAGICNO-26 "17301505.0000000000"
*MEAS_COND_AXIS_NAME_MAGICNO-27 "20971521.0000000000"
*MEAS_COND_AXIS_NAME_MAGICNO-28 "20971521.0000000000"
*MEAS_COND_AXIS_NAME_MAGICNO-29 "20971521.0000000000"
*MEAS_COND_AXIS_NAME_MAGICNO-30 "0.0000000000"
*MEAS_COND_AXIS_OFFSET-0 "-"
*MEAS_COND_AXIS_OFFSET-1 "-0.1081000000"
*MEAS_COND_AXIS_OFFSET-2 "0.3758000000"
*MEAS_COND_AXIS_OFFSET-3 "-"
*MEAS_COND_AXIS_OFFSET-4 "-"
*MEAS_COND_AXIS_OFFSET-5 "0.3758000000"
*MEAS_COND_AXIS_OFFSET-6 "-0.4839000000"
*MEAS_COND_AXIS_OFFSET-7 "-"
*MEAS_COND_AXIS_OFFSET-8 "-"
*MEAS_COND_AXIS_OFFSET-9 "-"
*MEAS_COND_AXIS_OFFSET-10 "-"
*MEAS_COND_AXIS_OFFSET-11 "-"
*MEAS_COND_AXIS_OFFSET-12 "-"
*MEAS_COND_AXIS_OFFSET-13 "-"
*MEAS_COND_AXIS_OFFSET-14 "-"
*MEAS_COND_AXIS_OFFSET-15 "-"
*MEAS_COND_AXIS_OFFSET-16 "-"
*MEAS_COND_AXIS_OFFSET-17 "-"
*MEAS_COND_AXIS_OFFSET-18 "-"
*MEAS_COND_AXIS_OFFSET-19 "-"
*MEAS_COND_AXIS_OFFSET-20 "-"
*MEAS_COND_AXIS_OFFSET-21 "-"
*MEAS_COND_AXIS_OFFSET-22 "-"
*MEAS_COND_AXIS_OFFSET-23 "-"
*MEAS_COND_AXIS_OFFSET-24 "-"
*MEAS_COND_AXIS_OFFSET-25 "-"
*MEAS_COND_AXIS_OFFSET-26 "-"
*MEAS_COND_AXIS_OFFSET-27 "-"
*MEAS_COND_AXIS_OFFSET-28 "-"
*MEAS_COND_AXIS_OFFSET-29 "-"
*MEAS_COND_AXIS_OFFSET-30 "-"
*MEAS_COND_AXIS_POSITION-0 "0.0000000000"
*MEAS_COND_AXIS_POSITION-1 "0.0000000000"
*MEAS_COND_AXIS_POSITION-2 "0.0000000000"
*MEAS_COND_AXIS_POSITION-3 "-0.5500000000"
*MEAS_COND_AXIS_POSITION-4 "0.0000000000"
*MEAS_COND_AXIS_POSITION-5 "0.0000000000"
*MEAS_COND_AXIS_POSITION-6 "0.0000000000"
*MEAS_COND_AXIS_POSITION-7 "-0.4278800000"
*MEAS_COND_AXIS_POSITION-8 "BB"
*MEAS_COND_AXIS_POSITION-9 "0.0000000000"
*MEAS_COND_AXIS_POSITION-10 "Soller_slit_5.0deg"
*MEAS_COND_AXIS_POSITION-11 "2/3deg"
*MEAS_COND_AXIS_POSITION-12 "2.2088000000"
*MEAS_COND_AXIS_POSITION-13 "-0.4140600000"
*MEAS_COND_AXIS_POSITION-14 "0.0000000000"
*MEAS_COND_AXIS_POSITION-15 "10.0mm"
*MEAS_COND_AXIS_POSITION-16 "None"
*MEAS_COND_AXIS_POSITION-17 "Cu_K-beta"
*MEAS_COND_AXIS_POSITION-18 "13.000mm"
*MEAS_COND_AXIS_POSITION-19 "13.000mm"
*MEAS_COND_AXIS_POSITION-20 "No_unit"
*MEAS_COND_AXIS_POSITION-21 "Soller_slit_5.0deg"
*MEAS_COND_AXIS_POSITION-22 "None"
*MEAS_COND_AXIS_POSITION-23 "13.0000000000"
*MEAS_COND_AXIS_POSITION-24 "13.0000000000"
*MEAS_COND_AXIS_POSITION-25 "0.0109400000"
*MEAS_COND_AXIS_POSITION-26 "Open"
*MEAS_COND_AXIS_POSITION-27 "None"
*MEAS_COND_AXIS_POSITION-28 "None"
*MEAS_COND_AXIS_POSITION-29 "None"
*MEAS_COND_AXIS_POSITION-30 "38.0000000000"
*MEAS_COND_AXIS_UNIT-0 "deg"
*MEAS_COND_AXIS_UNIT-1 "deg"
*MEAS_COND_AXIS_UNIT-2 "deg"
*MEAS_COND_AXIS_UNIT-3 "mm"
*MEAS_COND_AXIS_UNIT-4 "deg"
*MEAS_COND_AXIS_UNIT-5 "deg"
*MEAS_COND_AXIS_UNIT-6 "deg"
*MEAS_COND_AXIS_UNIT-7 "mm"
*MEAS_COND_AXIS_UNIT-8 ""
*MEAS_COND_AXIS_UNIT-9 "pulse"
*MEAS_COND_AXIS_UNIT-10 ""
*MEAS_COND_AXIS_UNIT-11 ""
*MEAS_COND_AXIS_UNIT-12 "mm"
*MEAS_COND_AXIS_UNIT-13 "mm"
*MEAS_COND_AXIS_UNIT-14 ""
*MEAS_COND_AXIS_UNIT-15 ""
*MEAS_COND_AXIS_UNIT-16 ""
*MEAS_COND_AXIS_UNIT-17 ""
*MEAS_COND_AXIS_UNIT-18 ""
*MEAS_COND_AXIS_UNIT-19 ""
*MEAS_COND_AXIS_UNIT-20 ""
*MEAS_COND_AXIS_UNIT-21 ""
*MEAS_COND_AXIS_UNIT-22 ""
*MEAS_COND_AXIS_UNIT-23 "mm"
*MEAS_COND_AXIS_UNIT-24 "mm"
*MEAS_COND_AXIS_UNIT-25 "mm"
*MEAS_COND_AXIS_UNIT-26 ""
*MEAS_COND_AXIS_UNIT-27 ""
*MEAS_COND_AXIS_UNIT-28 ""
*MEAS_COND_AXIS_UNIT-29 ""
*MEAS_COND_AXIS_UNIT-30 "div"
*MEAS_COND_COUNTER_CNTLOSS_CORR "0.0000000000"
*MEAS_COND_COUNTER_PHABASE "38.0000000000"
*MEAS_COND_COUNTER_PHAWINDOW "16.0000000000"
*MEAS_COND_COUNTER_PHA_UNIT "div"
*MEAS_COND_COUNTER_TAUDIFF "30.0000000000"
*MEAS_COND_COUNTER_TAUINT "0.0000000000"
*MEAS_COND_IRRADIATION_MODE "OFF"
*MEAS_COND_IRRADIATION_WIDTH ""
*MEAS_COND_OPT_ATTR "集中法"
*MEAS_COND_OPT_NAME "@集中法"
*MEAS_COND_UNSYMMETRIC_MODE "OFF"
*MEAS_COND_XG_CURRENT "30.0000000000"
*MEAS_COND_XG_VOLTAGE "40.0000000000"
*MEAS_COND_XG_WAVE_TYPE "Ka"
*MEAS_DATA_COUNT "5001.0000000000"
*MEAS_SCAN_AXIS_X "2θ/θ"
*MEAS_SCAN_AXIS_X_INTERNAL "TwoThetaTheta"
*MEAS_SCAN_END_TIME "07/12/21 15:07:02"
*MEAS_SCAN_MODE "CONTINUOUS"
*MEAS_SCAN_MONITOR "0"
*MEAS_SCAN_RESOLUTION_X "0.0002"
*MEAS_SCAN_SPEED "1.0"
*MEAS_SCAN_SPEED_UNIT "deg/min"
*MEAS_SCAN_START "20.0000000000"
*MEAS_SCAN_START_TIME "07/12/21 14:14:08"
*MEAS_SCAN_STEP "0.0100000000"
*MEAS_SCAN_STOP "70.0000000000"
*MEAS_SCAN_UNIT_X "deg"
*MEAS_SCAN_UNIT_Y "counts"
*RAS_HEADER_END
*RAS_INT_START
20.0000 1600.0000 1.0000
20.0100 1602.0000 1.0000
20.0200 1652.0000 1.0000
20.0300 1578.0000 1.0000
20.0400 1622.0000 1.0000
20.0500 1646.0000 1.0000
20.0600 1611.0000 1.0000
20.0700 1590.0000 1.0000
20.0800 1537.0000 1.0000
20.0900 1648.0000 1.0000
20.1000 1633.0000 1.0000
20.1100 1598.0000 1.0000
20.1200 1597.0000 1.0000
20.1300 1574.0000 1.0000
20.1400 1606.0000 1.0000
20.1500 1563.0000 1.0000
20.1600 1614.0000 1.0000
20.1700 1619.0000 1.0000
20.1800 1577.0000 1.0000
20.1900 1535.0000 1.0000
20.2000 1543.0000 1.0000
20.2100 1580.0000 1.0000
20.2200 1608.0000 1.0000
20.2300 1645.0000 1.0000
20.2400 1647.0000 1.0000
20.2500 1639.0000 1.0000
20.2600 1632.0000 1.0000
20.2700 1635.0000 1.0000
20.2800 1586.0000 1.0000
20.2900 1547.0000 1.0000
20.3000 1546.0000 1.0000
20.3100 1605.0000 1.0000
20.3200 1540.0000 1.0000
20.3300 1600.0000 1.0000
20.3400 1600.0000 1.0000
20.3500 1534.0000 1.0000
20.3600 1546.0000 1.0000
20.3700 1582.0000 1.0000
20.3800 1532.0000 1.0000
20.3900 1535.0000 1.0000
20.4000 1559.0000 1.0000
20.4100 1614.0000 1.0000
20.4200 1630.0000 1.0000
20.4300 1665.0000 1.0000
20.4400 1583.0000 1.0000
20.4500 1534.0000 1.0000
20.4600 1618.0000 1.0000
20.4700 1596.0000 1.0000
20.4800 1587.0000 1.0000
20.4900 1605.0000 1.0000
20.5000 1569.0000 1.0000
20.5100 1599.0000 1.0000
20.5200 1586.0000 1.0000
20.5300 1636.0000 1.0000
20.5400 1630.0000 1.0000
20.5500 1544.0000 1.0000
20.5600 1620.0000 1.0000
20.5700 1652.0000 1.0000
20.5800 1614.0000 1.0000
20.5900 1588.0000 1.0000
20.6000 1620.0000 1.0000
20.6100 1627.0000 1.0000
20.6200 1641.0000 1.0000
20.6300 1554.0000 1.0000
20.6400 1538.0000 1.0000
20.6500 1606.0000 1.0000
20.6600 1659.0000 1.0000
20.6700 1609.0000 1.0000
20.6800 1666.0000 1.0000
20.6900 1530.0000 1.0000
20.7000 1572.0000 1.0000
20.7100 1632.0000 1.0000
20.7200 1653.0000 1.0000
20.7300 1613.0000 1.0000
20.7400 1670.0000 1.0000
20.7500 1627.0000 1.0000
20.7600 1624.0000 1.0000
20.7700 1612.0000 1.0000
20.7800 1592.0000 1.0000
20.7900 1580.0000 1.0000
20.8000 1635.0000 1.0000
20.8100 1621.0000 1.0000
20.8200 1600.0000 1.0000
20.8300 1611.0000 1.0000
20.8400 1660.0000 1.0000
20.8500 1623.0000 1.0000
20.8600 1545.0000 1.0000
20.8700 1590.0000 1.0000
20.8800 1564.0000 1.0000
20.8900 1577.0000 1.0000
20.9000 1576.0000 1.0000
20.9100 1610.0000 1.0000
20.9200 1629.0000 1.0000
20.9300 1640.0000 1.0000
20.9400 1650.0000 1.0000
20.9500 1594.0000 1.0000
20.9600 1584.0000 1.0000
20.9700 1589.0000 1.0000
20.9800 1633.0000 1.0000
20.9900 1588.0000 1.0000
21.0000 1632.0000 1.0000
21.0100 1719.0000 1.0000
21.0200 1656.0000 1.0000
21.0300 1613.0000 1.0000
21.0400 1661.0000 1.0000
21.0500 1686.0000 1.0000
21.0600 1573.0000 1.0000
21.0700 1643.0000 1.0000
21.0800 1621.0000 1.0000
21.0900 1608.0000 1.0000
21.1000 1561.0000 1.0000
21.1100 1618.0000 1.0000
21.1200 1629.0000 1.0000
21.1300 1563.0000 1.0000
21.1400 1579.0000 1.0000
21.1500 1524.0000 1.0000
21.1600 1594.0000 1.0000
21.1700 1660.0000 1.0000
21.1800 1590.0000 1.0000
21.1900 1545.0000 1.0000
21.2000 1573.0000 1.0000
21.2100 1620.0000 1.0000
21.2200 1570.0000 1.0000
21.2300 1585.0000 1.0000
21.2400 1673.0000 1.0000
21.2500 1616.0000 1.0000
21.2600 1589.0000 1.0000
21.2700 1622.0000 1.0000
21.2800 1617.0000 1.0000
21.2900 1613.0000 1.0000
21.3000 1651.0000 1.0000
21.3100 1649.0000 1.0000
21.3200 1640.0000 1.0000
21.3300 1696.0000 1.0000
21.3400 1621.0000 1.0000
21.3500 1572.0000 1.0000
21.3600 1604.0000 1.0000
21.3700 1657.0000 1.0000
21.3800 1620.0000 1.0000
21.3900 1642.0000 1.0000
21.4000 1633.0000 1.0000
21.4100 1593.0000 1.0000
21.4200 1647.0000 1.0000
21.4300 1565.0000 1.0000
21.4400 1576.0000 1.0000
21.4500 1603.0000 1.0000
21.4600 1640.0000 1.0000
21.4700 1581.0000 1.0000
21.4800 1563.0000 1.0000
21.4900 1567.0000 1.0000
21.5000 1600.0000 1.0000
21.5100 1641.0000 1.0000
21.5200 1610.0000 1.0000
21.5300 1607.0000 1.0000
21.5400 1607.0000 1.0000
21.5500 1607.0000 1.0000
21.5600 1625.0000 1.0000
21.5700 1627.0000 1.0000
21.5800 1613.0000 1.0000
21.5900 1581.0000 1.0000
21.6000 1509.0000 1.0000
21.6100 1634.0000 1.0000
21.6200 1601.0000 1.0000
21.6300 1542.0000 1.0000
21.6400 1559.0000 1.0000
21.6500 1607.0000 1.0000
21.6600 1651.0000 1.0000
21.6700 1630.0000 1.0000
21.6800 1617.0000 1.0000
21.6900 1644.0000 1.0000
21.7000 1656.0000 1.0000
21.7100 1687.0000 1.0000
21.7200 1595.0000 1.0000
21.7300 1634.0000 1.0000
21.7400 1636.0000 1.0000
21.7500 1647.0000 1.0000
21.7600 1684.0000 1.0000
21.7700 1637.0000 1.0000
21.7800 1606.0000 1.0000
21.7900 1620.0000 1.0000
21.8000 1630.0000 1.0000
21.8100 1581.0000 1.0000
21.8200 1654.0000 1.0000
21.8300 1628.0000 1.0000
21.8400 1622.0000 1.0000
21.8500 1665.0000 1.0000
21.8600 1645.0000 1.0000
21.8700 1607.0000 1.0000
21.8800 1671.0000 1.0000
21.8900 1631.0000 1.0000
21.9000 1674.0000 1.0000
21.9100 1538.0000 1.0000
21.9200 1562.0000 1.0000
21.9300 1566.0000 1.0000
21.9400 1592.0000 1.0000
21.9500 1543.0000 1.0000
21.9600 1551.0000 1.0000
21.9700 1681.0000 1.0000
21.9800 1682.0000 1.0000
21.9900 1605.0000 1.0000
22.0000 1673.0000 1.0000
22.0100 1660.0000 1.0000
22.0200 1602.0000 1.0000
22.0300 1661.0000 1.0000
22.0400 1609.0000 1.0000
22.0500 1671.0000 1.0000
22.0600 1650.0000 1.0000
22.0700 1625.0000 1.0000
22.0800 1632.0000 1.0000
22.0900 1647.0000 1.0000
22.1000 1579.0000 1.0000
22.1100 1592.0000 1.0000
22.1200 1609.0000 1.0000
22.1300 1651.0000 1.0000
22.1400 1699.0000 1.0000
22.1500 1618.0000 1.0000
22.1600 1652.0000 1.0000
22.1700 1671.0000 1.0000
22.1800 1680.0000 1.0000
22.1900 1651.0000 1.0000
22.2000 1608.0000 1.0000
22.2100 1628.0000 1.0000
22.2200 1619.0000 1.0000
22.2300 1631.0000 1.0000
22.2400 1602.0000 1.0000
22.2500 1599.0000 1.0000
22.2600 1676.0000 1.0000
22.2700 1654.0000 1.0000
22.2800 1650.0000 1.0000
22.2900 1628.0000 1.0000
22.3000 1612.0000 1.0000
22.3100 1622.0000 1.0000
22.3200 1570.0000 1.0000
22.3300 1589.0000 1.0000
22.3400 1696.0000 1.0000
22.3500 1640.0000 1.0000
22.3600 1605.0000 1.0000
22.3700 1685.0000 1.0000
22.3800 1679.0000 1.0000
22.3900 1677.0000 1.0000
22.4000 1675.0000 1.0000
22.4100 1665.0000 1.0000
22.4200 1689.0000 1.0000
22.4300 1661.0000 1.0000
22.4400 1636.0000 1.0000
22.4500 1628.0000 1.0000
22.4600 1617.0000 1.0000
22.4700 1662.0000 1.0000
22.4800 1619.0000 1.0000
22.4900 1638.0000 1.0000
22.5000 1684.0000 1.0000
22.5100 1714.0000 1.0000
22.5200 1644.0000 1.0000
22.5300 1669.0000 1.0000
22.5400 1681.0000 1.0000
22.5500 1603.0000 1.0000
22.5600 1616.0000 1.0000
22.5700 1609.0000 1.0000
22.5800 1586.0000 1.0000
22.5900 1604.0000 1.0000
22.6000 1646.0000 1.0000
22.6100 1642.0000 1.0000
22.6200 1589.0000 1.0000
22.6300 1663.0000 1.0000
22.6400 1652.0000 1.0000
22.6500 1642.0000 1.0000
22.6600 1660.0000 1.0000
22.6700 1662.0000 1.0000
22.6800 1686.0000 1.0000
22.6900 1691.0000 1.0000
22.7000 1594.0000 1.0000
22.7100 1649.0000 1.0000
22.7200 1637.0000 1.0000
22.7300 1608.0000 1.0000
22.7400 1651.0000 1.0000
22.7500 1603.0000 1.0000
22.7600 1609.0000 1.0000
22.7700 1673.0000 1.0000
22.7800 1699.0000 1.0000
22.7900 1686.0000 1.0000
22.8000 1733.0000 1.0000
22.8100 1644.0000 1.0000
22.8200 1638.0000 1.0000
22.8300 1608.0000 1.0000
22.8400 1649.0000 1.0000
22.8500 1723.0000 1.0000
22.8600 1632.0000 1.0000
22.8700 1647.0000 1.0000
22.8800 1667.0000 1.0000
22.8900 1631.0000 1.0000
22.9000 1636.0000 1.0000
22.9100 1629.0000 1.0000
22.9200 1592.0000 1.0000
22.9300 1603.0000 1.0000
22.9400 1666.0000 1.0000
22.9500 1678.0000 1.0000
22.9600 1681.0000 1.0000
22.9700 1693.0000 1.0000
22.9800 1665.0000 1.0000
22.9900 1639.0000 1.0000
23.0000 1611.0000 1.0000
23.0100 1634.0000 1.0000
23.0200 1655.0000 1.0000
23.0300 1656.0000 1.0000
23.0400 1639.0000 1.0000
23.0500 1659.0000 1.0000
23.0600 1728.0000 1.0000
23.0700 1706.0000 1.0000
23.0800 1628.0000 1.0000
23.0900 1615.0000 1.0000
23.1000 1588.0000 1.0000
23.1100 1669.0000 1.0000
23.1200 1656.0000 1.0000
23.1300 1603.0000 1.0000
23.1400 1633.0000 1.0000
23.1500 1654.0000 1.0000
23.1600 1606.0000 1.0000
23.1700 1648.0000 1.0000
23.1800 1678.0000 1.0000
23.1900 1721.0000 1.0000
23.2000 1709.0000 1.0000
23.2100 1622.0000 1.0000
23.2200 1623.0000 1.0000
23.2300 1686.0000 1.0000
23.2400 1666.0000 1.0000
23.2500 1678.0000 1.0000
23.2600 1700.0000 1.0000
23.2700 1641.0000 1.0000
23.2800 1638.0000 1.0000
23.2900 1645.0000 1.0000
23.3000 1705.0000 1.0000
23.3100 1712.0000 1.0000
23.3200 1696.0000 1.0000
23.3300 1639.0000 1.0000
23.3400 1612.0000 1.0000
23.3500 1687.0000 1.0000
23.3600 1747.0000 1.0000
23.3700 1674.0000 1.0000
23.3800 1659.0000 1.0000
23.3900 1693.0000 1.0000
23.4000 1593.0000 1.0000
23.4100 1678.0000 1.0000
23.4200 1678.0000 1.0000
23.4300 1682.0000 1.0000
23.4400 1645.0000 1.0000
23.4500 1734.0000 1.0000
23.4600 1632.0000 1.0000
23.4700 1655.0000 1.0000
23.4800 1681.0000 1.0000
23.4900 1661.0000 1.0000
23.5000 1648.0000 1.0000
23.5100 1631.0000 1.0000
23.5200 1671.0000 1.0000
23.5300 1621.0000 1.0000
23.5400 1595.0000 1.0000
23.5500 1611.0000 1.0000
23.5600 1639.0000 1.0000
23.5700 1660.0000 1.0000
23.5800 1673.0000 1.0000
23.5900 1633.0000 1.0000
23.6000 1727.0000 1.0000
23.6100 1673.0000 1.0000
23.6200 1682.0000 1.0000
23.6300 1693.0000 1.0000
23.6400 1618.0000 1.0000
23.6500 1643.0000 1.0000
23.6600 1675.0000 1.0000
23.6700 1670.0000 1.0000
23.6800 1642.0000 1.0000
23.6900 1625.0000 1.0000
23.7000 1723.0000 1.0000
23.7100 1779.0000 1.0000
23.7200 1655.0000 1.0000
23.7300 1655.0000 1.0000
23.7400 1652.0000 1.0000
23.7500 1647.0000 1.0000
23.7600 1598.0000 1.0000
23.7700 1664.0000 1.0000
23.7800 1702.0000 1.0000
23.7900 1707.0000 1.0000
23.8000 1654.0000 1.0000
23.8100 1663.0000 1.0000
23.8200 1656.0000 1.0000
23.8300 1700.0000 1.0000
23.8400 1627.0000 1.0000
23.8500 1638.0000 1.0000
23.8600 1727.0000 1.0000
23.8700 1642.0000 1.0000
23.8800 1671.0000 1.0000
23.8900 1672.0000 1.0000
23.9000 1653.0000 1.0000
23.9100 1716.0000 1.0000
23.9200 1707.0000 1.0000
23.9300 1735.0000 1.0000
23.9400 1653.0000 1.0000
23.9500 1669.0000 1.0000
23.9600 1711.0000 1.0000
23.9700 1780.0000 1.0000
23.9800 1652.0000 1.0000
23.9900 1609.0000 1.0000
24.0000 1662.0000 1.0000
24.0100 1681.0000 1.0000
24.0200 1656.0000 1.0000
24.0300 1743.0000 1.0000
24.0400 1637.0000 1.0000
24.0500 1638.0000 1.0000
24.0600 1687.0000 1.0000
24.0700 1645.0000 1.0000
24.0800 1696.0000 1.0000
24.0900 1722.0000 1.0000
24.1000 1768.0000 1.0000
24.1100 1750.0000 1.0000
24.1200 1682.0000 1.0000
24.1300 1671.0000 1.0000
24.1400 1654.0000 1.0000
24.1500 1648.0000 1.0000
24.1600 1664.0000 1.0000
24.1700 1665.0000 1.0000
24.1800 1651.0000 1.0000
24.1900 1684.0000 1.0000
24.2000 1642.0000 1.0000
24.2100 1706.0000 1.0000
24.2200 1663.0000 1.0000
24.2300 1667.0000 1.0000
24.2400 1666.0000 1.0000
24.2500 1637.0000 1.0000
24.2600 1703.0000 1.0000
24.2700 1706.0000 1.0000
24.2800 1696.0000 1.0000
24.2900 1736.0000 1.0000
24.3000 1711.0000 1.0000
24.3100 1723.0000 1.0000
24.3200 1661.0000 1.0000
24.3300 1633.0000 1.0000
24.3400 1656.0000 1.0000
24.3500 1693.0000 1.0000
24.3600 1624.0000 1.0000
24.3700 1651.0000 1.0000
24.3800 1748.0000 1.0000
24.3900 1744.0000 1.0000
24.4000 1724.0000 1.0000
24.4100 1653.0000 1.0000
24.4200 1681.0000 1.0000
24.4300 1724.0000 1.0000
24.4400 1753.0000 1.0000
24.4500 1672.0000 1.0000
24.4600 1726.0000 1.0000
24.4700 1741.0000 1.0000
24.4800 1758.0000 1.0000
24.4900 1669.0000 1.0000
24.5000 1697.0000 1.0000
24.5100 1686.0000 1.0000
24.5200 1714.0000 1.0000
24.5300 1703.0000 1.0000
24.5400 1738.0000 1.0000
24.5500 1726.0000 1.0000
24.5600 1674.0000 1.0000
24.5700 1636.0000 1.0000
24.5800 1693.0000 1.0000
24.5900 1722.0000 1.0000
24.6000 1716.0000 1.0000
24.6100 1703.0000 1.0000
24.6200 1654.0000 1.0000
24.6300 1691.0000 1.0000
24.6400 1765.0000 1.0000
24.6500 1738.0000 1.0000
24.6600 1753.0000 1.0000
24.6700 1776.0000 1.0000
24.6800 1716.0000 1.0000
24.6900 1759.0000 1.0000
24.7000 1727.0000 1.0000
24.7100 1753.0000 1.0000
24.7200 1774.0000 1.0000
24.7300 1737.0000 1.0000
24.7400 1682.0000 1.0000
24.7500 1694.0000 1.0000
24.7600 1779.0000 1.0000
24.7700 1746.0000 1.0000
24.7800 1766.0000 1.0000
24.7900 1740.0000 1.0000
24.8000 1765.0000 1.0000
24.8100 1731.0000 1.0000
24.8200 1761.0000 1.0000
24.8300 1791.0000 1.0000
24.8400 1717.0000 1.0000
24.8500 1698.0000 1.0000
24.8600 1763.0000 1.0000
24.8700 1733.0000 1.0000
24.8800 1767.0000 1.0000
24.8900 1724.0000 1.0000
24.9000 1696.0000 1.0000
24.9100 1761.0000 1.0000
24.9200 1784.0000 1.0000
24.9300 1799.0000 1.0000
24.9400 1774.0000 1.0000
24.9500 1765.0000 1.0000
24.9600 1706.0000 1.0000
24.9700 1763.0000 1.0000
24.9800 1667.0000 1.0000
24.9900 1742.0000 1.0000
25.0000 1724.0000 1.0000
25.0100 1733.0000 1.0000
25.0200 1747.0000 1.0000
25.0300 1753.0000 1.0000
25.0400 1761.0000 1.0000
25.0500 1724.0000 1.0000
25.0600 1778.0000 1.0000
25.0700 1813.0000 1.0000
25.0800 1784.0000 1.0000
25.0900 1764.0000 1.0000
25.1000 1802.0000 1.0000
25.1100 1727.0000 1.0000
25.1200 1793.0000 1.0000
25.1300 1828.0000 1.0000
25.1400 1787.0000 1.0000
25.1500 1792.0000 1.0000
25.1600 1870.0000 1.0000
25.1700 1783.0000 1.0000
25.1800 1823.0000 1.0000
25.1900 1732.0000 1.0000
25.2000 1762.0000 1.0000
25.2100 1782.0000 1.0000
25.2200 1764.0000 1.0000
25.2300 1748.0000 1.0000
25.2400 1740.0000 1.0000
25.2500 1729.0000 1.0000
25.2600 1782.0000 1.0000
25.2700 1757.0000 1.0000
25.2800 1726.0000 1.0000
25.2900 1783.0000 1.0000
25.3000 1662.0000 1.0000
25.3100 1764.0000 1.0000
25.3200 1777.0000 1.0000
25.3300 1765.0000 1.0000
25.3400 1704.0000 1.0000
25.3500 1830.0000 1.0000
25.3600 1779.0000 1.0000
25.3700 1798.0000 1.0000
25.3800 1780.0000 1.0000
25.3900 1770.0000 1.0000
25.4000 1747.0000 1.0000
25.4100 1662.0000 1.0000
25.4200 1683.0000 1.0000
25.4300 1755.0000 1.0000
25.4400 1727.0000 1.0000
25.4500 1711.0000 1.0000
25.4600 1708.0000 1.0000
25.4700 1789.0000 1.0000
25.4800 1755.0000 1.0000
25.4900 1743.0000 1.0000
25.5000 1771.0000 1.0000
25.5100 1682.0000 1.0000
25.5200 1786.0000 1.0000
25.5300 1777.0000 1.0000
25.5400 1746.0000 1.0000
25.5500 1712.0000 1.0000
25.5600 1818.0000 1.0000
25.5700 1735.0000 1.0000
25.5800 1730.0000 1.0000
25.5900 1731.0000 1.0000
25.6000 1761.0000 1.0000
25.6100 1749.0000 1.0000
25.6200 1714.0000 1.0000
25.6300 1771.0000 1.0000
25.6400 1729.0000 1.0000
25.6500 1714.0000 1.0000
25.6600 1672.0000 1.0000
25.6700 1665.0000 1.0000
25.6800 1713.0000 1.0000
25.6900 1757.0000 1.0000
25.7000 1677.0000 1.0000
25.7100 1715.0000 1.0000
25.7200 1679.0000 1.0000
25.7300 1741.0000 1.0000
25.7400 1685.0000 1.0000
25.7500 1785.0000 1.0000
25.7600 1695.0000 1.0000
25.7700 1664.0000 1.0000
25.7800 1735.0000 1.0000
25.7900 1725.0000 1.0000
25.8000 1757.0000 1.0000
25.8100 1703.0000 1.0000
25.8200 1728.0000 1.0000
25.8300 1747.0000 1.0000
25.8400 1769.0000 1.0000
25.8500 1756.0000 1.0000
25.8600 1760.0000 1.0000
25.8700 1781.0000 1.0000
25.8800 1728.0000 1.0000
25.8900 1786.0000 1.0000
25.9000 1736.0000 1.0000
25.9100 1696.0000 1.0000
25.9200 1732.0000 1.0000
25.9300 1745.0000 1.0000
25.9400 1746.0000 1.0000
25.9500 1766.0000 1.0000
25.9600 1746.0000 1.0000
25.9700 1715.0000 1.0000
25.9800 1698.0000 1.0000
25.9900 1774.0000 1.0000
26.0000 1751.0000 1.0000
26.0100 1713.0000 1.0000
26.0200 1718.0000 1.0000
26.0300 1618.0000 1.0000
26.0400 1683.0000 1.0000
26.0500 1802.0000 1.0000
26.0600 1726.0000 1.0000
26.0700 1696.0000 1.0000
26.0800 1760.0000 1.0000
26.0900 1710.0000 1.0000
26.1000 1727.0000 1.0000
26.1100 1638.0000 1.0000
26.1200 1763.0000 1.0000
26.1300 1773.0000 1.0000
26.1400 1745.0000 1.0000
26.1500 1736.0000 1.0000
26.1600 1714.0000 1.0000
26.1700 1695.0000 1.0000
26.1800 1714.0000 1.0000
26.1900 1800.0000 1.0000
26.2000 1771.0000 1.0000
26.2100 1769.0000 1.0000
26.2200 1714.0000 1.0000
26.2300 1719.0000 1.0000
26.2400 1754.0000 1.0000
26.2500 1716.0000 1.0000
26.2600 1733.0000 1.0000
26.2700 1746.0000 1.0000
26.2800 1768.0000 1.0000
26.2900 1715.0000 1.0000
26.3000 1743.0000 1.0000
26.3100 1770.0000 1.0000
26.3200 1763.0000 1.0000
26.3300 1693.0000 1.0000
26.3400 1765.0000 1.0000
26.3500 1735.0000 1.0000
26.3600 1815.0000 1.0000
26.3700 1736.0000 1.0000
26.3800 1834.0000 1.0000
26.3900 1788.0000 1.0000
26.4000 1758.0000 1.0000
26.4100 1785.0000 1.0000
26.4200 1771.0000 1.0000
26.4300 1795.0000 1.0000
26.4400 1802.0000 1.0000
26.4500 1827.0000 1.0000
26.4600 1841.0000 1.0000
26.4700 1806.0000 1.0000
26.4800 1784.0000 1.0000
26.4900 1802.0000 1.0000
26.5000 1787.0000 1.0000
26.5100 1834.0000 1.0000
26.5200 1876.0000 1.0000
26.5300 1817.0000 1.0000
26.5400 1893.0000 1.0000
26.5500 1828.0000 1.0000
26.5600 1815.0000 1.0000
26.5700 1771.0000 1.0000
26.5800 1763.0000 1.0000
26.5900 1789.0000 1.0000
26.6000 1803.0000 1.0000
26.6100 1833.0000 1.0000
26.6200 1810.0000 1.0000
26.6300 1849.0000 1.0000
26.6400 1800.0000 1.0000
26.6500 1826.0000 1.0000
26.6600 1810.0000 1.0000
26.6700 1819.0000 1.0000
26.6800 1906.0000 1.0000
26.6900 1851.0000 1.0000
26.7000 1857.0000 1.0000
26.7100 1891.0000 1.0000
26.7200 1887.0000 1.0000
26.7300 1870.0000 1.0000
26.7400 1852.0000 1.0000
26.7500 1891.0000 1.0000
26.7600 1905.0000 1.0000
26.7700 1903.0000 1.0000
26.7800 1920.0000 1.0000
26.7900 1943.0000 1.0000
26.8000 1873.0000 1.0000
26.8100 1916.0000 1.0000
26.8200 1968.0000 1.0000
26.8300 1936.0000 1.0000
26.8400 1977.0000 1.0000
26.8500 1990.0000 1.0000
26.8600 1957.0000 1.0000
26.8700 1983.0000 1.0000
26.8800 2053.0000 1.0000
26.8900 2052.0000 1.0000
26.9000 2063.0000 1.0000
26.9100 2117.0000 1.0000
26.9200 2132.0000 1.0000
26.9300 2147.0000 1.0000
26.9400 2082.0000 1.0000
26.9500 2055.0000 1.0000
26.9600 2137.0000 1.0000
26.9700 2210.0000 1.0000
26.9800 2333.0000 1.0000
26.9900 2257.0000 1.0000
27.0000 2271.0000 1.0000
27.0100 2365.0000 1.0000
27.0200 2272.0000 1.0000
27.0300 2385.0000 1.0000
27.0400 2455.0000 1.0000
27.0500 2524.0000 1.0000
27.0600 2545.0000 1.0000
27.0700 2599.0000 1.0000
27.0800 2690.0000 1.0000
27.0900 2784.0000 1.0000
27.1000 2894.0000 1.0000
27.1100 2986.0000 1.0000
27.1200 3030.0000 1.0000
27.1300 3115.0000 1.0000
27.1400 3259.0000 1.0000
27.1500 3385.0000 1.0000
27.1600 3473.0000 1.0000
27.1700 3619.0000 1.0000
27.1800 3815.0000 1.0000
27.1900 3973.0000 1.0000
27.2000 4189.0000 1.0000
27.2100 4524.0000 1.0000
27.2200 4643.0000 1.0000
27.2300 4897.0000 1.0000
27.2400 5037.0000 1.0000
27.2500 5419.0000 1.0000
27.2600 5549.0000 1.0000
27.2700 5719.0000 1.0000
27.2800 5919.0000 1.0000
27.2900 6014.0000 1.0000
27.3000 6209.0000 1.0000
27.3100 6199.0000 1.0000
27.3200 6215.0000 1.0000
27.3300 6242.0000 1.0000
27.3400 6250.0000 1.0000
27.3500 6229.0000 1.0000
27.3600 5994.0000 1.0000
27.3700 5598.0000 1.0000
27.3800 5469.0000 1.0000
27.3900 5287.0000 1.0000
27.4000 4932.0000 1.0000
27.4100 4825.0000 1.0000
27.4200 4723.0000 1.0000
27.4300 4487.0000 1.0000
27.4400 4106.0000 1.0000
27.4500 3924.0000 1.0000
27.4600 3746.0000 1.0000
27.4700 3607.0000 1.0000
27.4800 3478.0000 1.0000
27.4900 3219.0000 1.0000
27.5000 3146.0000 1.0000
27.5100 3106.0000 1.0000
27.5200 2876.0000 1.0000
27.5300 2858.0000 1.0000
27.5400 2681.0000 1.0000
27.5500 2608.0000 1.0000
27.5600 2552.0000 1.0000
27.5700 2594.0000 1.0000
27.5800 2511.0000 1.0000
27.5900 2344.0000 1.0000
27.6000 2413.0000 1.0000
27.6100 2293.0000 1.0000
27.6200 2252.0000 1.0000
27.6300 2193.0000 1.0000
27.6400 2136.0000 1.0000
27.6500 2221.0000 1.0000
27.6600 2178.0000 1.0000
27.6700 2101.0000 1.0000
27.6800 2052.0000 1.0000
27.6900 2093.0000 1.0000
27.7000 2032.0000 1.0000
27.7100 2034.0000 1.0000
27.7200 1967.0000 1.0000
27.7300 1987.0000 1.0000
27.7400 1901.0000 1.0000
27.7500 2011.0000 1.0000
27.7600 1977.0000 1.0000
27.7700 1921.0000 1.0000
27.7800 1953.0000 1.0000
27.7900 1868.0000 1.0000
27.8000 1922.0000 1.0000
27.8100 1935.0000 1.0000
27.8200 1887.0000 1.0000
27.8300 1818.0000 1.0000
27.8400 1798.0000 1.0000
27.8500 1837.0000 1.0000
27.8600 1872.0000 1.0000
27.8700 1852.0000 1.0000
27.8800 1894.0000 1.0000
27.8900 1811.0000 1.0000
27.9000 1823.0000 1.0000
27.9100 1744.0000 1.0000
27.9200 1823.0000 1.0000
27.9300 1782.0000 1.0000
27.9400 1764.0000 1.0000
27.9500 1791.0000 1.0000
27.9600 1832.0000 1.0000
27.9700 1734.0000 1.0000
27.9800 1784.0000 1.0000
27.9900 1730.0000 1.0000
28.0000 1768.0000 1.0000
28.0100 1777.0000 1.0000
28.0200 1770.0000 1.0000
28.0300 1789.0000 1.0000
28.0400 1767.0000 1.0000
28.0500 1749.0000 1.0000
28.0600 1748.0000 1.0000
28.0700 1757.0000 1.0000
28.0800 1723.0000 1.0000
28.0900 1650.0000 1.0000
28.1000 1670.0000 1.0000
28.1100 1734.0000 1.0000
28.1200 1733.0000 1.0000
28.1300 1788.0000 1.0000
28.1400 1676.0000 1.0000
28.1500 1698.0000 1.0000
28.1600 1669.0000 1.0000
28.1700 1732.0000 1.0000
28.1800 1650.0000 1.0000
28.1900 1679.0000 1.0000
28.2000 1648.0000 1.0000
28.2100 1642.0000 1.0000
28.2200 1661.0000 1.0000
28.2300 1702.0000 1.0000
28.2400 1651.0000 1.0000
28.2500 1699.0000 1.0000
28.2600 1660.0000 1.0000
28.2700 1646.0000 1.0000
28.2800 1579.0000 1.0000
28.2900 1712.0000 1.0000
28.3000 1665.0000 1.0000
28.3100 1644.0000 1.0000
28.3200 1712.0000 1.0000
28.3300 1654.0000 1.0000
28.3400 1639.0000 1.0000
28.3500 1712.0000 1.0000
28.3600 1667.0000 1.0000
28.3700 1638.0000 1.0000
28.3800 1608.0000 1.0000
28.3900 1647.0000 1.0000
28.4000 1632.0000 1.0000
28.4100 1683.0000 1.0000
28.4200 1638.0000 1.0000
28.4300 1617.0000 1.0000
28.4400 1665.0000 1.0000
28.4500 1588.0000 1.0000
28.4600 1621.0000 1.0000
28.4700 1618.0000 1.0000
28.4800 1580.0000 1.0000
28.4900 1685.0000 1.0000
28.5000 1567.0000 1.0000
28.5100 1654.0000 1.0000
28.5200 1599.0000 1.0000
28.5300 1619.0000 1.0000
28.5400 1622.0000 1.0000
28.5500 1653.0000 1.0000
28.5600 1592.0000 1.0000
28.5700 1624.0000 1.0000
28.5800 1678.0000 1.0000
28.5900 1612.0000 1.0000
28.6000 1631.0000 1.0000
28.6100 1644.0000 1.0000
28.6200 1644.0000 1.0000
28.6300 1606.0000 1.0000
28.6400 1619.0000 1.0000
28.6500 1630.0000 1.0000
28.6600 1621.0000 1.0000
28.6700 1628.0000 1.0000
28.6800 1700.0000 1.0000
28.6900 1662.0000 1.0000
28.7000 1572.0000 1.0000
28.7100 1606.0000 1.0000
28.7200 1662.0000 1.0000
28.7300 1597.0000 1.0000
28.7400 1627.0000 1.0000
28.7500 1595.0000 1.0000
28.7600 1536.0000 1.0000
28.7700 1587.0000 1.0000
28.7800 1632.0000 1.0000
28.7900 1628.0000 1.0000
28.8000 1649.0000 1.0000
28.8100 1586.0000 1.0000
28.8200 1581.0000 1.0000
28.8300 1625.0000 1.0000
28.8400 1577.0000 1.0000
28.8500 1555.0000 1.0000
28.8600 1590.0000 1.0000
28.8700 1551.0000 1.0000
28.8800 1497.0000 1.0000
28.8900 1608.0000 1.0000
28.9000 1606.0000 1.0000
28.9100 1563.0000 1.0000
28.9200 1666.0000 1.0000
28.9300 1580.0000 1.0000
28.9400 1522.0000 1.0000
28.9500 1678.0000 1.0000
28.9600 1653.0000 1.0000
28.9700 1586.0000 1.0000
28.9800 1641.0000 1.0000
28.9900 1605.0000 1.0000
29.0000 1575.0000 1.0000
29.0100 1530.0000 1.0000
29.0200 1583.0000 1.0000
29.0300 1552.0000 1.0000
29.0400 1533.0000 1.0000
29.0500 1585.0000 1.0000
29.0600 1558.0000 1.0000
29.0700 1605.0000 1.0000
29.0800 1589.0000 1.0000
29.0900 1561.0000 1.0000
29.1000 1589.0000 1.0000
29.1100 1615.0000 1.0000
29.1200 1596.0000 1.0000
29.1300 1574.0000 1.0000
29.1400 1602.0000 1.0000
29.1500 1621.0000 1.0000
29.1600 1626.0000 1.0000
29.1700 1612.0000 1.0000
29.1800 1553.0000 1.0000
29.1900 1630.0000 1.0000
29.2000 1630.0000 1.0000
29.2100 1626.0000 1.0000
29.2200 1535.0000 1.0000
29.2300 1587.0000 1.0000
29.2400 1519.0000 1.0000
29.2500 1632.0000 1.0000
29.2600 1529.0000 1.0000
29.2700 1500.0000 1.0000
29.2800 1577.0000 1.0000
29.2900 1619.0000 1.0000
29.3000 1566.0000 1.0000
29.3100 1516.0000 1.0000
29.3200 1516.0000 1.0000
29.3300 1523.0000 1.0000
29.3400 1625.0000 1.0000
29.3500 1551.0000 1.0000
29.3600 1591.0000 1.0000
29.3700 1577.0000 1.0000
29.3800 1544.0000 1.0000
29.3900 1572.0000 1.0000
29.4000 1518.0000 1.0000
29.4100 1553.0000 1.0000
29.4200 1522.0000 1.0000
29.4300 1557.0000 1.0000
29.4400 1520.0000 1.0000
29.4500 1532.0000 1.0000
29.4600 1472.0000 1.0000
29.4700 1661.0000 1.0000
29.4800 1640.0000 1.0000
29.4900 1546.0000 1.0000
29.5000 1549.0000 1.0000
29.5100 1549.0000 1.0000
29.5200 1546.0000 1.0000
29.5300 1543.0000 1.0000
29.5400 1541.0000 1.0000
29.5500 1518.0000 1.0000
29.5600 1478.0000 1.0000
29.5700 1534.0000 1.0000
29.5800 1494.0000 1.0000
29.5900 1522.0000 1.0000
29.6000 1512.0000 1.0000
29.6100 1618.0000 1.0000
29.6200 1525.0000 1.0000
29.6300 1489.0000 1.0000
29.6400 1552.0000 1.0000
29.6500 1580.0000 1.0000
29.6600 1566.0000 1.0000
29.6700 1591.0000 1.0000
29.6800 1519.0000 1.0000
29.6900 1477.0000 1.0000
29.7000 1481.0000 1.0000
29.7100 1564.0000 1.0000
29.7200 1520.0000 1.0000
29.7300 1568.0000 1.0000
29.7400 1508.0000 1.0000
29.7500 1524.0000 1.0000
29.7600 1569.0000 1.0000
29.7700 1535.0000 1.0000
29.7800 1470.0000 1.0000
29.7900 1512.0000 1.0000
29.8000 1522.0000 1.0000
29.8100 1453.0000 1.0000
29.8200 1488.0000 1.0000
29.8300 1553.0000 1.0000
29.8400 1522.0000 1.0000
29.8500 1571.0000 1.0000
29.8600 1514.0000 1.0000
29.8700 1518.0000 1.0000
29.8800 1538.0000 1.0000
29.8900 1505.0000 1.0000
29.9000 1530.0000 1.0000
29.9100 1551.0000 1.0000
29.9200 1583.0000 1.0000
29.9300 1542.0000 1.0000
29.9400 1499.0000 1.0000
29.9500 1502.0000 1.0000
29.9600 1574.0000 1.0000
29.9700 1498.0000 1.0000
29.9800 1461.0000 1.0000
29.9900 1508.0000 1.0000
30.0000 1538.0000 1.0000
30.0100 1549.0000 1.0000
30.0200 1559.0000 1.0000
30.0300 1463.0000 1.0000
30.0400 1546.0000 1.0000
30.0500 1525.0000 1.0000
30.0600 1512.0000 1.0000
30.0700 1536.0000 1.0000
30.0800 1492.0000 1.0000
30.0900 1505.0000 1.0000
30.1000 1555.0000 1.0000
30.1100 1516.0000 1.0000
30.1200 1518.0000 1.0000
30.1300 1493.0000 1.0000
30.1400 1464.0000 1.0000
30.1500 1500.0000 1.0000
30.1600 1419.0000 1.0000
30.1700 1480.0000 1.0000
30.1800 1469.0000 1.0000
30.1900 1507.0000 1.0000
30.2000 1493.0000 1.0000
30.2100 1475.0000 1.0000
30.2200 1484.0000 1.0000
30.2300 1478.0000 1.0000
30.2400 1460.0000 1.0000
30.2500 1571.0000 1.0000
30.2600 1456.0000 1.0000
30.2700 1488.0000 1.0000
30.2800 1481.0000 1.0000
30.2900 1454.0000 1.0000
30.3000 1453.0000 1.0000
30.3100 1489.0000 1.0000
30.3200 1482.0000 1.0000
30.3300 1502.0000 1.0000
30.3400 1464.0000 1.0000
30.3500 1499.0000 1.0000
30.3600 1474.0000 1.0000
30.3700 1439.0000 1.0000
30.3800 1434.0000 1.0000
30.3900 1490.0000 1.0000
30.4000 1501.0000 1.0000
30.4100 1473.0000 1.0000
30.4200 1493.0000 1.0000
30.4300 1554.0000 1.0000
30.4400 1477.0000 1.0000
30.4500 1480.0000 1.0000
30.4600 1490.0000 1.0000
30.4700 1526.0000 1.0000
30.4800 1491.0000 1.0000
30.4900 1412.0000 1.0000
30.5000 1495.0000 1.0000
30.5100 1430.0000 1.0000
30.5200 1476.0000 1.0000
30.5300 1544.0000 1.0000
30.5400 1497.0000 1.0000
30.5500 1460.0000 1.0000
30.5600 1488.0000 1.0000
30.5700 1477.0000 1.0000
30.5800 1437.0000 1.0000
30.5900 1492.0000 1.0000
30.6000 1498.0000 1.0000
30.6100 1475.0000 1.0000
30.6200 1513.0000 1.0000
30.6300 1493.0000 1.0000
30.6400 1472.0000 1.0000
30.6500 1396.0000 1.0000
30.6600 1450.0000 1.0000
30.6700 1467.0000 1.0000
30.6800 1370.0000 1.0000
30.6900 1392.0000 1.0000
30.7000 1515.0000 1.0000
30.7100 1504.0000 1.0000
30.7200 1445.0000 1.0000
30.7300 1490.0000 1.0000
30.7400 1408.0000 1.0000
30.7500 1488.0000 1.0000
30.7600 1462.0000 1.0000
30.7700 1454.0000 1.0000
30.7800 1426.0000 1.0000
30.7900 1460.0000 1.0000
30.8000 1456.0000 1.0000
30.8100 1468.0000 1.0000
30.8200 1434.0000 1.0000
30.8300 1485.0000 1.0000
30.8400 1464.0000 1.0000
30.8500 1510.0000 1.0000
30.8600 1431.0000 1.0000
30.8700 1443.0000 1.0000
30.8800 1488.0000 1.0000
30.8900 1487.0000 1.0000
30.9000 1501.0000 1.0000
30.9100 1492.0000 1.0000
30.9200 1447.0000 1.0000
30.9300 1449.0000 1.0000
30.9400 1465.0000 1.0000
30.9500 1489.0000 1.0000
30.9600 1426.0000 1.0000
30.9700 1524.0000 1.0000
30.9800 1427.0000 1.0000
30.9900 1459.0000 1.0000
31.0000 1428.0000 1.0000
31.0100 1483.0000 1.0000
31.0200 1426.0000 1.0000
31.0300 1435.0000 1.0000
31.0400 1443.0000 1.0000
31.0500 1415.0000 1.0000
31.0600 1403.0000 1.0000
31.0700 1489.0000 1.0000
31.0800 1427.0000 1.0000
31.0900 1480.0000 1.0000
31.1000 1501.0000 1.0000
31.1100 1466.0000 1.0000
31.1200 1408.0000 1.0000
31.1300 1436.0000 1.0000
31.1400 1444.0000 1.0000
31.1500 1454.0000 1.0000
31.1600 1447.0000 1.0000
31.1700 1477.0000 1.0000
31.1800 1424.0000 1.0000
31.1900 1512.0000 1.0000
31.2000 1483.0000 1.0000
31.2100 1406.0000 1.0000
31.2200 1449.0000 1.0000
31.2300 1437.0000 1.0000
31.2400 1442.0000 1.0000
31.2500 1450.0000 1.0000
31.2600 1500.0000 1.0000
31.2700 1417.0000 1.0000
31.2800 1496.0000 1.0000
31.2900 1436.0000 1.0000
31.3000 1419.0000 1.0000
31.3100 1438.0000 1.0000
31.3200 1452.0000 1.0000
31.3300 1440.0000 1.0000
31.3400 1431.0000 1.0000
31.3500 1416.0000 1.0000
31.3600 1460.0000 1.0000
31.3700 1417.0000 1.0000
31.3800 1454.0000 1.0000
31.3900 1415.0000 1.0000
31.4000 1421.0000 1.0000
31.4100 1478.0000 1.0000
31.4200 1411.0000 1.0000
31.4300 1447.0000 1.0000
31.4400 1420.0000 1.0000
31.4500 1376.0000 1.0000
31.4600 1412.0000 1.0000
31.4700 1416.0000 1.0000
31.4800 1435.0000 1.0000
31.4900 1455.0000 1.0000
31.5000 1498.0000 1.0000
31.5100 1434.0000 1.0000
31.5200 1464.0000 1.0000
31.5300 1459.0000 1.0000
31.5400 1365.0000 1.0000
31.5500 1414.0000 1.0000
31.5600 1364.0000 1.0000
31.5700 1393.0000 1.0000
31.5800 1392.0000 1.0000
31.5900 1453.0000 1.0000
31.6000 1444.0000 1.0000
31.6100 1424.0000 1.0000
31.6200 1423.0000 1.0000
31.6300 1394.0000 1.0000
31.6400 1469.0000 1.0000
31.6500 1440.0000 1.0000
31.6600 1388.0000 1.0000
31.6700 1433.0000 1.0000
31.6800 1309.0000 1.0000
31.6900 1410.0000 1.0000
31.7000 1421.0000 1.0000
31.7100 1424.0000 1.0000
31.7200 1361.0000 1.0000
31.7300 1455.0000 1.0000
31.7400 1407.0000 1.0000
31.7500 1458.0000 1.0000
31.7600 1401.0000 1.0000
31.7700 1362.0000 1.0000
31.7800 1454.0000 1.0000
31.7900 1439.0000 1.0000
31.8000 1439.0000 1.0000
31.8100 1427.0000 1.0000
31.8200 1440.0000 1.0000
31.8300 1371.0000 1.0000
31.8400 1390.0000 1.0000
31.8500 1474.0000 1.0000
31.8600 1446.0000 1.0000
31.8700 1421.0000 1.0000
31.8800 1397.0000 1.0000
31.8900 1437.0000 1.0000
31.9000 1420.0000 1.0000
31.9100 1397.0000 1.0000
31.9200 1464.0000 1.0000
31.9300 1446.0000 1.0000
31.9400 1435.0000 1.0000
31.9500 1437.0000 1.0000
31.9600 1543.0000 1.0000
31.9700 1453.0000 1.0000
31.9800 1428.0000 1.0000
31.9900 1468.0000 1.0000
32.0000 1452.0000 1.0000
32.0100 1359.0000 1.0000
32.0200 1415.0000 1.0000
32.0300 1447.0000 1.0000
32.0400 1460.0000 1.0000
32.0500 1450.0000 1.0000
32.0600 1490.0000 1.0000
32.0700 1443.0000 1.0000
32.0800 1441.0000 1.0000
32.0900 1366.0000 1.0000
32.1000 1418.0000 1.0000
32.1100 1424.0000 1.0000
32.1200 1388.0000 1.0000
32.1300 1395.0000 1.0000
32.1400 1413.0000 1.0000
32.1500 1419.0000 1.0000
32.1600 1449.0000 1.0000
32.1700 1415.0000 1.0000
32.1800 1427.0000 1.0000
32.1900 1411.0000 1.0000
32.2000 1417.0000 1.0000
32.2100 1394.0000 1.0000
32.2200 1360.0000 1.0000
32.2300 1407.0000 1.0000
32.2400 1371.0000 1.0000
32.2500 1420.0000 1.0000
32.2600 1457.0000 1.0000
32.2700 1418.0000 1.0000
32.2800 1403.0000 1.0000
32.2900 1381.0000 1.0000
32.3000 1423.0000 1.0000
32.3100 1378.0000 1.0000
32.3200 1423.0000 1.0000
32.3300 1379.0000 1.0000
32.3400 1414.0000 1.0000
32.3500 1407.0000 1.0000
32.3600 1366.0000 1.0000
32.3700 1341.0000 1.0000
32.3800 1366.0000 1.0000
32.3900 1411.0000 1.0000
32.4000 1392.0000 1.0000
32.4100 1358.0000 1.0000
32.4200 1348.0000 1.0000
32.4300 1385.0000 1.0000
32.4400 1363.0000 1.0000
32.4500 1385.0000 1.0000
32.4600 1376.0000 1.0000
32.4700 1382.0000 1.0000
32.4800 1398.0000 1.0000
32.4900 1391.0000 1.0000
32.5000 1369.0000 1.0000
32.5100 1417.0000 1.0000
32.5200 1386.0000 1.0000
32.5300 1414.0000 1.0000
32.5400 1420.0000 1.0000
32.5500 1419.0000 1.0000
32.5600 1364.0000 1.0000
32.5700 1330.0000 1.0000
32.5800 1371.0000 1.0000
32.5900 1436.0000 1.0000
32.6000 1325.0000 1.0000
32.6100 1331.0000 1.0000
32.6200 1385.0000 1.0000
32.6300 1357.0000 1.0000
32.6400 1316.0000 1.0000
32.6500 1366.0000 1.0000
32.6600 1312.0000 1.0000
32.6700 1347.0000 1.0000
32.6800 1333.0000 1.0000
32.6900 1392.0000 1.0000
32.7000 1344.0000 1.0000
32.7100 1354.0000 1.0000
32.7200 1338.0000 1.0000
32.7300 1392.0000 1.0000
32.7400 1317.0000 1.0000
32.7500 1360.0000 1.0000
32.7600 1388.0000 1.0000
32.7700 1382.0000 1.0000
32.7800 1387.0000 1.0000
32.7900 1341.0000 1.0000
32.8000 1360.0000 1.0000
32.8100 1292.0000 1.0000
32.8200 1375.0000 1.0000
32.8300 1372.0000 1.0000
32.8400 1349.0000 1.0000
32.8500 1302.0000 1.0000
32.8600 1376.0000 1.0000
32.8700 1344.0000 1.0000
32.8800 1383.0000 1.0000
32.8900 1370.0000 1.0000
32.9000 1306.0000 1.0000
32.9100 1276.0000 1.0000
32.9200 1375.0000 1.0000
32.9300 1308.0000 1.0000
32.9400 1320.0000 1.0000
32.9500 1312.0000 1.0000
32.9600 1318.0000 1.0000
32.9700 1290.0000 1.0000
32.9800 1299.0000 1.0000
32.9900 1365.0000 1.0000
33.0000 1328.0000 1.0000
33.0100 1377.0000 1.0000
33.0200 1343.0000 1.0000
33.0300 1347.0000 1.0000
33.0400 1383.0000 1.0000
33.0500 1343.0000 1.0000
33.0600 1348.0000 1.0000
33.0700 1407.0000 1.0000
33.0800 1376.0000 1.0000
33.0900 1393.0000 1.0000
33.1000 1352.0000 1.0000
33.1100 1351.0000 1.0000
33.1200 1340.0000 1.0000
33.1300 1293.0000 1.0000
33.1400 1376.0000 1.0000
33.1500 1311.0000 1.0000
33.1600 1359.0000 1.0000
33.1700 1306.0000 1.0000
33.1800 1327.0000 1.0000
33.1900 1348.0000 1.0000
33.2000 1285.0000 1.0000
33.2100 1334.0000 1.0000
33.2200 1338.0000 1.0000
33.2300 1385.0000 1.0000
33.2400 1361.0000 1.0000
33.2500 1299.0000 1.0000
33.2600 1334.0000 1.0000
33.2700 1359.0000 1.0000
33.2800 1335.0000 1.0000
33.2900 1320.0000 1.0000
33.3000 1356.0000 1.0000
33.3100 1288.0000 1.0000
33.3200 1306.0000 1.0000
33.3300 1342.0000 1.0000
33.3400 1352.0000 1.0000
33.3500 1311.0000 1.0000
33.3600 1383.0000 1.0000
33.3700 1395.0000 1.0000
33.3800 1367.0000 1.0000
33.3900 1398.0000 1.0000
33.4000 1310.0000 1.0000
33.4100 1342.0000 1.0000
33.4200 1330.0000 1.0000
33.4300 1316.0000 1.0000
33.4400 1374.0000 1.0000
33.4500 1365.0000 1.0000
33.4600 1318.0000 1.0000
33.4700 1317.0000 1.0000
33.4800 1363.0000 1.0000
33.4900 1242.0000 1.0000
33.5000 1294.0000 1.0000
33.5100 1327.0000 1.0000
33.5200 1305.0000 1.0000
33.5300 1354.0000 1.0000
33.5400 1315.0000 1.0000
33.5500 1348.0000 1.0000
33.5600 1312.0000 1.0000
33.5700 1369.0000 1.0000
33.5800 1388.0000 1.0000
33.5900 1411.0000 1.0000
33.6000 1372.0000 1.0000
33.6100 1303.0000 1.0000
33.6200 1337.0000 1.0000
33.6300 1377.0000 1.0000
33.6400 1351.0000 1.0000
33.6500 1351.0000 1.0000
33.6600 1350.0000 1.0000
33.6700 1352.0000 1.0000
33.6800 1366.0000 1.0000
33.6900 1362.0000 1.0000
33.7000 1359.0000 1.0000
33.7100 1299.0000 1.0000
33.7200 1431.0000 1.0000
33.7300 1402.0000 1.0000
33.7400 1345.0000 1.0000
33.7500 1400.0000 1.0000
33.7600 1389.0000 1.0000
33.7700 1424.0000 1.0000
33.7800 1424.0000 1.0000
33.7900 1406.0000 1.0000
33.8000 1396.0000 1.0000
33.8100 1438.0000 1.0000
33.8200 1440.0000 1.0000
33.8300 1462.0000 1.0000
33.8400 1474.0000 1.0000
33.8500 1413.0000 1.0000
33.8600 1468.0000 1.0000
33.8700 1455.0000 1.0000
33.8800 1412.0000 1.0000
33.8900 1448.0000 1.0000
33.9000 1425.0000 1.0000
33.9100 1458.0000 1.0000
33.9200 1494.0000 1.0000
33.9300 1481.0000 1.0000
33.9400 1476.0000 1.0000
33.9500 1499.0000 1.0000
33.9600 1517.0000 1.0000
33.9700 1503.0000 1.0000
33.9800 1442.0000 1.0000
33.9900 1496.0000 1.0000
34.0000 1480.0000 1.0000
34.0100 1504.0000 1.0000
34.0200 1516.0000 1.0000
34.0300 1483.0000 1.0000
34.0400 1486.0000 1.0000
34.0500 1443.0000 1.0000
34.0600 1545.0000 1.0000
34.0700 1510.0000 1.0000
34.0800 1512.0000 1.0000
34.0900 1444.0000 1.0000
34.1000 1539.0000 1.0000
34.1100 1546.0000 1.0000
34.1200 1514.0000 1.0000
34.1300 1425.0000 1.0000
34.1400 1466.0000 1.0000
34.1500 1450.0000 1.0000
34.1600 1507.0000 1.0000
34.1700 1519.0000 1.0000
34.1800 1575.0000 1.0000
34.1900 1488.0000 1.0000
34.2000 1478.0000 1.0000
34.2100 1576.0000 1.0000
34.2200 1559.0000 1.0000
34.2300 1519.0000 1.0000
34.2400 1576.0000 1.0000
34.2500 1628.0000 1.0000
34.2600 1583.0000 1.0000
34.2700 1624.0000 1.0000
34.2800 1669.0000 1.0000
34.2900 1671.0000 1.0000
34.3000 1599.0000 1.0000
34.3100 1780.0000 1.0000
34.3200 1749.0000 1.0000
34.3300 1771.0000 1.0000
34.3400 1943.0000 1.0000
34.3500 1916.0000 1.0000
34.3600 1933.0000 1.0000
34.3700 2045.0000 1.0000
34.3800 2034.0000 1.0000
34.3900 2035.0000 1.0000
34.4000 2214.0000 1.0000
34.4100 2221.0000 1.0000
34.4200 2332.0000 1.0000
34.4300 2429.0000 1.0000
34.4400 2488.0000 1.0000
34.4500 2577.0000 1.0000
34.4600 2636.0000 1.0000
34.4700 2644.0000 1.0000
34.4800 2725.0000 1.0000
34.4900 2740.0000 1.0000
34.5000 2830.0000 1.0000
34.5100 2819.0000 1.0000
34.5200 2757.0000 1.0000
34.5300 2663.0000 1.0000
34.5400 2786.0000 1.0000
34.5500 2752.0000 1.0000
34.5600 2688.0000 1.0000
34.5700 2615.0000 1.0000
34.5800 2527.0000 1.0000
34.5900 2533.0000 1.0000
34.6000 2456.0000 1.0000
34.6100 2318.0000 1.0000
34.6200 2383.0000 1.0000
34.6300 2244.0000 1.0000
34.6400 2255.0000 1.0000
34.6500 2101.0000 1.0000
34.6600 2032.0000 1.0000
34.6700 2007.0000 1.0000
34.6800 1943.0000 1.0000
34.6900 1862.0000 1.0000
34.7000 1809.0000 1.0000
34.7100 1848.0000 1.0000
34.7200 1754.0000 1.0000
34.7300 1748.0000 1.0000
34.7400 1686.0000 1.0000
34.7500 1662.0000 1.0000
34.7600 1681.0000 1.0000
34.7700 1682.0000 1.0000
34.7800 1638.0000 1.0000
34.7900 1563.0000 1.0000
34.8000 1578.0000 1.0000
34.8100 1527.0000 1.0000
34.8200 1507.0000 1.0000
34.8300 1527.0000 1.0000
34.8400 1504.0000 1.0000
34.8500 1520.0000 1.0000
34.8600 1477.0000 1.0000
34.8700 1400.0000 1.0000
34.8800 1367.0000 1.0000
34.8900 1354.0000 1.0000
34.9000 1446.0000 1.0000
34.9100 1395.0000 1.0000
34.9200 1378.0000 1.0000
34.9300 1445.0000 1.0000
34.9400 1341.0000 1.0000
34.9500 1371.0000 1.0000
34.9600 1312.0000 1.0000
34.9700 1320.0000 1.0000
34.9800 1320.0000 1.0000
34.9900 1299.0000 1.0000
35.0000 1242.0000 1.0000
35.0100 1313.0000 1.0000
35.0200 1286.0000 1.0000
35.0300 1315.0000 1.0000
35.0400 1283.0000 1.0000
35.0500 1324.0000 1.0000
35.0600 1303.0000 1.0000
35.0700 1319.0000 1.0000
35.0800 1299.0000 1.0000
35.0900 1281.0000 1.0000
35.1000 1258.0000 1.0000
35.1100 1220.0000 1.0000
35.1200 1254.0000 1.0000
35.1300 1229.0000 1.0000
35.1400 1263.0000 1.0000
35.1500 1268.0000 1.0000
35.1600 1298.0000 1.0000
35.1700 1264.0000 1.0000
35.1800 1282.0000 1.0000
35.1900 1193.0000 1.0000
35.2000 1226.0000 1.0000
35.2100 1219.0000 1.0000
35.2200 1237.0000 1.0000
35.2300 1239.0000 1.0000
35.2400 1287.0000 1.0000
35.2500 1243.0000 1.0000
35.2600 1270.0000 1.0000
35.2700 1291.0000 1.0000
35.2800 1229.0000 1.0000
35.2900 1215.0000 1.0000
35.3000 1212.0000 1.0000
35.3100 1262.0000 1.0000
35.3200 1230.0000 1.0000
35.3300 1246.0000 1.0000
35.3400 1248.0000 1.0000
35.3500 1272.0000 1.0000
35.3600 1252.0000 1.0000
35.3700 1229.0000 1.0000
35.3800 1223.0000 1.0000
35.3900 1195.0000 1.0000
35.4000 1195.0000 1.0000
35.4100 1165.0000 1.0000
35.4200 1220.0000 1.0000
35.4300 1284.0000 1.0000
35.4400 1216.0000 1.0000
35.4500 1212.0000 1.0000
35.4600 1173.0000 1.0000
35.4700 1243.0000 1.0000
35.4800 1186.0000 1.0000
35.4900 1202.0000 1.0000
35.5000 1226.0000 1.0000
35.5100 1197.0000 1.0000
35.5200 1223.0000 1.0000
35.5300 1222.0000 1.0000
35.5400 1179.0000 1.0000
35.5500 1135.0000 1.0000
35.5600 1142.0000 1.0000
35.5700 1187.0000 1.0000
35.5800 1247.0000 1.0000
35.5900 1189.0000 1.0000
35.6000 1146.0000 1.0000
35.6100 1181.0000 1.0000
35.6200 1231.0000 1.0000
35.6300 1162.0000 1.0000
35.6400 1171.0000 1.0000
35.6500 1182.0000 1.0000
35.6600 1176.0000 1.0000
35.6700 1221.0000 1.0000
35.6800 1212.0000 1.0000
35.6900 1166.0000 1.0000
35.7000 1166.0000 1.0000
35.7100 1184.0000 1.0000
35.7200 1206.0000 1.0000
35.7300 1170.0000 1.0000
35.7400 1171.0000 1.0000
35.7500 1171.0000 1.0000
35.7600 1164.0000 1.0000
35.7700 1188.0000 1.0000
35.7800 1176.0000 1.0000
35.7900 1187.0000 1.0000
35.8000 1165.0000 1.0000
35.8100 1164.0000 1.0000
35.8200 1157.0000 1.0000
35.8300 1165.0000 1.0000
35.8400 1137.0000 1.0000
35.8500 1139.0000 1.0000
35.8600 1191.0000 1.0000
35.8700 1163.0000 1.0000
35.8800 1170.0000 1.0000
35.8900 1196.0000 1.0000
35.9000 1211.0000 1.0000
35.9100 1163.0000 1.0000
35.9200 1205.0000 1.0000
35.9300 1186.0000 1.0000
35.9400 1195.0000 1.0000
35.9500 1207.0000 1.0000
35.9600 1140.0000 1.0000
35.9700 1204.0000 1.0000
35.9800 1152.0000 1.0000
35.9900 1187.0000 1.0000
36.0000 1170.0000 1.0000
36.0100 1244.0000 1.0000
36.0200 1205.0000 1.0000
36.0300 1186.0000 1.0000
36.0400 1210.0000 1.0000
36.0500 1210.0000 1.0000
36.0600 1277.0000 1.0000
36.0700 1226.0000 1.0000
36.0800 1193.0000 1.0000
36.0900 1222.0000 1.0000
36.1000 1238.0000 1.0000
36.1100 1261.0000 1.0000
36.1200 1234.0000 1.0000
36.1300 1263.0000 1.0000
36.1400 1364.0000 1.0000
36.1500 1306.0000 1.0000
36.1600 1322.0000 1.0000
36.1700 1350.0000 1.0000
36.1800 1390.0000 1.0000
36.1900 1329.0000 1.0000
36.2000 1333.0000 1.0000
36.2100 1367.0000 1.0000
36.2200 1402.0000 1.0000
36.2300 1405.0000 1.0000
36.2400 1478.0000 1.0000
36.2500 1514.0000 1.0000
36.2600 1502.0000 1.0000
36.2700 1564.0000 1.0000
36.2800 1640.0000 1.0000
36.2900 1690.0000 1.0000
36.3000 1597.0000 1.0000
36.3100 1685.0000 1.0000
36.3200 1794.0000 1.0000
36.3300 1795.0000 1.0000
36.3400 1869.0000 1.0000
36.3500 1949.0000 1.0000
36.3600 1977.0000 1.0000
36.3700 1989.0000 1.0000
36.3800 2051.0000 1.0000
36.3900 2054.0000 1.0000
36.4000 2079.0000 1.0000
36.4100 2132.0000 1.0000
36.4200 2106.0000 1.0000
36.4300 2136.0000 1.0000
36.4400 2133.0000 1.0000
36.4500 2130.0000 1.0000
36.4600 2123.0000 1.0000
36.4700 2046.0000 1.0000
36.4800 1958.0000 1.0000
36.4900 1998.0000 1.0000
36.5000 1976.0000 1.0000
36.5100 1996.0000 1.0000
36.5200 1972.0000 1.0000
36.5300 1906.0000 1.0000
36.5400 1837.0000 1.0000
36.5500 1796.0000 1.0000
36.5600 1687.0000 1.0000
36.5700 1675.0000 1.0000
36.5800 1631.0000 1.0000
36.5900 1542.0000 1.0000
36.6000 1593.0000 1.0000
36.6100 1539.0000 1.0000
36.6200 1518.0000 1.0000
36.6300 1487.0000 1.0000
36.6400 1455.0000 1.0000
36.6500 1426.0000 1.0000
36.6600 1381.0000 1.0000
36.6700 1375.0000 1.0000
36.6800 1274.0000 1.0000
36.6900 1284.0000 1.0000
36.7000 1257.0000 1.0000
36.7100 1260.0000 1.0000
36.7200 1192.0000 1.0000
36.7300 1269.0000 1.0000
36.7400 1162.0000 1.0000
36.7500 1198.0000 1.0000
36.7600 1185.0000 1.0000
36.7700 1226.0000 1.0000
36.7800 1201.0000 1.0000
36.7900 1202.0000 1.0000
36.8000 1144.0000 1.0000
36.8100 1141.0000 1.0000
36.8200 1140.0000 1.0000
36.8300 1132.0000 1.0000
36.8400 1118.0000 1.0000
36.8500 1157.0000 1.0000
36.8600 1165.0000 1.0000
36.8700 1133.0000 1.0000
36.8800 1130.0000 1.0000
36.8900 1086.0000 1.0000
36.9000 1127.0000 1.0000
36.9100 1133.0000 1.0000
36.9200 1136.0000 1.0000
36.9300 1103.0000 1.0000
36.9400 1142.0000 1.0000
36.9500 1112.0000 1.0000
36.9600 1127.0000 1.0000
36.9700 1085.0000 1.0000
36.9800 1101.0000 1.0000
36.9900 1059.0000 1.0000
37.0000 1034.0000 1.0000
37.0100 1068.0000 1.0000
37.0200 1106.0000 1.0000
37.0300 1095.0000 1.0000
37.0400 1068.0000 1.0000
37.0500 1107.0000 1.0000
37.0600 1138.0000 1.0000
37.0700 1086.0000 1.0000
37.0800 1086.0000 1.0000
37.0900 1103.0000 1.0000
37.1000 1151.0000 1.0000
37.1100 1077.0000 1.0000
37.1200 1020.0000 1.0000
37.1300 1077.0000 1.0000
37.1400 1108.0000 1.0000
37.1500 1114.0000 1.0000
37.1600 1050.0000 1.0000
37.1700 1125.0000 1.0000
37.1800 1134.0000 1.0000
37.1900 1140.0000 1.0000
37.2000 1071.0000 1.0000
37.2100 1091.0000 1.0000
37.2200 1073.0000 1.0000
37.2300 1081.0000 1.0000
37.2400 1170.0000 1.0000
37.2500 1149.0000 1.0000
37.2600 1101.0000 1.0000
37.2700 1124.0000 1.0000
37.2800 1106.0000 1.0000
37.2900 1098.0000 1.0000
37.3000 1105.0000 1.0000
37.3100 1118.0000 1.0000
37.3200 1069.0000 1.0000
37.3300 1122.0000 1.0000
37.3400 1049.0000 1.0000
37.3500 1060.0000 1.0000
37.3600 1112.0000 1.0000
37.3700 1072.0000 1.0000
37.3800 1108.0000 1.0000
37.3900 1093.0000 1.0000
37.4000 1143.0000 1.0000
37.4100 1075.0000 1.0000
37.4200 1108.0000 1.0000
37.4300 1073.0000 1.0000
37.4400 1086.0000 1.0000
37.4500 1057.0000 1.0000
37.4600 1067.0000 1.0000
37.4700 1058.0000 1.0000
37.4800 1067.0000 1.0000
37.4900 1112.0000 1.0000
37.5000 1093.0000 1.0000
37.5100 1110.0000 1.0000
37.5200 1069.0000 1.0000
37.5300 1069.0000 1.0000
37.5400 1080.0000 1.0000
37.5500 1023.0000 1.0000
37.5600 1080.0000 1.0000
37.5700 1096.0000 1.0000
37.5800 1161.0000 1.0000
37.5900 1066.0000 1.0000
37.6000 1070.0000 1.0000
37.6100 1051.0000 1.0000
37.6200 1096.0000 1.0000
37.6300 1077.0000 1.0000
37.6400 1070.0000 1.0000
37.6500 1097.0000 1.0000
37.6600 1063.0000 1.0000
37.6700 1101.0000 1.0000
37.6800 1063.0000 1.0000
37.6900 1142.0000 1.0000
37.7000 1053.0000 1.0000
37.7100 1075.0000 1.0000
37.7200 1106.0000 1.0000
37.7300 1055.0000 1.0000
37.7400 1058.0000 1.0000
37.7500 1095.0000 1.0000
37.7600 1082.0000 1.0000
37.7700 1085.0000 1.0000
37.7800 1128.0000 1.0000
37.7900 1144.0000 1.0000
37.8000 1113.0000 1.0000
37.8100 1096.0000 1.0000
37.8200 1114.0000 1.0000
37.8300 1092.0000 1.0000
37.8400 1045.0000 1.0000
37.8500 1096.0000 1.0000
37.8600 1088.0000 1.0000
37.8700 1105.0000 1.0000
37.8800 1138.0000 1.0000
37.8900 1116.0000 1.0000
37.9000 1138.0000 1.0000
37.9100 1102.0000 1.0000
37.9200 1136.0000 1.0000
37.9300 1145.0000 1.0000
37.9400 1124.0000 1.0000
37.9500 1126.0000 1.0000
37.9600 1183.0000 1.0000
37.9700 1140.0000 1.0000
37.9800 1164.0000 1.0000
37.9900 1155.0000 1.0000
38.0000 1161.0000 1.0000
38.0100 1162.0000 1.0000
38.0200 1199.0000 1.0000
38.0300 1192.0000 1.0000
38.0400 1184.0000 1.0000
38.0500 1162.0000 1.0000
38.0600 1196.0000 1.0000
38.0700 1192.0000 1.0000
38.0800 1258.0000 1.0000
38.0900 1281.0000 1.0000
38.1000 1287.0000 1.0000
38.1100 1321.0000 1.0000
38.1200 1352.0000 1.0000
38.1300 1255.0000 1.0000
38.1400 1283.0000 1.0000
38.1500 1331.0000 1.0000
38.1600 1371.0000 1.0000
38.1700 1397.0000 1.0000
38.1800 1423.0000 1.0000
38.1900 1357.0000 1.0000
38.2000 1402.0000 1.0000
38.2100 1482.0000 1.0000
38.2200 1545.0000 1.0000
38.2300 1560.0000 1.0000
38.2400 1594.0000 1.0000
38.2500 1592.0000 1.0000
38.2600 1712.0000 1.0000
38.2700 1771.0000 1.0000
38.2800 1802.0000 1.0000
38.2900 1908.0000 1.0000
38.3000 2017.0000 1.0000
38.3100 2030.0000 1.0000
38.3200 2182.0000 1.0000
38.3300 2277.0000 1.0000
38.3400 2339.0000 1.0000
38.3500 2439.0000 1.0000
38.3600 2605.0000 1.0000
38.3700 2638.0000 1.0000
38.3800 2887.0000 1.0000
38.3900 3064.0000 1.0000
38.4000 3232.0000 1.0000
38.4100 3385.0000 1.0000
38.4200 3640.0000 1.0000
38.4300 3990.0000 1.0000
38.4400 4272.0000 1.0000
38.4500 4561.0000 1.0000
38.4600 4992.0000 1.0000
38.4700 5184.0000 1.0000
38.4800 5535.0000 1.0000
38.4900 5845.0000 1.0000
38.5000 6142.0000 1.0000
38.5100 6568.0000 1.0000
38.5200 6778.0000 1.0000
38.5300 6921.0000 1.0000
38.5400 7098.0000 1.0000
38.5500 7162.0000 1.0000
38.5600 7070.0000 1.0000
38.5700 7241.0000 1.0000
38.5800 7053.0000 1.0000
38.5900 6912.0000 1.0000
38.6000 6712.0000 1.0000
38.6100 6649.0000 1.0000
38.6200 6444.0000 1.0000
38.6300 6182.0000 1.0000
38.6400 5932.0000 1.0000
38.6500 5622.0000 1.0000
38.6600 5346.0000 1.0000
38.6700 5099.0000 1.0000
38.6800 4817.0000 1.0000
38.6900 4601.0000 1.0000
38.7000 4177.0000 1.0000
38.7100 3923.0000 1.0000
38.7200 3724.0000 1.0000
38.7300 3526.0000 1.0000
38.7400 3203.0000 1.0000
38.7500 3010.0000 1.0000
38.7600 2806.0000 1.0000
38.7700 2741.0000 1.0000
38.7800 2589.0000 1.0000
38.7900 2382.0000 1.0000
38.8000 2358.0000 1.0000
38.8100 2199.0000 1.0000
38.8200 2040.0000 1.0000
38.8300 1956.0000 1.0000
38.8400 1806.0000 1.0000
38.8500 1781.0000 1.0000
38.8600 1773.0000 1.0000
38.8700 1686.0000 1.0000
38.8800 1573.0000 1.0000
38.8900 1634.0000 1.0000
38.9000 1544.0000 1.0000
38.9100 1462.0000 1.0000
38.9200 1441.0000 1.0000
38.9300 1357.0000 1.0000
38.9400 1329.0000 1.0000
38.9500 1315.0000 1.0000
38.9600 1259.0000 1.0000
38.9700 1299.0000 1.0000
38.9800 1268.0000 1.0000
38.9900 1249.0000 1.0000
39.0000 1237.0000 1.0000
39.0100 1218.0000 1.0000
39.0200 1206.0000 1.0000
39.0300 1211.0000 1.0000
39.0400 1149.0000 1.0000
39.0500 1158.0000 1.0000
39.0600 1160.0000 1.0000
39.0700 1131.0000 1.0000
39.0800 1101.0000 1.0000
39.0900 1129.0000 1.0000
39.1000 1102.0000 1.0000
39.1100 1164.0000 1.0000
39.1200 1118.0000 1.0000
39.1300 1118.0000 1.0000
39.1400 1059.0000 1.0000
39.1500 1052.0000 1.0000
39.1600 1119.0000 1.0000
39.1700 1061.0000 1.0000
39.1800 1051.0000 1.0000
39.1900 1055.0000 1.0000
39.2000 1042.0000 1.0000
39.2100 1041.0000 1.0000
39.2200 1043.0000 1.0000
39.2300 1035.0000 1.0000
39.2400 1017.0000 1.0000
39.2500 1062.0000 1.0000
39.2600 968.0000 1.0000
39.2700 1002.0000 1.0000
39.2800 1003.0000 1.0000
39.2900 1001.0000 1.0000
39.3000 980.0000 1.0000
39.3100 992.0000 1.0000
39.3200 996.0000 1.0000
39.3300 988.0000 1.0000
39.3400 992.0000 1.0000
39.3500 993.0000 1.0000
39.3600 1016.0000 1.0000
39.3700 1012.0000 1.0000
39.3800 995.0000 1.0000
39.3900 987.0000 1.0000
39.4000 1014.0000 1.0000
39.4100 992.0000 1.0000
39.4200 994.0000 1.0000
39.4300 1021.0000 1.0000
39.4400 1007.0000 1.0000
39.4500 995.0000 1.0000
39.4600 995.0000 1.0000
39.4700 1026.0000 1.0000
39.4800 1023.0000 1.0000
39.4900 1024.0000 1.0000
39.5000 995.0000 1.0000
39.5100 1073.0000 1.0000
39.5200 1036.0000 1.0000
39.5300 1038.0000 1.0000
39.5400 1018.0000 1.0000
39.5500 1001.0000 1.0000
39.5600 1018.0000 1.0000
39.5700 993.0000 1.0000
39.5800 1012.0000 1.0000
39.5900 1033.0000 1.0000
39.6000 991.0000 1.0000
39.6100 1028.0000 1.0000
39.6200 1026.0000 1.0000
39.6300 1025.0000 1.0000
39.6400 976.0000 1.0000
39.6500 1018.0000 1.0000
39.6600 1009.0000 1.0000
39.6700 1001.0000 1.0000
39.6800 1011.0000 1.0000
39.6900 973.0000 1.0000
39.7000 969.0000 1.0000
39.7100 937.0000 1.0000
39.7200 952.0000 1.0000
39.7300 1068.0000 1.0000
39.7400 1026.0000 1.0000
39.7500 979.0000 1.0000
39.7600 980.0000 1.0000
39.7700 929.0000 1.0000
39.7800 922.0000 1.0000
39.7900 949.0000 1.0000
39.8000 974.0000 1.0000
39.8100 955.0000 1.0000
39.8200 980.0000 1.0000
39.8300 998.0000 1.0000
39.8400 962.0000 1.0000
39.8500 995.0000 1.0000
39.8600 932.0000 1.0000
39.8700 878.0000 1.0000
39.8800 919.0000 1.0000
39.8900 955.0000 1.0000
39.9000 928.0000 1.0000
39.9100 931.0000 1.0000
39.9200 908.0000 1.0000
39.9300 934.0000 1.0000
39.9400 944.0000 1.0000
39.9500 928.0000 1.0000
39.9600 924.0000 1.0000
39.9700 950.0000 1.0000
39.9800 999.0000 1.0000
39.9900 978.0000 1.0000
40.0000 887.0000 1.0000
40.0100 960.0000 1.0000
40.0200 886.0000 1.0000
40.0300 900.0000 1.0000
40.0400 889.0000 1.0000
40.0500 961.0000 1.0000
40.0600 955.0000 1.0000
40.0700 926.0000 1.0000
40.0800 929.0000 1.0000
40.0900 953.0000 1.0000
40.1000 908.0000 1.0000
40.1100 921.0000 1.0000
40.1200 916.0000 1.0000
40.1300 882.0000 1.0000
40.1400 946.0000 1.0000
40.1500 913.0000 1.0000
40.1600 877.0000 1.0000
40.1700 864.0000 1.0000
40.1800 916.0000 1.0000
40.1900 985.0000 1.0000
40.2000 903.0000 1.0000
40.2100 915.0000 1.0000
40.2200 902.0000 1.0000
40.2300 921.0000 1.0000
40.2400 936.0000 1.0000
40.2500 877.0000 1.0000
40.2600 928.0000 1.0000
40.2700 923.0000 1.0000
40.2800 929.0000 1.0000
40.2900 912.0000 1.0000
40.3000 898.0000 1.0000
40.3100 890.0000 1.0000
40.3200 895.0000 1.0000
40.3300 889.0000 1.0000
40.3400 888.0000 1.0000
40.3500 946.0000 1.0000
40.3600 956.0000 1.0000
40.3700 934.0000 1.0000
40.3800 947.0000 1.0000
40.3900 889.0000 1.0000
40.4000 941.0000 1.0000
40.4100 925.0000 1.0000
40.4200 892.0000 1.0000
40.4300 882.0000 1.0000
40.4400 954.0000 1.0000
40.4500 903.0000 1.0000
40.4600 929.0000 1.0000
40.4700 959.0000 1.0000
40.4800 880.0000 1.0000
40.4900 928.0000 1.0000
40.5000 920.0000 1.0000
40.5100 907.0000 1.0000
40.5200 899.0000 1.0000
40.5300 918.0000 1.0000
40.5400 978.0000 1.0000
40.5500 899.0000 1.0000
40.5600 957.0000 1.0000
40.5700 898.0000 1.0000
40.5800 892.0000 1.0000
40.5900 892.0000 1.0000
40.6000 927.0000 1.0000
40.6100 880.0000 1.0000
40.6200 925.0000 1.0000
40.6300 952.0000 1.0000
40.6400 934.0000 1.0000
40.6500 930.0000 1.0000
40.6600 903.0000 1.0000
40.6700 947.0000 1.0000
40.6800 881.0000 1.0000
40.6900 892.0000 1.0000
40.7000 863.0000 1.0000
40.7100 902.0000 1.0000
40.7200 873.0000 1.0000
40.7300 914.0000 1.0000
40.7400 915.0000 1.0000
40.7500 889.0000 1.0000
40.7600 882.0000 1.0000
40.7700 908.0000 1.0000
40.7800 918.0000 1.0000
40.7900 903.0000 1.0000
40.8000 942.0000 1.0000
40.8100 887.0000 1.0000
40.8200 878.0000 1.0000
40.8300 882.0000 1.0000
40.8400 906.0000 1.0000
40.8500 835.0000 1.0000
40.8600 870.0000 1.0000
40.8700 879.0000 1.0000
40.8800 932.0000 1.0000
40.8900 900.0000 1.0000
40.9000 913.0000 1.0000
40.9100 884.0000 1.0000
40.9200 910.0000 1.0000
40.9300 926.0000 1.0000
40.9400 870.0000 1.0000
40.9500 915.0000 1.0000
40.9600 885.0000 1.0000
40.9700 903.0000 1.0000
40.9800 876.0000 1.0000
40.9900 927.0000 1.0000
41.0000 878.0000 1.0000
41.0100 918.0000 1.0000
41.0200 889.0000 1.0000
41.0300 894.0000 1.0000
41.0400 888.0000 1.0000
41.0500 875.0000 1.0000
41.0600 876.0000 1.0000
41.0700 838.0000 1.0000
41.0800 895.0000 1.0000
41.0900 868.0000 1.0000
41.1000 868.0000 1.0000
41.1100 933.0000 1.0000
41.1200 895.0000 1.0000
41.1300 927.0000 1.0000
41.1400 932.0000 1.0000
41.1500 871.0000 1.0000
41.1600 888.0000 1.0000
41.1700 881.0000 1.0000
41.1800 885.0000 1.0000
41.1900 872.0000 1.0000
41.2000 861.0000 1.0000
41.2100 850.0000 1.0000
41.2200 910.0000 1.0000
41.2300 853.0000 1.0000
41.2400 846.0000 1.0000
41.2500 860.0000 1.0000
41.2600 931.0000 1.0000
41.2700 949.0000 1.0000
41.2800 901.0000 1.0000
41.2900 887.0000 1.0000
41.3000 867.0000 1.0000
41.3100 858.0000 1.0000
41.3200 890.0000 1.0000
41.3300 886.0000 1.0000
41.3400 915.0000 1.0000
41.3500 895.0000 1.0000
41.3600 873.0000 1.0000
41.3700 894.0000 1.0000
41.3800 910.0000 1.0000
41.3900 914.0000 1.0000
41.4000 889.0000 1.0000
41.4100 895.0000 1.0000
41.4200 844.0000 1.0000
41.4300 901.0000 1.0000
41.4400 911.0000 1.0000
41.4500 888.0000 1.0000
41.4600 862.0000 1.0000
41.4700 883.0000 1.0000
41.4800 909.0000 1.0000
41.4900 851.0000 1.0000
41.5000 943.0000 1.0000
41.5100 870.0000 1.0000
41.5200 949.0000 1.0000
41.5300 873.0000 1.0000
41.5400 907.0000 1.0000
41.5500 912.0000 1.0000
41.5600 906.0000 1.0000
41.5700 891.0000 1.0000
41.5800 902.0000 1.0000
41.5900 908.0000 1.0000
41.6000 908.0000 1.0000
41.6100 911.0000 1.0000
41.6200 948.0000 1.0000
41.6300 876.0000 1.0000
41.6400 899.0000 1.0000
41.6500 886.0000 1.0000
41.6600 868.0000 1.0000
41.6700 875.0000 1.0000
41.6800 952.0000 1.0000
41.6900 889.0000 1.0000
41.7000 875.0000 1.0000
41.7100 903.0000 1.0000
41.7200 941.0000 1.0000
41.7300 883.0000 1.0000
41.7400 874.0000 1.0000
41.7500 923.0000 1.0000
41.7600 892.0000 1.0000
41.7700 899.0000 1.0000
41.7800 875.0000 1.0000
41.7900 891.0000 1.0000
41.8000 914.0000 1.0000
41.8100 898.0000 1.0000
41.8200 867.0000 1.0000
41.8300 913.0000 1.0000
41.8400 878.0000 1.0000
41.8500 911.0000 1.0000
41.8600 931.0000 1.0000
41.8700 894.0000 1.0000
41.8800 868.0000 1.0000
41.8900 904.0000 1.0000
41.9000 866.0000 1.0000
41.9100 859.0000 1.0000
41.9200 914.0000 1.0000
41.9300 901.0000 1.0000
41.9400 934.0000 1.0000
41.9500 897.0000 1.0000
41.9600 885.0000 1.0000
41.9700 894.0000 1.0000
41.9800 879.0000 1.0000
41.9900 899.0000 1.0000
42.0000 855.0000 1.0000
42.0100 880.0000 1.0000
42.0200 863.0000 1.0000
42.0300 906.0000 1.0000
42.0400 888.0000 1.0000
42.0500 910.0000 1.0000
42.0600 865.0000 1.0000
42.0700 859.0000 1.0000
42.0800 875.0000 1.0000
42.0900 877.0000 1.0000
42.1000 910.0000 1.0000
42.1100 904.0000 1.0000
42.1200 890.0000 1.0000
42.1300 886.0000 1.0000
42.1400 889.0000 1.0000
42.1500 858.0000 1.0000
42.1600 880.0000 1.0000
42.1700 885.0000 1.0000
42.1800 853.0000 1.0000
42.1900 844.0000 1.0000
42.2000 886.0000 1.0000
42.2100 851.0000 1.0000
42.2200 912.0000 1.0000
42.2300 921.0000 1.0000
42.2400 871.0000 1.0000
42.2500 871.0000 1.0000
42.2600 904.0000 1.0000
42.2700 898.0000 1.0000
42.2800 845.0000 1.0000
42.2900 828.0000 1.0000
42.3000 869.0000 1.0000
42.3100 869.0000 1.0000
42.3200 884.0000 1.0000
42.3300 888.0000 1.0000
42.3400 845.0000 1.0000
42.3500 887.0000 1.0000
42.3600 846.0000 1.0000
42.3700 844.0000 1.0000
42.3800 878.0000 1.0000
42.3900 879.0000 1.0000
42.4000 864.0000 1.0000
42.4100 871.0000 1.0000
42.4200 877.0000 1.0000
42.4300 857.0000 1.0000
42.4400 856.0000 1.0000
42.4500 867.0000 1.0000
42.4600 837.0000 1.0000
42.4700 860.0000 1.0000
42.4800 834.0000 1.0000
42.4900 858.0000 1.0000
42.5000 886.0000 1.0000
42.5100 831.0000 1.0000
42.5200 893.0000 1.0000
42.5300 853.0000 1.0000
42.5400 893.0000 1.0000
42.5500 897.0000 1.0000
42.5600 897.0000 1.0000
42.5700 861.0000 1.0000
42.5800 886.0000 1.0000
42.5900 840.0000 1.0000
42.6000 872.0000 1.0000
42.6100 859.0000 1.0000
42.6200 844.0000 1.0000
42.6300 807.0000 1.0000
42.6400 861.0000 1.0000
42.6500 881.0000 1.0000
42.6600 895.0000 1.0000
42.6700 838.0000 1.0000
42.6800 880.0000 1.0000
42.6900 875.0000 1.0000
42.7000 857.0000 1.0000
42.7100 852.0000 1.0000
42.7200 857.0000 1.0000
42.7300 873.0000 1.0000
42.7400 911.0000 1.0000
42.7500 856.0000 1.0000
42.7600 889.0000 1.0000
42.7700 900.0000 1.0000
42.7800 895.0000 1.0000
42.7900 851.0000 1.0000
42.8000 879.0000 1.0000
42.8100 897.0000 1.0000
42.8200 871.0000 1.0000
42.8300 879.0000 1.0000
42.8400 948.0000 1.0000
42.8500 848.0000 1.0000
42.8600 839.0000 1.0000
42.8700 899.0000 1.0000
42.8800 850.0000 1.0000
42.8900 871.0000 1.0000
42.9000 884.0000 1.0000
42.9100 861.0000 1.0000
42.9200 857.0000 1.0000
42.9300 894.0000 1.0000
42.9400 912.0000 1.0000
42.9500 867.0000 1.0000
42.9600 902.0000 1.0000
42.9700 908.0000 1.0000
42.9800 885.0000 1.0000
42.9900 894.0000 1.0000
43.0000 884.0000 1.0000
43.0100 861.0000 1.0000
43.0200 836.0000 1.0000
43.0300 844.0000 1.0000
43.0400 865.0000 1.0000
43.0500 868.0000 1.0000
43.0600 891.0000 1.0000
43.0700 874.0000 1.0000
43.0800 893.0000 1.0000
43.0900 954.0000 1.0000
43.1000 896.0000 1.0000
43.1100 900.0000 1.0000
43.1200 919.0000 1.0000
43.1300 927.0000 1.0000
43.1400 928.0000 1.0000
43.1500 875.0000 1.0000
43.1600 920.0000 1.0000
43.1700 945.0000 1.0000
43.1800 946.0000 1.0000
43.1900 906.0000 1.0000
43.2000 938.0000 1.0000
43.2100 938.0000 1.0000
43.2200 921.0000 1.0000
43.2300 966.0000 1.0000
43.2400 984.0000 1.0000
43.2500 943.0000 1.0000
43.2600 932.0000 1.0000
43.2700 889.0000 1.0000
43.2800 954.0000 1.0000
43.2900 989.0000 1.0000
43.3000 981.0000 1.0000
43.3100 906.0000 1.0000
43.3200 911.0000 1.0000
43.3300 913.0000 1.0000
43.3400 972.0000 1.0000
43.3500 952.0000 1.0000
43.3600 967.0000 1.0000
43.3700 959.0000 1.0000
43.3800 922.0000 1.0000
43.3900 944.0000 1.0000
43.4000 950.0000 1.0000
43.4100 920.0000 1.0000
43.4200 848.0000 1.0000
43.4300 917.0000 1.0000
43.4400 946.0000 1.0000
43.4500 910.0000 1.0000
43.4600 924.0000 1.0000
43.4700 907.0000 1.0000
43.4800 913.0000 1.0000
43.4900 915.0000 1.0000
43.5000 867.0000 1.0000
43.5100 869.0000 1.0000
43.5200 898.0000 1.0000
43.5300 844.0000 1.0000
43.5400 837.0000 1.0000
43.5500 890.0000 1.0000
43.5600 838.0000 1.0000
43.5700 884.0000 1.0000
43.5800 894.0000 1.0000
43.5900 887.0000 1.0000
43.6000 853.0000 1.0000
43.6100 853.0000 1.0000
43.6200 894.0000 1.0000
43.6300 879.0000 1.0000
43.6400 875.0000 1.0000
43.6500 844.0000 1.0000
43.6600 832.0000 1.0000
43.6700 887.0000 1.0000
43.6800 866.0000 1.0000
43.6900 840.0000 1.0000
43.7000 845.0000 1.0000
43.7100 867.0000 1.0000
43.7200 903.0000 1.0000
43.7300 870.0000 1.0000
43.7400 837.0000 1.0000
43.7500 866.0000 1.0000
43.7600 854.0000 1.0000
43.7700 863.0000 1.0000
43.7800 877.0000 1.0000
43.7900 872.0000 1.0000
43.8000 882.0000 1.0000
43.8100 913.0000 1.0000
43.8200 855.0000 1.0000
43.8300 852.0000 1.0000
43.8400 831.0000 1.0000
43.8500 865.0000 1.0000
43.8600 864.0000 1.0000
43.8700 865.0000 1.0000
43.8800 810.0000 1.0000
43.8900 831.0000 1.0000
43.9000 855.0000 1.0000
43.9100 861.0000 1.0000
43.9200 858.0000 1.0000
43.9300 845.0000 1.0000
43.9400 839.0000 1.0000
43.9500 832.0000 1.0000
43.9600 832.0000 1.0000
43.9700 894.0000 1.0000
43.9800 865.0000 1.0000
43.9900 831.0000 1.0000
44.0000 819.0000 1.0000
44.0100 797.0000 1.0000
44.0200 803.0000 1.0000
44.0300 825.0000 1.0000
44.0400 824.0000 1.0000
44.0500 870.0000 1.0000
44.0600 885.0000 1.0000
44.0700 840.0000 1.0000
44.0800 868.0000 1.0000
44.0900 811.0000 1.0000
44.1000 827.0000 1.0000
44.1100 843.0000 1.0000
44.1200 841.0000 1.0000
44.1300 855.0000 1.0000
44.1400 844.0000 1.0000
44.1500 838.0000 1.0000
44.1600 812.0000 1.0000
44.1700 876.0000 1.0000
44.1800 855.0000 1.0000
44.1900 841.0000 1.0000
44.2000 792.0000 1.0000
44.2100 802.0000 1.0000
44.2200 874.0000 1.0000
44.2300 858.0000 1.0000
44.2400 844.0000 1.0000
44.2500 854.0000 1.0000
44.2600 834.0000 1.0000
44.2700 839.0000 1.0000
44.2800 870.0000 1.0000
44.2900 829.0000 1.0000
44.3000 852.0000 1.0000
44.3100 828.0000 1.0000
44.3200 868.0000 1.0000
44.3300 836.0000 1.0000
44.3400 899.0000 1.0000
44.3500 851.0000 1.0000
44.3600 870.0000 1.0000
44.3700 846.0000 1.0000
44.3800 874.0000 1.0000
44.3900 823.0000 1.0000
44.4000 861.0000 1.0000
44.4100 871.0000 1.0000
44.4200 886.0000 1.0000
44.4300 841.0000 1.0000
44.4400 846.0000 1.0000
44.4500 869.0000 1.0000
44.4600 856.0000 1.0000
44.4700 830.0000 1.0000
44.4800 828.0000 1.0000
44.4900 835.0000 1.0000
44.5000 863.0000 1.0000
44.5100 855.0000 1.0000
44.5200 852.0000 1.0000
44.5300 829.0000 1.0000
44.5400 865.0000 1.0000
44.5500 843.0000 1.0000
44.5600 854.0000 1.0000
44.5700 860.0000 1.0000
44.5800 876.0000 1.0000
44.5900 817.0000 1.0000
44.6000 811.0000 1.0000
44.6100 855.0000 1.0000
44.6200 845.0000 1.0000
44.6300 844.0000 1.0000
44.6400 812.0000 1.0000
44.6500 845.0000 1.0000
44.6600 825.0000 1.0000
44.6700 803.0000 1.0000
44.6800 867.0000 1.0000
44.6900 861.0000 1.0000
44.7000 831.0000 1.0000
44.7100 854.0000 1.0000
44.7200 786.0000 1.0000
44.7300 783.0000 1.0000
44.7400 832.0000 1.0000
44.7500 833.0000 1.0000
44.7600 838.0000 1.0000
44.7700 840.0000 1.0000
44.7800 856.0000 1.0000
44.7900 826.0000 1.0000
44.8000 827.0000 1.0000
44.8100 819.0000 1.0000
44.8200 880.0000 1.0000
44.8300 817.0000 1.0000
44.8400 846.0000 1.0000
44.8500 816.0000 1.0000
44.8600 855.0000 1.0000
44.8700 824.0000 1.0000
44.8800 832.0000 1.0000
44.8900 858.0000 1.0000
44.9000 829.0000 1.0000
44.9100 850.0000 1.0000
44.9200 829.0000 1.0000
44.9300 854.0000 1.0000
44.9400 856.0000 1.0000
44.9500 844.0000 1.0000
44.9600 791.0000 1.0000
44.9700 811.0000 1.0000
44.9800 848.0000 1.0000
44.9900 863.0000 1.0000
45.0000 865.0000 1.0000
45.0100 848.0000 1.0000
45.0200 849.0000 1.0000
45.0300 818.0000 1.0000
45.0400 811.0000 1.0000
45.0500 807.0000 1.0000
45.0600 779.0000 1.0000
45.0700 821.0000 1.0000
45.0800 889.0000 1.0000
45.0900 858.0000 1.0000
45.1000 825.0000 1.0000
45.1100 851.0000 1.0000
45.1200 830.0000 1.0000
45.1300 803.0000 1.0000
45.1400 823.0000 1.0000
45.1500 834.0000 1.0000
45.1600 796.0000 1.0000
45.1700 827.0000 1.0000
45.1800 809.0000 1.0000
45.1900 870.0000 1.0000
45.2000 849.0000 1.0000
45.2100 852.0000 1.0000
45.2200 807.0000 1.0000
45.2300 805.0000 1.0000
45.2400 827.0000 1.0000
45.2500 797.0000 1.0000
45.2600 800.0000 1.0000
45.2700 828.0000 1.0000
45.2800 827.0000 1.0000
45.2900 820.0000 1.0000
45.3000 811.0000 1.0000
45.3100 815.0000 1.0000
45.3200 865.0000 1.0000
45.3300 843.0000 1.0000
45.3400 885.0000 1.0000
45.3500 845.0000 1.0000
45.3600 762.0000 1.0000
45.3700 803.0000 1.0000
45.3800 783.0000 1.0000
45.3900 827.0000 1.0000
45.4000 836.0000 1.0000
45.4100 812.0000 1.0000
45.4200 853.0000 1.0000
45.4300 891.0000 1.0000
45.4400 816.0000 1.0000
45.4500 840.0000 1.0000
45.4600 799.0000 1.0000
45.4700 858.0000 1.0000
45.4800 813.0000 1.0000
45.4900 779.0000 1.0000
45.5000 834.0000 1.0000
45.5100 797.0000 1.0000
45.5200 839.0000 1.0000
45.5300 802.0000 1.0000
45.5400 855.0000 1.0000
45.5500 787.0000 1.0000
45.5600 825.0000 1.0000
45.5700 825.0000 1.0000
45.5800 826.0000 1.0000
45.5900 803.0000 1.0000
45.6000 809.0000 1.0000
45.6100 789.0000 1.0000
45.6200 814.0000 1.0000
45.6300 796.0000 1.0000
45.6400 827.0000 1.0000
45.6500 816.0000 1.0000
45.6600 727.0000 1.0000
45.6700 840.0000 1.0000
45.6800 868.0000 1.0000
45.6900 819.0000 1.0000
45.7000 796.0000 1.0000
45.7100 792.0000 1.0000
45.7200 803.0000 1.0000
45.7300 835.0000 1.0000
45.7400 828.0000 1.0000
45.7500 836.0000 1.0000
45.7600 824.0000 1.0000
45.7700 826.0000 1.0000
45.7800 825.0000 1.0000
45.7900 827.0000 1.0000
45.8000 820.0000 1.0000
45.8100 809.0000 1.0000
45.8200 825.0000 1.0000
45.8300 808.0000 1.0000
45.8400 818.0000 1.0000
45.8500 842.0000 1.0000
45.8600 840.0000 1.0000
45.8700 824.0000 1.0000
45.8800 789.0000 1.0000
45.8900 816.0000 1.0000
45.9000 823.0000 1.0000
45.9100 849.0000 1.0000
45.9200 779.0000 1.0000
45.9300 792.0000 1.0000
45.9400 791.0000 1.0000
45.9500 827.0000 1.0000
45.9600 872.0000 1.0000
45.9700 773.0000 1.0000
45.9800 820.0000 1.0000
45.9900 804.0000 1.0000
46.0000 798.0000 1.0000
46.0100 807.0000 1.0000
46.0200 797.0000 1.0000
46.0300 826.0000 1.0000
46.0400 800.0000 1.0000
46.0500 772.0000 1.0000
46.0600 838.0000 1.0000
46.0700 839.0000 1.0000
46.0800 841.0000 1.0000
46.0900 796.0000 1.0000
46.1000 863.0000 1.0000
46.1100 783.0000 1.0000
46.1200 742.0000 1.0000
46.1300 819.0000 1.0000
46.1400 823.0000 1.0000
46.1500 818.0000 1.0000
46.1600 754.0000 1.0000
46.1700 776.0000 1.0000
46.1800 786.0000 1.0000
46.1900 838.0000 1.0000
46.2000 795.0000 1.0000
46.2100 811.0000 1.0000
46.2200 812.0000 1.0000
46.2300 843.0000 1.0000
46.2400 814.0000 1.0000
46.2500 832.0000 1.0000
46.2600 778.0000 1.0000
46.2700 815.0000 1.0000
46.2800 768.0000 1.0000
46.2900 843.0000 1.0000
46.3000 810.0000 1.0000
46.3100 845.0000 1.0000
46.3200 807.0000 1.0000
46.3300 789.0000 1.0000
46.3400 829.0000 1.0000
46.3500 783.0000 1.0000
46.3600 772.0000 1.0000
46.3700 777.0000 1.0000
46.3800 806.0000 1.0000
46.3900 828.0000 1.0000
46.4000 778.0000 1.0000
46.4100 811.0000 1.0000
46.4200 788.0000 1.0000
46.4300 809.0000 1.0000
46.4400 760.0000 1.0000
46.4500 822.0000 1.0000
46.4600 813.0000 1.0000
46.4700 810.0000 1.0000
46.4800 807.0000 1.0000
46.4900 765.0000 1.0000
46.5000 791.0000 1.0000
46.5100 791.0000 1.0000
46.5200 803.0000 1.0000
46.5300 800.0000 1.0000
46.5400 790.0000 1.0000
46.5500 746.0000 1.0000
46.5600 774.0000 1.0000
46.5700 827.0000 1.0000
46.5800 809.0000 1.0000
46.5900 809.0000 1.0000
46.6000 776.0000 1.0000
46.6100 782.0000 1.0000
46.6200 788.0000 1.0000
46.6300 784.0000 1.0000
46.6400 772.0000 1.0000
46.6500 773.0000 1.0000
46.6600 790.0000 1.0000
46.6700 792.0000 1.0000
46.6800 806.0000 1.0000
46.6900 752.0000 1.0000
46.7000 776.0000 1.0000
46.7100 760.0000 1.0000
46.7200 789.0000 1.0000
46.7300 797.0000 1.0000
46.7400 778.0000 1.0000
46.7500 766.0000 1.0000
46.7600 826.0000 1.0000
46.7700 804.0000 1.0000
46.7800 801.0000 1.0000
46.7900 803.0000 1.0000
46.8000 810.0000 1.0000
46.8100 804.0000 1.0000
46.8200 826.0000 1.0000
46.8300 790.0000 1.0000
46.8400 798.0000 1.0000
46.8500 774.0000 1.0000
46.8600 796.0000 1.0000
46.8700 780.0000 1.0000
46.8800 801.0000 1.0000
46.8900 775.0000 1.0000
46.9000 821.0000 1.0000
46.9100 836.0000 1.0000
46.9200 800.0000 1.0000
46.9300 810.0000 1.0000
46.9400 787.0000 1.0000
46.9500 795.0000 1.0000
46.9600 787.0000 1.0000
46.9700 821.0000 1.0000
46.9800 792.0000 1.0000
46.9900 834.0000 1.0000
47.0000 785.0000 1.0000
47.0100 850.0000 1.0000
47.0200 782.0000 1.0000
47.0300 802.0000 1.0000
47.0400 814.0000 1.0000
47.0500 823.0000 1.0000
47.0600 804.0000 1.0000
47.0700 823.0000 1.0000
47.0800 805.0000 1.0000
47.0900 798.0000 1.0000
47.1000 829.0000 1.0000
47.1100 827.0000 1.0000
47.1200 789.0000 1.0000
47.1300 798.0000 1.0000
47.1400 789.0000 1.0000
47.1500 774.0000 1.0000
47.1600 816.0000 1.0000
47.1700 757.0000 1.0000
47.1800 801.0000 1.0000
47.1900 798.0000 1.0000
47.2000 793.0000 1.0000
47.2100 784.0000 1.0000
47.2200 763.0000 1.0000
47.2300 827.0000 1.0000
47.2400 773.0000 1.0000
47.2500 785.0000 1.0000
47.2600 779.0000 1.0000
47.2700 776.0000 1.0000
47.2800 806.0000 1.0000
47.2900 820.0000 1.0000
47.3000 761.0000 1.0000
47.3100 811.0000 1.0000
47.3200 728.0000 1.0000
47.3300 767.0000 1.0000
47.3400 781.0000 1.0000
47.3500 791.0000 1.0000
47.3600 767.0000 1.0000
47.3700 786.0000 1.0000
47.3800 769.0000 1.0000
47.3900 766.0000 1.0000
47.4000 792.0000 1.0000
47.4100 791.0000 1.0000
47.4200 792.0000 1.0000
47.4300 746.0000 1.0000
47.4400 734.0000 1.0000
47.4500 801.0000 1.0000
47.4600 774.0000 1.0000
47.4700 785.0000 1.0000
47.4800 785.0000 1.0000
47.4900 786.0000 1.0000
47.5000 766.0000 1.0000
47.5100 759.0000 1.0000
47.5200 738.0000 1.0000
47.5300 776.0000 1.0000
47.5400 814.0000 1.0000
47.5500 810.0000 1.0000
47.5600 767.0000 1.0000
47.5700 789.0000 1.0000
47.5800 826.0000 1.0000
47.5900 780.0000 1.0000
47.6000 772.0000 1.0000
47.6100 793.0000 1.0000
47.6200 714.0000 1.0000
47.6300 805.0000 1.0000
47.6400 802.0000 1.0000
47.6500 820.0000 1.0000
47.6600 775.0000 1.0000
47.6700 783.0000 1.0000
47.6800 799.0000 1.0000
47.6900 805.0000 1.0000
47.7000 786.0000 1.0000
47.7100 784.0000 1.0000
47.7200 804.0000 1.0000
47.7300 781.0000 1.0000
47.7400 770.0000 1.0000
47.7500 772.0000 1.0000
47.7600 788.0000 1.0000
47.7700 760.0000 1.0000
47.7800 793.0000 1.0000
47.7900 766.0000 1.0000
47.8000 827.0000 1.0000
47.8100 819.0000 1.0000
47.8200 833.0000 1.0000
47.8300 777.0000 1.0000
47.8400 808.0000 1.0000
47.8500 799.0000 1.0000
47.8600 789.0000 1.0000
47.8700 773.0000 1.0000
47.8800 780.0000 1.0000
47.8900 763.0000 1.0000
47.9000 761.0000 1.0000
47.9100 775.0000 1.0000
47.9200 775.0000 1.0000
47.9300 763.0000 1.0000
47.9400 804.0000 1.0000
47.9500 781.0000 1.0000
47.9600 760.0000 1.0000
47.9700 745.0000 1.0000
47.9800 765.0000 1.0000
47.9900 761.0000 1.0000
48.0000 750.0000 1.0000
48.0100 736.0000 1.0000
48.0200 788.0000 1.0000
48.0300 770.0000 1.0000
48.0400 782.0000 1.0000
48.0500 747.0000 1.0000
48.0600 763.0000 1.0000
48.0700 771.0000 1.0000
48.0800 784.0000 1.0000
48.0900 797.0000 1.0000
48.1000 798.0000 1.0000
48.1100 759.0000 1.0000
48.1200 792.0000 1.0000
48.1300 797.0000 1.0000
48.1400 796.0000 1.0000
48.1500 741.0000 1.0000
48.1600 805.0000 1.0000
48.1700 757.0000 1.0000
48.1800 733.0000 1.0000
48.1900 731.0000 1.0000
48.2000 790.0000 1.0000
48.2100 834.0000 1.0000
48.2200 749.0000 1.0000
48.2300 753.0000 1.0000
48.2400 775.0000 1.0000
48.2500 764.0000 1.0000
48.2600 717.0000 1.0000
48.2700 743.0000 1.0000
48.2800 754.0000 1.0000
48.2900 768.0000 1.0000
48.3000 778.0000 1.0000
48.3100 798.0000 1.0000
48.3200 786.0000 1.0000
48.3300 758.0000 1.0000
48.3400 770.0000 1.0000
48.3500 747.0000 1.0000
48.3600 740.0000 1.0000
48.3700 764.0000 1.0000
48.3800 750.0000 1.0000
48.3900 803.0000 1.0000
48.4000 804.0000 1.0000
48.4100 753.0000 1.0000
48.4200 758.0000 1.0000
48.4300 764.0000 1.0000
48.4400 743.0000 1.0000
48.4500 804.0000 1.0000
48.4600 785.0000 1.0000
48.4700 812.0000 1.0000
48.4800 778.0000 1.0000
48.4900 789.0000 1.0000
48.5000 731.0000 1.0000
48.5100 732.0000 1.0000
48.5200 737.0000 1.0000
48.5300 733.0000 1.0000
48.5400 755.0000 1.0000
48.5500 761.0000 1.0000
48.5600 751.0000 1.0000
48.5700 786.0000 1.0000
48.5800 767.0000 1.0000
48.5900 773.0000 1.0000
48.6000 750.0000 1.0000
48.6100 752.0000 1.0000
48.6200 783.0000 1.0000
48.6300 753.0000 1.0000
48.6400 762.0000 1.0000
48.6500 752.0000 1.0000
48.6600 744.0000 1.0000
48.6700 756.0000 1.0000
48.6800 736.0000 1.0000
48.6900 732.0000 1.0000
48.7000 763.0000 1.0000
48.7100 822.0000 1.0000
48.7200 790.0000 1.0000
48.7300 718.0000 1.0000
48.7400 823.0000 1.0000
48.7500 773.0000 1.0000
48.7600 716.0000 1.0000
48.7700 749.0000 1.0000
48.7800 765.0000 1.0000
48.7900 765.0000 1.0000
48.8000 793.0000 1.0000
48.8100 760.0000 1.0000
48.8200 713.0000 1.0000
48.8300 719.0000 1.0000
48.8400 742.0000 1.0000
48.8500 752.0000 1.0000
48.8600 769.0000 1.0000
48.8700 788.0000 1.0000
48.8800 732.0000 1.0000
48.8900 726.0000 1.0000
48.9000 737.0000 1.0000
48.9100 749.0000 1.0000
48.9200 777.0000 1.0000
48.9300 750.0000 1.0000
48.9400 753.0000 1.0000
48.9500 751.0000 1.0000
48.9600 740.0000 1.0000
48.9700 760.0000 1.0000
48.9800 751.0000 1.0000
48.9900 782.0000 1.0000
49.0000 764.0000 1.0000
49.0100 762.0000 1.0000
49.0200 737.0000 1.0000
49.0300 724.0000 1.0000
49.0400 775.0000 1.0000
49.0500 757.0000 1.0000
49.0600 729.0000 1.0000
49.0700 736.0000 1.0000
49.0800 763.0000 1.0000
49.0900 697.0000 1.0000
49.1000 754.0000 1.0000
49.1100 720.0000 1.0000
49.1200 762.0000 1.0000
49.1300 787.0000 1.0000
49.1400 745.0000 1.0000
49.1500 728.0000 1.0000
49.1600 743.0000 1.0000
49.1700 791.0000 1.0000
49.1800 771.0000 1.0000
49.1900 797.0000 1.0000
49.2000 794.0000 1.0000
49.2100 752.0000 1.0000
49.2200 762.0000 1.0000
49.2300 721.0000 1.0000
49.2400 710.0000 1.0000
49.2500 745.0000 1.0000
49.2600 776.0000 1.0000
49.2700 745.0000 1.0000
49.2800 784.0000 1.0000
49.2900 805.0000 1.0000
49.3000 769.0000 1.0000
49.3100 740.0000 1.0000
49.3200 751.0000 1.0000
49.3300 742.0000 1.0000
49.3400 779.0000 1.0000
49.3500 754.0000 1.0000
49.3600 779.0000 1.0000
49.3700 751.0000 1.0000
49.3800 783.0000 1.0000
49.3900 774.0000 1.0000
49.4000 738.0000 1.0000
49.4100 734.0000 1.0000
49.4200 759.0000 1.0000
49.4300 777.0000 1.0000
49.4400 739.0000 1.0000
49.4500 738.0000 1.0000
49.4600 765.0000 1.0000
49.4700 740.0000 1.0000
49.4800 764.0000 1.0000
49.4900 753.0000 1.0000
49.5000 749.0000 1.0000
49.5100 772.0000 1.0000
49.5200 727.0000 1.0000
49.5300 751.0000 1.0000
49.5400 762.0000 1.0000
49.5500 774.0000 1.0000
49.5600 745.0000 1.0000
49.5700 776.0000 1.0000
49.5800 726.0000 1.0000
49.5900 758.0000 1.0000
49.6000 782.0000 1.0000
49.6100 730.0000 1.0000
49.6200 748.0000 1.0000
49.6300 729.0000 1.0000
49.6400 715.0000 1.0000
49.6500 777.0000 1.0000
49.6600 741.0000 1.0000
49.6700 755.0000 1.0000
49.6800 810.0000 1.0000
49.6900 760.0000 1.0000
49.7000 797.0000 1.0000
49.7100 729.0000 1.0000
49.7200 784.0000 1.0000
49.7300 770.0000 1.0000
49.7400 783.0000 1.0000
49.7500 761.0000 1.0000
49.7600 793.0000 1.0000
49.7700 738.0000 1.0000
49.7800 718.0000 1.0000
49.7900 760.0000 1.0000
49.8000 720.0000 1.0000
49.8100 747.0000 1.0000
49.8200 764.0000 1.0000
49.8300 784.0000 1.0000
49.8400 748.0000 1.0000
49.8500 771.0000 1.0000
49.8600 762.0000 1.0000
49.8700 763.0000 1.0000
49.8800 739.0000 1.0000
49.8900 797.0000 1.0000
49.9000 737.0000 1.0000
49.9100 735.0000 1.0000
49.9200 793.0000 1.0000
49.9300 758.0000 1.0000
49.9400 725.0000 1.0000
49.9500 717.0000 1.0000
49.9600 734.0000 1.0000
49.9700 778.0000 1.0000
49.9800 741.0000 1.0000
49.9900 755.0000 1.0000
50.0000 725.0000 1.0000
50.0100 766.0000 1.0000
50.0200 772.0000 1.0000
50.0300 773.0000 1.0000
50.0400 753.0000 1.0000
50.0500 779.0000 1.0000
50.0600 760.0000 1.0000
50.0700 765.0000 1.0000
50.0800 775.0000 1.0000
50.0900 784.0000 1.0000
50.1000 741.0000 1.0000
50.1100 779.0000 1.0000
50.1200 807.0000 1.0000
50.1300 776.0000 1.0000
50.1400 793.0000 1.0000
50.1500 765.0000 1.0000
50.1600 758.0000 1.0000
50.1700 797.0000 1.0000
50.1800 791.0000 1.0000
50.1900 767.0000 1.0000
50.2000 809.0000 1.0000
50.2100 809.0000 1.0000
50.2200 766.0000 1.0000
50.2300 814.0000 1.0000
50.2400 807.0000 1.0000
50.2500 768.0000 1.0000
50.2600 715.0000 1.0000
50.2700 738.0000 1.0000
50.2800 780.0000 1.0000
50.2900 751.0000 1.0000
50.3000 764.0000 1.0000
50.3100 791.0000 1.0000
50.3200 761.0000 1.0000
50.3300 760.0000 1.0000
50.3400 784.0000 1.0000
50.3500 731.0000 1.0000
50.3600 729.0000 1.0000
50.3700 763.0000 1.0000
50.3800 746.0000 1.0000
50.3900 758.0000 1.0000
50.4000 747.0000 1.0000
50.4100 767.0000 1.0000
50.4200 758.0000 1.0000
50.4300 770.0000 1.0000
50.4400 737.0000 1.0000
50.4500 751.0000 1.0000
50.4600 769.0000 1.0000
50.4700 773.0000 1.0000
50.4800 769.0000 1.0000
50.4900 756.0000 1.0000
50.5000 795.0000 1.0000
50.5100 785.0000 1.0000
50.5200 761.0000 1.0000
50.5300 767.0000 1.0000
50.5400 736.0000 1.0000
50.5500 709.0000 1.0000
50.5600 774.0000 1.0000
50.5700 771.0000 1.0000
50.5800 778.0000 1.0000
50.5900 801.0000 1.0000
50.6000 747.0000 1.0000
50.6100 792.0000 1.0000
50.6200 726.0000 1.0000
50.6300 757.0000 1.0000
50.6400 741.0000 1.0000
50.6500 761.0000 1.0000
50.6600 812.0000 1.0000
50.6700 732.0000 1.0000
50.6800 734.0000 1.0000
50.6900 728.0000 1.0000
50.7000 796.0000 1.0000
50.7100 765.0000 1.0000
50.7200 780.0000 1.0000
50.7300 801.0000 1.0000
50.7400 795.0000 1.0000
50.7500 799.0000 1.0000
50.7600 749.0000 1.0000
50.7700 761.0000 1.0000
50.7800 780.0000 1.0000
50.7900 770.0000 1.0000
50.8000 728.0000 1.0000
50.8100 790.0000 1.0000
50.8200 763.0000 1.0000
50.8300 785.0000 1.0000
50.8400 773.0000 1.0000
50.8500 799.0000 1.0000
50.8600 797.0000 1.0000
50.8700 769.0000 1.0000
50.8800 760.0000 1.0000
50.8900 763.0000 1.0000
50.9000 757.0000 1.0000
50.9100 762.0000 1.0000
50.9200 743.0000 1.0000
50.9300 734.0000 1.0000
50.9400 738.0000 1.0000
50.9500 744.0000 1.0000
50.9600 775.0000 1.0000
50.9700 738.0000 1.0000
50.9800 784.0000 1.0000
50.9900 804.0000 1.0000
51.0000 726.0000 1.0000
51.0100 761.0000 1.0000
51.0200 775.0000 1.0000
51.0300 739.0000 1.0000
51.0400 761.0000 1.0000
51.0500 791.0000 1.0000
51.0600 778.0000 1.0000
51.0700 774.0000 1.0000
51.0800 752.0000 1.0000
51.0900 752.0000 1.0000
51.1000 797.0000 1.0000
51.1100 759.0000 1.0000
51.1200 788.0000 1.0000
51.1300 717.0000 1.0000
51.1400 744.0000 1.0000
51.1500 749.0000 1.0000
51.1600 735.0000 1.0000
51.1700 800.0000 1.0000
51.1800 710.0000 1.0000
51.1900 801.0000 1.0000
51.2000 717.0000 1.0000
51.2100 732.0000 1.0000
51.2200 786.0000 1.0000
51.2300 739.0000 1.0000
51.2400 782.0000 1.0000
51.2500 767.0000 1.0000
51.2600 738.0000 1.0000
51.2700 771.0000 1.0000
51.2800 787.0000 1.0000
51.2900 800.0000 1.0000
51.3000 775.0000 1.0000
51.3100 806.0000 1.0000
51.3200 728.0000 1.0000
51.3300 747.0000 1.0000
51.3400 733.0000 1.0000
51.3500 767.0000 1.0000
51.3600 723.0000 1.0000
51.3700 757.0000 1.0000
51.3800 799.0000 1.0000
51.3900 802.0000 1.0000
51.4000 771.0000 1.0000
51.4100 726.0000 1.0000
51.4200 762.0000 1.0000
51.4300 788.0000 1.0000
51.4400 776.0000 1.0000
51.4500 772.0000 1.0000
51.4600 774.0000 1.0000
51.4700 759.0000 1.0000
51.4800 832.0000 1.0000
51.4900 757.0000 1.0000
51.5000 789.0000 1.0000
51.5100 766.0000 1.0000
51.5200 780.0000 1.0000
51.5300 780.0000 1.0000
51.5400 776.0000 1.0000
51.5500 748.0000 1.0000
51.5600 732.0000 1.0000
51.5700 767.0000 1.0000
51.5800 815.0000 1.0000
51.5900 786.0000 1.0000
51.6000 797.0000 1.0000
51.6100 797.0000 1.0000
51.6200 816.0000 1.0000
51.6300 791.0000 1.0000
51.6400 777.0000 1.0000
51.6500 787.0000 1.0000
51.6600 817.0000 1.0000
51.6700 792.0000 1.0000
51.6800 796.0000 1.0000
51.6900 754.0000 1.0000
51.7000 817.0000 1.0000
51.7100 791.0000 1.0000
51.7200 781.0000 1.0000
51.7300 816.0000 1.0000
51.7400 790.0000 1.0000
51.7500 777.0000 1.0000
51.7600 829.0000 1.0000
51.7700 807.0000 1.0000
51.7800 791.0000 1.0000
51.7900 852.0000 1.0000
51.8000 854.0000 1.0000
51.8100 799.0000 1.0000
51.8200 863.0000 1.0000
51.8300 862.0000 1.0000
51.8400 907.0000 1.0000
51.8500 881.0000 1.0000
51.8600 881.0000 1.0000
51.8700 833.0000 1.0000
51.8800 887.0000 1.0000
51.8900 935.0000 1.0000
51.9000 887.0000 1.0000
51.9100 920.0000 1.0000
51.9200 930.0000 1.0000
51.9300 955.0000 1.0000
51.9400 933.0000 1.0000
51.9500 979.0000 1.0000
51.9600 1019.0000 1.0000
51.9700 1032.0000 1.0000
51.9800 1009.0000 1.0000
51.9900 1067.0000 1.0000
52.0000 1128.0000 1.0000
52.0100 1178.0000 1.0000
52.0200 1177.0000 1.0000
52.0300 1188.0000 1.0000
52.0400 1186.0000 1.0000
52.0500 1316.0000 1.0000
52.0600 1348.0000 1.0000
52.0700 1405.0000 1.0000
52.0800 1430.0000 1.0000
52.0900 1541.0000 1.0000
52.1000 1569.0000 1.0000
52.1100 1611.0000 1.0000
52.1200 1774.0000 1.0000
52.1300 1790.0000 1.0000
52.1400 1957.0000 1.0000
52.1500 2088.0000 1.0000
52.1600 2284.0000 1.0000
52.1700 2365.0000 1.0000
52.1800 2581.0000 1.0000
52.1900 2798.0000 1.0000
52.2000 3012.0000 1.0000
52.2100 3203.0000 1.0000
52.2200 3567.0000 1.0000
52.2300 3774.0000 1.0000
52.2400 3997.0000 1.0000
52.2500 4273.0000 1.0000
52.2600 4413.0000 1.0000
52.2700 4461.0000 1.0000
52.2800 4659.0000 1.0000
52.2900 4701.0000 1.0000
52.3000 4676.0000 1.0000
52.3100 4495.0000 1.0000
52.3200 4457.0000 1.0000
52.3300 4335.0000 1.0000
52.3400 4235.0000 1.0000
52.3500 4054.0000 1.0000
52.3600 3986.0000 1.0000
52.3700 3946.0000 1.0000
52.3800 3835.0000 1.0000
52.3900 3717.0000 1.0000
52.4000 3709.0000 1.0000
52.4100 3550.0000 1.0000
52.4200 3408.0000 1.0000
52.4300 3347.0000 1.0000
52.4400 3151.0000 1.0000
52.4500 2940.0000 1.0000
52.4600 2927.0000 1.0000
52.4700 2789.0000 1.0000
52.4800 2494.0000 1.0000
52.4900 2405.0000 1.0000
52.5000 2246.0000 1.0000
52.5100 2043.0000 1.0000
52.5200 1927.0000 1.0000
52.5300 1803.0000 1.0000
52.5400 1720.0000 1.0000
52.5500 1577.0000 1.0000
52.5600 1488.0000 1.0000
52.5700 1477.0000 1.0000
52.5800 1445.0000 1.0000
52.5900 1329.0000 1.0000
52.6000 1307.0000 1.0000
52.6100 1303.0000 1.0000
52.6200 1222.0000 1.0000
52.6300 1196.0000 1.0000
52.6400 1192.0000 1.0000
52.6500 1095.0000 1.0000
52.6600 1124.0000 1.0000
52.6700 1064.0000 1.0000
52.6800 1129.0000 1.0000
52.6900 1019.0000 1.0000
52.7000 987.0000 1.0000
52.7100 990.0000 1.0000
52.7200 979.0000 1.0000
52.7300 946.0000 1.0000
52.7400 981.0000 1.0000
52.7500 960.0000 1.0000
52.7600 935.0000 1.0000
52.7700 955.0000 1.0000
52.7800 939.0000 1.0000
52.7900 940.0000 1.0000
52.8000 862.0000 1.0000
52.8100 906.0000 1.0000
52.8200 875.0000 1.0000
52.8300 927.0000 1.0000
52.8400 808.0000 1.0000
52.8500 847.0000 1.0000
52.8600 881.0000 1.0000
52.8700 868.0000 1.0000
52.8800 834.0000 1.0000
52.8900 835.0000 1.0000
52.9000 839.0000 1.0000
52.9100 831.0000 1.0000
52.9200 805.0000 1.0000
52.9300 841.0000 1.0000
52.9400 832.0000 1.0000
52.9500 787.0000 1.0000
52.9600 756.0000 1.0000
52.9700 803.0000 1.0000
52.9800 803.0000 1.0000
52.9900 799.0000 1.0000
53.0000 782.0000 1.0000
53.0100 798.0000 1.0000
53.0200 771.0000 1.0000
53.0300 817.0000 1.0000
53.0400 809.0000 1.0000
53.0500 851.0000 1.0000
53.0600 787.0000 1.0000
53.0700 793.0000 1.0000
53.0800 813.0000 1.0000
53.0900 792.0000 1.0000
53.1000 799.0000 1.0000
53.1100 816.0000 1.0000
53.1200 750.0000 1.0000
53.1300 779.0000 1.0000
53.1400 767.0000 1.0000
53.1500 767.0000 1.0000
53.1600 814.0000 1.0000
53.1700 762.0000 1.0000
53.1800 775.0000 1.0000
53.1900 790.0000 1.0000
53.2000 787.0000 1.0000
53.2100 786.0000 1.0000
53.2200 794.0000 1.0000
53.2300 786.0000 1.0000
53.2400 747.0000 1.0000
53.2500 744.0000 1.0000
53.2600 770.0000 1.0000
53.2700 774.0000 1.0000
53.2800 750.0000 1.0000
53.2900 780.0000 1.0000
53.3000 765.0000 1.0000
53.3100 755.0000 1.0000
53.3200 773.0000 1.0000
53.3300 806.0000 1.0000
53.3400 779.0000 1.0000
53.3500 746.0000 1.0000
53.3600 729.0000 1.0000
53.3700 749.0000 1.0000
53.3800 755.0000 1.0000
53.3900 724.0000 1.0000
53.4000 765.0000 1.0000
53.4100 817.0000 1.0000
53.4200 758.0000 1.0000
53.4300 733.0000 1.0000
53.4400 723.0000 1.0000
53.4500 774.0000 1.0000
53.4600 769.0000 1.0000
53.4700 772.0000 1.0000
53.4800 760.0000 1.0000
53.4900 753.0000 1.0000
53.5000 718.0000 1.0000
53.5100 758.0000 1.0000
53.5200 742.0000 1.0000
53.5300 778.0000 1.0000
53.5400 763.0000 1.0000
53.5500 720.0000 1.0000
53.5600 719.0000 1.0000
53.5700 765.0000 1.0000
53.5800 741.0000 1.0000
53.5900 675.0000 1.0000
53.6000 686.0000 1.0000
53.6100 704.0000 1.0000
53.6200 768.0000 1.0000
53.6300 776.0000 1.0000
53.6400 812.0000 1.0000
53.6500 736.0000 1.0000
53.6600 741.0000 1.0000
53.6700 765.0000 1.0000
53.6800 775.0000 1.0000
53.6900 790.0000 1.0000
53.7000 762.0000 1.0000
53.7100 715.0000 1.0000
53.7200 724.0000 1.0000
53.7300 717.0000 1.0000
53.7400 730.0000 1.0000
53.7500 743.0000 1.0000
53.7600 745.0000 1.0000
53.7700 738.0000 1.0000
53.7800 755.0000 1.0000
53.7900 752.0000 1.0000
53.8000 766.0000 1.0000
53.8100 717.0000 1.0000
53.8200 721.0000 1.0000
53.8300 701.0000 1.0000
53.8400 763.0000 1.0000
53.8500 745.0000 1.0000
53.8600 753.0000 1.0000
53.8700 731.0000 1.0000
53.8800 716.0000 1.0000
53.8900 757.0000 1.0000
53.9000 711.0000 1.0000
53.9100 719.0000 1.0000
53.9200 709.0000 1.0000
53.9300 739.0000 1.0000
53.9400 744.0000 1.0000
53.9500 741.0000 1.0000
53.9600 727.0000 1.0000
53.9700 762.0000 1.0000
53.9800 770.0000 1.0000
53.9900 734.0000 1.0000
54.0000 732.0000 1.0000
54.0100 754.0000 1.0000
54.0200 753.0000 1.0000
54.0300 708.0000 1.0000
54.0400 736.0000 1.0000
54.0500 701.0000 1.0000
54.0600 679.0000 1.0000
54.0700 693.0000 1.0000
54.0800 751.0000 1.0000
54.0900 743.0000 1.0000
54.1000 732.0000 1.0000
54.1100 726.0000 1.0000
54.1200 763.0000 1.0000
54.1300 780.0000 1.0000
54.1400 743.0000 1.0000
54.1500 695.0000 1.0000
54.1600 732.0000 1.0000
54.1700 758.0000 1.0000
54.1800 722.0000 1.0000
54.1900 712.0000 1.0000
54.2000 729.0000 1.0000
54.2100 733.0000 1.0000
54.2200 731.0000 1.0000
54.2300 705.0000 1.0000
54.2400 735.0000 1.0000
54.2500 719.0000 1.0000
54.2600 748.0000 1.0000
54.2700 783.0000 1.0000
54.2800 701.0000 1.0000
54.2900 759.0000 1.0000
54.3000 767.0000 1.0000
54.3100 757.0000 1.0000
54.3200 697.0000 1.0000
54.3300 727.0000 1.0000
54.3400 745.0000 1.0000
54.3500 729.0000 1.0000
54.3600 714.0000 1.0000
54.3700 727.0000 1.0000
54.3800 754.0000 1.0000
54.3900 783.0000 1.0000
54.4000 751.0000 1.0000
54.4100 710.0000 1.0000
54.4200 713.0000 1.0000
54.4300 704.0000 1.0000
54.4400 755.0000 1.0000
54.4500 731.0000 1.0000
54.4600 751.0000 1.0000
54.4700 708.0000 1.0000
54.4800 705.0000 1.0000
54.4900 747.0000 1.0000
54.5000 731.0000 1.0000
54.5100 734.0000 1.0000
54.5200 721.0000 1.0000
54.5300 706.0000 1.0000
54.5400 726.0000 1.0000
54.5500 748.0000 1.0000
54.5600 693.0000 1.0000
54.5700 774.0000 1.0000
54.5800 756.0000 1.0000
54.5900 754.0000 1.0000
54.6000 741.0000 1.0000
54.6100 720.0000 1.0000
54.6200 753.0000 1.0000
54.6300 752.0000 1.0000
54.6400 781.0000 1.0000
54.6500 763.0000 1.0000
54.6600 796.0000 1.0000
54.6700 750.0000 1.0000
54.6800 727.0000 1.0000
54.6900 776.0000 1.0000
54.7000 801.0000 1.0000
54.7100 773.0000 1.0000
54.7200 756.0000 1.0000
54.7300 789.0000 1.0000
54.7400 799.0000 1.0000
54.7500 781.0000 1.0000
54.7600 780.0000 1.0000
54.7700 778.0000 1.0000
54.7800 770.0000 1.0000
54.7900 707.0000 1.0000
54.8000 754.0000 1.0000
54.8100 764.0000 1.0000
54.8200 744.0000 1.0000
54.8300 801.0000 1.0000
54.8400 805.0000 1.0000
54.8500 774.0000 1.0000
54.8600 776.0000 1.0000
54.8700 781.0000 1.0000
54.8800 761.0000 1.0000
54.8900 776.0000 1.0000
54.9000 781.0000 1.0000
54.9100 775.0000 1.0000
54.9200 808.0000 1.0000
54.9300 796.0000 1.0000
54.9400 815.0000 1.0000
54.9500 787.0000 1.0000
54.9600 806.0000 1.0000
54.9700 779.0000 1.0000
54.9800 781.0000 1.0000
54.9900 783.0000 1.0000
55.0000 811.0000 1.0000
55.0100 829.0000 1.0000
55.0200 787.0000 1.0000
55.0300 802.0000 1.0000
55.0400 792.0000 1.0000
55.0500 852.0000 1.0000
55.0600 815.0000 1.0000
55.0700 809.0000 1.0000
55.0800 859.0000 1.0000
55.0900 820.0000 1.0000
55.1000 866.0000 1.0000
55.1100 867.0000 1.0000
55.1200 879.0000 1.0000
55.1300 858.0000 1.0000
55.1400 841.0000 1.0000
55.1500 928.0000 1.0000
55.1600 902.0000 1.0000
55.1700 948.0000 1.0000
55.1800 906.0000 1.0000
55.1900 965.0000 1.0000
55.2000 963.0000 1.0000
55.2100 956.0000 1.0000
55.2200 980.0000 1.0000
55.2300 983.0000 1.0000
55.2400 1062.0000 1.0000
55.2500 1124.0000 1.0000
55.2600 1047.0000 1.0000
55.2700 1046.0000 1.0000
55.2800 1072.0000 1.0000
55.2900 1056.0000 1.0000
55.3000 1080.0000 1.0000
55.3100 1128.0000 1.0000
55.3200 1118.0000 1.0000
55.3300 1136.0000 1.0000
55.3400 1055.0000 1.0000
55.3500 1090.0000 1.0000
55.3600 1098.0000 1.0000
55.3700 1084.0000 1.0000
55.3800 1102.0000 1.0000
55.3900 1088.0000 1.0000
55.4000 1050.0000 1.0000
55.4100 1033.0000 1.0000
55.4200 1071.0000 1.0000
55.4300 1064.0000 1.0000
55.4400 1049.0000 1.0000
55.4500 1080.0000 1.0000
55.4600 986.0000 1.0000
55.4700 1022.0000 1.0000
55.4800 949.0000 1.0000
55.4900 927.0000 1.0000
55.5000 921.0000 1.0000
55.5100 903.0000 1.0000
55.5200 888.0000 1.0000
55.5300 896.0000 1.0000
55.5400 860.0000 1.0000
55.5500 885.0000 1.0000
55.5600 872.0000 1.0000
55.5700 903.0000 1.0000
55.5800 844.0000 1.0000
55.5900 831.0000 1.0000
55.6000 793.0000 1.0000
55.6100 827.0000 1.0000
55.6200 823.0000 1.0000
55.6300 798.0000 1.0000
55.6400 818.0000 1.0000
55.6500 827.0000 1.0000
55.6600 851.0000 1.0000
55.6700 781.0000 1.0000
55.6800 798.0000 1.0000
55.6900 771.0000 1.0000
55.7000 778.0000 1.0000
55.7100 824.0000 1.0000
55.7200 800.0000 1.0000
55.7300 788.0000 1.0000
55.7400 799.0000 1.0000
55.7500 750.0000 1.0000
55.7600 741.0000 1.0000
55.7700 731.0000 1.0000
55.7800 774.0000 1.0000
55.7900 732.0000 1.0000
55.8000 780.0000 1.0000
55.8100 804.0000 1.0000
55.8200 771.0000 1.0000
55.8300 747.0000 1.0000
55.8400 737.0000 1.0000
55.8500 714.0000 1.0000
55.8600 735.0000 1.0000
55.8700 762.0000 1.0000
55.8800 746.0000 1.0000
55.8900 743.0000 1.0000
55.9000 740.0000 1.0000
55.9100 719.0000 1.0000
55.9200 743.0000 1.0000
55.9300 772.0000 1.0000
55.9400 719.0000 1.0000
55.9500 691.0000 1.0000
55.9600 747.0000 1.0000
55.9700 720.0000 1.0000
55.9800 739.0000 1.0000
55.9900 724.0000 1.0000
56.0000 797.0000 1.0000
56.0100 746.0000 1.0000
56.0200 718.0000 1.0000
56.0300 723.0000 1.0000
56.0400 671.0000 1.0000
56.0500 697.0000 1.0000
56.0600 742.0000 1.0000
56.0700 735.0000 1.0000
56.0800 718.0000 1.0000
56.0900 729.0000 1.0000
56.1000 744.0000 1.0000
56.1100 696.0000 1.0000
56.1200 697.0000 1.0000
56.1300 750.0000 1.0000
56.1400 721.0000 1.0000
56.1500 699.0000 1.0000
56.1600 683.0000 1.0000
56.1700 731.0000 1.0000
56.1800 702.0000 1.0000
56.1900 731.0000 1.0000
56.2000 749.0000 1.0000
56.2100 703.0000 1.0000
56.2200 701.0000 1.0000
56.2300 724.0000 1.0000
56.2400 740.0000 1.0000
56.2500 750.0000 1.0000
56.2600 732.0000 1.0000
56.2700 736.0000 1.0000
56.2800 731.0000 1.0000
56.2900 684.0000 1.0000
56.3000 709.0000 1.0000
56.3100 719.0000 1.0000
56.3200 735.0000 1.0000
56.3300 705.0000 1.0000
56.3400 780.0000 1.0000
56.3500 748.0000 1.0000
56.3600 742.0000 1.0000
56.3700 745.0000 1.0000
56.3800 713.0000 1.0000
56.3900 707.0000 1.0000
56.4000 722.0000 1.0000
56.4100 710.0000 1.0000
56.4200 721.0000 1.0000
56.4300 729.0000 1.0000
56.4400 721.0000 1.0000
56.4500 757.0000 1.0000
56.4600 718.0000 1.0000
56.4700 726.0000 1.0000
56.4800 734.0000 1.0000
56.4900 698.0000 1.0000
56.5000 684.0000 1.0000
56.5100 709.0000 1.0000
56.5200 695.0000 1.0000
56.5300 730.0000 1.0000
56.5400 732.0000 1.0000
56.5500 738.0000 1.0000
56.5600 730.0000 1.0000
56.5700 728.0000 1.0000
56.5800 705.0000 1.0000
56.5900 718.0000 1.0000
56.6000 740.0000 1.0000
56.6100 684.0000 1.0000
56.6200 687.0000 1.0000
56.6300 738.0000 1.0000
56.6400 704.0000 1.0000
56.6500 688.0000 1.0000
56.6600 758.0000 1.0000
56.6700 717.0000 1.0000
56.6800 674.0000 1.0000
56.6900 699.0000 1.0000
56.7000 697.0000 1.0000
56.7100 711.0000 1.0000
56.7200 728.0000 1.0000
56.7300 721.0000 1.0000
56.7400 688.0000 1.0000
56.7500 683.0000 1.0000
56.7600 707.0000 1.0000
56.7700 729.0000 1.0000
56.7800 720.0000 1.0000
56.7900 699.0000 1.0000
56.8000 675.0000 1.0000
56.8100 694.0000 1.0000
56.8200 728.0000 1.0000
56.8300 735.0000 1.0000
56.8400 690.0000 1.0000
56.8500 721.0000 1.0000
56.8600 720.0000 1.0000
56.8700 694.0000 1.0000
56.8800 680.0000 1.0000
56.8900 704.0000 1.0000
56.9000 716.0000 1.0000
56.9100 709.0000 1.0000
56.9200 690.0000 1.0000
56.9300 725.0000 1.0000
56.9400 690.0000 1.0000
56.9500 699.0000 1.0000
56.9600 658.0000 1.0000
56.9700 694.0000 1.0000
56.9800 751.0000 1.0000
56.9900 711.0000 1.0000
57.0000 716.0000 1.0000
57.0100 763.0000 1.0000
57.0200 708.0000 1.0000
57.0300 712.0000 1.0000
57.0400 710.0000 1.0000
57.0500 733.0000 1.0000
57.0600 727.0000 1.0000
57.0700 716.0000 1.0000
57.0800 706.0000 1.0000
57.0900 723.0000 1.0000
57.1000 678.0000 1.0000
57.1100 704.0000 1.0000
57.1200 697.0000 1.0000
57.1300 699.0000 1.0000
57.1400 703.0000 1.0000
57.1500 747.0000 1.0000
57.1600 718.0000 1.0000
57.1700 714.0000 1.0000
57.1800 690.0000 1.0000
57.1900 698.0000 1.0000
57.2000 737.0000 1.0000
57.2100 719.0000 1.0000
57.2200 749.0000 1.0000
57.2300 745.0000 1.0000
57.2400 718.0000 1.0000
57.2500 717.0000 1.0000
57.2600 739.0000 1.0000
57.2700 730.0000 1.0000
57.2800 716.0000 1.0000
57.2900 656.0000 1.0000
57.3000 711.0000 1.0000
57.3100 704.0000 1.0000
57.3200 697.0000 1.0000
57.3300 721.0000 1.0000
57.3400 729.0000 1.0000
57.3500 716.0000 1.0000
57.3600 717.0000 1.0000
57.3700 691.0000 1.0000
57.3800 706.0000 1.0000
57.3900 710.0000 1.0000
57.4000 752.0000 1.0000
57.4100 724.0000 1.0000
57.4200 721.0000 1.0000
57.4300 740.0000 1.0000
57.4400 658.0000 1.0000
57.4500 707.0000 1.0000
57.4600 688.0000 1.0000
57.4700 733.0000 1.0000
57.4800 667.0000 1.0000
57.4900 732.0000 1.0000
57.5000 719.0000 1.0000
57.5100 713.0000 1.0000
57.5200 678.0000 1.0000
57.5300 665.0000 1.0000
57.5400 683.0000 1.0000
57.5500 673.0000 1.0000
57.5600 713.0000 1.0000
57.5700 694.0000 1.0000
57.5800 695.0000 1.0000
57.5900 697.0000 1.0000
57.6000 677.0000 1.0000
57.6100 724.0000 1.0000
57.6200 677.0000 1.0000
57.6300 703.0000 1.0000
57.6400 731.0000 1.0000
57.6500 691.0000 1.0000
57.6600 673.0000 1.0000
57.6700 706.0000 1.0000
57.6800 721.0000 1.0000
57.6900 672.0000 1.0000
57.7000 700.0000 1.0000
57.7100 710.0000 1.0000
57.7200 697.0000 1.0000
57.7300 718.0000 1.0000
57.7400 707.0000 1.0000
57.7500 723.0000 1.0000
57.7600 708.0000 1.0000
57.7700 711.0000 1.0000
57.7800 686.0000 1.0000
57.7900 699.0000 1.0000
57.8000 718.0000 1.0000
57.8100 691.0000 1.0000
57.8200 696.0000 1.0000
57.8300 716.0000 1.0000
57.8400 689.0000 1.0000
57.8500 740.0000 1.0000
57.8600 721.0000 1.0000
57.8700 707.0000 1.0000
57.8800 738.0000 1.0000
57.8900 714.0000 1.0000
57.9000 756.0000 1.0000
57.9100 722.0000 1.0000
57.9200 679.0000 1.0000
57.9300 696.0000 1.0000
57.9400 725.0000 1.0000
57.9500 749.0000 1.0000
57.9600 745.0000 1.0000
57.9700 704.0000 1.0000
57.9800 715.0000 1.0000
57.9900 721.0000 1.0000
58.0000 728.0000 1.0000
58.0100 695.0000 1.0000
58.0200 723.0000 1.0000
58.0300 741.0000 1.0000
58.0400 730.0000 1.0000
58.0500 707.0000 1.0000
58.0600 725.0000 1.0000
58.0700 755.0000 1.0000
58.0800 695.0000 1.0000
58.0900 734.0000 1.0000
58.1000 683.0000 1.0000
58.1100 670.0000 1.0000
58.1200 718.0000 1.0000
58.1300 754.0000 1.0000
58.1400 733.0000 1.0000
58.1500 723.0000 1.0000
58.1600 678.0000 1.0000
58.1700 694.0000 1.0000
58.1800 709.0000 1.0000
58.1900 715.0000 1.0000
58.2000 746.0000 1.0000
58.2100 739.0000 1.0000
58.2200 707.0000 1.0000
58.2300 713.0000 1.0000
58.2400 711.0000 1.0000
58.2500 712.0000 1.0000
58.2600 685.0000 1.0000
58.2700 710.0000 1.0000
58.2800 717.0000 1.0000
58.2900 685.0000 1.0000
58.3000 745.0000 1.0000
58.3100 748.0000 1.0000
58.3200 760.0000 1.0000
58.3300 695.0000 1.0000
58.3400 728.0000 1.0000
58.3500 696.0000 1.0000
58.3600 728.0000 1.0000
58.3700 763.0000 1.0000
58.3800 727.0000 1.0000
58.3900 723.0000 1.0000
58.4000 726.0000 1.0000
58.4100 698.0000 1.0000
58.4200 689.0000 1.0000
58.4300 702.0000 1.0000
58.4400 736.0000 1.0000
58.4500 711.0000 1.0000
58.4600 738.0000 1.0000
58.4700 767.0000 1.0000
58.4800 662.0000 1.0000
58.4900 712.0000 1.0000
58.5000 695.0000 1.0000
58.5100 723.0000 1.0000
58.5200 726.0000 1.0000
58.5300 722.0000 1.0000
58.5400 726.0000 1.0000
58.5500 712.0000 1.0000
58.5600 734.0000 1.0000
58.5700 705.0000 1.0000
58.5800 722.0000 1.0000
58.5900 709.0000 1.0000
58.6000 677.0000 1.0000
58.6100 699.0000 1.0000
58.6200 717.0000 1.0000
58.6300 713.0000 1.0000
58.6400 650.0000 1.0000
58.6500 692.0000 1.0000
58.6600 725.0000 1.0000
58.6700 696.0000 1.0000
58.6800 731.0000 1.0000
58.6900 700.0000 1.0000
58.7000 708.0000 1.0000
58.7100 756.0000 1.0000
58.7200 697.0000 1.0000
58.7300 714.0000 1.0000
58.7400 723.0000 1.0000
58.7500 711.0000 1.0000
58.7600 705.0000 1.0000
58.7700 697.0000 1.0000
58.7800 663.0000 1.0000
58.7900 703.0000 1.0000
58.8000 686.0000 1.0000
58.8100 692.0000 1.0000
58.8200 643.0000 1.0000
58.8300 676.0000 1.0000
58.8400 669.0000 1.0000
58.8500 708.0000 1.0000
58.8600 696.0000 1.0000
58.8700 713.0000 1.0000
58.8800 696.0000 1.0000
58.8900 717.0000 1.0000
58.9000 727.0000 1.0000
58.9100 685.0000 1.0000
58.9200 730.0000 1.0000
58.9300 713.0000 1.0000
58.9400 703.0000 1.0000
58.9500 683.0000 1.0000
58.9600 751.0000 1.0000
58.9700 731.0000 1.0000
58.9800 673.0000 1.0000
58.9900 673.0000 1.0000
59.0000 723.0000 1.0000
59.0100 696.0000 1.0000
59.0200 736.0000 1.0000
59.0300 701.0000 1.0000
59.0400 700.0000 1.0000
59.0500 690.0000 1.0000
59.0600 689.0000 1.0000
59.0700 665.0000 1.0000
59.0800 661.0000 1.0000
59.0900 699.0000 1.0000
59.1000 685.0000 1.0000
59.1100 693.0000 1.0000
59.1200 709.0000 1.0000
59.1300 698.0000 1.0000
59.1400 700.0000 1.0000
59.1500 682.0000 1.0000
59.1600 754.0000 1.0000
59.1700 712.0000 1.0000
59.1800 700.0000 1.0000
59.1900 709.0000 1.0000
59.2000 736.0000 1.0000
59.2100 717.0000 1.0000
59.2200 690.0000 1.0000
59.2300 700.0000 1.0000
59.2400 660.0000 1.0000
59.2500 679.0000 1.0000
59.2600 711.0000 1.0000
59.2700 714.0000 1.0000
59.2800 692.0000 1.0000
59.2900 696.0000 1.0000
59.3000 686.0000 1.0000
59.3100 701.0000 1.0000
59.3200 722.0000 1.0000
59.3300 688.0000 1.0000
59.3400 704.0000 1.0000
59.3500 715.0000 1.0000
59.3600 714.0000 1.0000
59.3700 690.0000 1.0000
59.3800 703.0000 1.0000
59.3900 707.0000 1.0000
59.4000 698.0000 1.0000
59.4100 739.0000 1.0000
59.4200 695.0000 1.0000
59.4300 699.0000 1.0000
59.4400 706.0000 1.0000
59.4500 688.0000 1.0000
59.4600 721.0000 1.0000
59.4700 736.0000 1.0000
59.4800 714.0000 1.0000
59.4900 716.0000 1.0000
59.5000 733.0000 1.0000
59.5100 688.0000 1.0000
59.5200 673.0000 1.0000
59.5300 690.0000 1.0000
59.5400 696.0000 1.0000
59.5500 703.0000 1.0000
59.5600 699.0000 1.0000
59.5700 692.0000 1.0000
59.5800 724.0000 1.0000
59.5900 691.0000 1.0000
59.6000 666.0000 1.0000
59.6100 671.0000 1.0000
59.6200 691.0000 1.0000
59.6300 745.0000 1.0000
59.6400 680.0000 1.0000
59.6500 690.0000 1.0000
59.6600 668.0000 1.0000
59.6700 712.0000 1.0000
59.6800 701.0000 1.0000
59.6900 713.0000 1.0000
59.7000 708.0000 1.0000
59.7100 705.0000 1.0000
59.7200 706.0000 1.0000
59.7300 700.0000 1.0000
59.7400 683.0000 1.0000
59.7500 675.0000 1.0000
59.7600 678.0000 1.0000
59.7700 676.0000 1.0000
59.7800 713.0000 1.0000
59.7900 724.0000 1.0000
59.8000 689.0000 1.0000
59.8100 682.0000 1.0000
59.8200 684.0000 1.0000
59.8300 686.0000 1.0000
59.8400 654.0000 1.0000
59.8500 711.0000 1.0000
59.8600 688.0000 1.0000
59.8700 679.0000 1.0000
59.8800 689.0000 1.0000
59.8900 730.0000 1.0000
59.9000 720.0000 1.0000
59.9100 697.0000 1.0000
59.9200 723.0000 1.0000
59.9300 723.0000 1.0000
59.9400 706.0000 1.0000
59.9500 724.0000 1.0000
59.9600 708.0000 1.0000
59.9700 706.0000 1.0000
59.9800 707.0000 1.0000
59.9900 686.0000 1.0000
60.0000 723.0000 1.0000
60.0100 684.0000 1.0000
60.0200 694.0000 1.0000
60.0300 659.0000 1.0000
60.0400 674.0000 1.0000
60.0500 699.0000 1.0000
60.0600 692.0000 1.0000
60.0700 738.0000 1.0000
60.0800 701.0000 1.0000
60.0900 716.0000 1.0000
60.1000 696.0000 1.0000
60.1100 692.0000 1.0000
60.1200 733.0000 1.0000
60.1300 734.0000 1.0000
60.1400 673.0000 1.0000
60.1500 759.0000 1.0000
60.1600 700.0000 1.0000
60.1700 676.0000 1.0000
60.1800 675.0000 1.0000
60.1900 672.0000 1.0000
60.2000 711.0000 1.0000
60.2100 683.0000 1.0000
60.2200 716.0000 1.0000
60.2300 688.0000 1.0000
60.2400 697.0000 1.0000
60.2500 702.0000 1.0000
60.2600 662.0000 1.0000
60.2700 693.0000 1.0000
60.2800 728.0000 1.0000
60.2900 703.0000 1.0000
60.3000 713.0000 1.0000
60.3100 697.0000 1.0000
60.3200 678.0000 1.0000
60.3300 727.0000 1.0000
60.3400 714.0000 1.0000
60.3500 700.0000 1.0000
60.3600 687.0000 1.0000
60.3700 699.0000 1.0000
60.3800 688.0000 1.0000
60.3900 699.0000 1.0000
60.4000 723.0000 1.0000
60.4100 661.0000 1.0000
60.4200 680.0000 1.0000
60.4300 665.0000 1.0000
60.4400 706.0000 1.0000
60.4500 636.0000 1.0000
60.4600 675.0000 1.0000
60.4700 728.0000 1.0000
60.4800 686.0000 1.0000
60.4900 701.0000 1.0000
60.5000 722.0000 1.0000
60.5100 718.0000 1.0000
60.5200 719.0000 1.0000
60.5300 699.0000 1.0000
60.5400 720.0000 1.0000
60.5500 701.0000 1.0000
60.5600 666.0000 1.0000
60.5700 714.0000 1.0000
60.5800 731.0000 1.0000
60.5900 689.0000 1.0000
60.6000 671.0000 1.0000
60.6100 661.0000 1.0000
60.6200 703.0000 1.0000
60.6300 714.0000 1.0000
60.6400 702.0000 1.0000
60.6500 648.0000 1.0000
60.6600 679.0000 1.0000
60.6700 655.0000 1.0000
60.6800 683.0000 1.0000
60.6900 716.0000 1.0000
60.7000 661.0000 1.0000
60.7100 707.0000 1.0000
60.7200 682.0000 1.0000
60.7300 723.0000 1.0000
60.7400 698.0000 1.0000
60.7500 744.0000 1.0000
60.7600 694.0000 1.0000
60.7700 721.0000 1.0000
60.7800 720.0000 1.0000
60.7900 732.0000 1.0000
60.8000 697.0000 1.0000
60.8100 698.0000 1.0000
60.8200 686.0000 1.0000
60.8300 696.0000 1.0000
60.8400 669.0000 1.0000
60.8500 677.0000 1.0000
60.8600 694.0000 1.0000
60.8700 691.0000 1.0000
60.8800 698.0000 1.0000
60.8900 689.0000 1.0000
60.9000 730.0000 1.0000
60.9100 697.0000 1.0000
60.9200 705.0000 1.0000
60.9300 654.0000 1.0000
60.9400 703.0000 1.0000
60.9500 713.0000 1.0000
60.9600 706.0000 1.0000
60.9700 714.0000 1.0000
60.9800 686.0000 1.0000
60.9900 704.0000 1.0000
61.0000 682.0000 1.0000
61.0100 727.0000 1.0000
61.0200 698.0000 1.0000
61.0300 711.0000 1.0000
61.0400 714.0000 1.0000
61.0500 734.0000 1.0000
61.0600 674.0000 1.0000
61.0700 677.0000 1.0000
61.0800 685.0000 1.0000
61.0900 660.0000 1.0000
61.1000 667.0000 1.0000
61.1100 692.0000 1.0000
61.1200 709.0000 1.0000
61.1300 695.0000 1.0000
61.1400 655.0000 1.0000
61.1500 667.0000 1.0000
61.1600 703.0000 1.0000
61.1700 718.0000 1.0000
61.1800 696.0000 1.0000
61.1900 692.0000 1.0000
61.2000 738.0000 1.0000
61.2100 738.0000 1.0000
61.2200 706.0000 1.0000
61.2300 698.0000 1.0000
61.2400 734.0000 1.0000
61.2500 707.0000 1.0000
61.2600 703.0000 1.0000
61.2700 684.0000 1.0000
61.2800 686.0000 1.0000
61.2900 665.0000 1.0000
61.3000 671.0000 1.0000
61.3100 714.0000 1.0000
61.3200 740.0000 1.0000
61.3300 748.0000 1.0000
61.3400 746.0000 1.0000
61.3500 706.0000 1.0000
61.3600 715.0000 1.0000
61.3700 695.0000 1.0000
61.3800 716.0000 1.0000
61.3900 721.0000 1.0000
61.4000 643.0000 1.0000
61.4100 683.0000 1.0000
61.4200 716.0000 1.0000
61.4300 718.0000 1.0000
61.4400 695.0000 1.0000
61.4500 714.0000 1.0000
61.4600 677.0000 1.0000
61.4700 673.0000 1.0000
61.4800 714.0000 1.0000
61.4900 708.0000 1.0000
61.5000 717.0000 1.0000
61.5100 701.0000 1.0000
61.5200 739.0000 1.0000
61.5300 774.0000 1.0000
61.5400 715.0000 1.0000
61.5500 717.0000 1.0000
61.5600 687.0000 1.0000
61.5700 709.0000 1.0000
61.5800 724.0000 1.0000
61.5900 687.0000 1.0000
61.6000 695.0000 1.0000
61.6100 707.0000 1.0000
61.6200 715.0000 1.0000
61.6300 696.0000 1.0000
61.6400 745.0000 1.0000
61.6500 712.0000 1.0000
61.6600 765.0000 1.0000
61.6700 718.0000 1.0000
61.6800 732.0000 1.0000
61.6900 709.0000 1.0000
61.7000 712.0000 1.0000
61.7100 731.0000 1.0000
61.7200 772.0000 1.0000
61.7300 733.0000 1.0000
61.7400 739.0000 1.0000
61.7500 744.0000 1.0000
61.7600 806.0000 1.0000
61.7700 758.0000 1.0000
61.7800 716.0000 1.0000
61.7900 732.0000 1.0000
61.8000 795.0000 1.0000
61.8100 744.0000 1.0000
61.8200 798.0000 1.0000
61.8300 783.0000 1.0000
61.8400 732.0000 1.0000
61.8500 792.0000 1.0000
61.8600 786.0000 1.0000
61.8700 792.0000 1.0000
61.8800 763.0000 1.0000
61.8900 794.0000 1.0000
61.9000 800.0000 1.0000
61.9100 770.0000 1.0000
61.9200 824.0000 1.0000
61.9300 827.0000 1.0000
61.9400 830.0000 1.0000
61.9500 852.0000 1.0000
61.9600 853.0000 1.0000
61.9700 900.0000 1.0000
61.9800 878.0000 1.0000
61.9900 886.0000 1.0000
62.0000 867.0000 1.0000
62.0100 906.0000 1.0000
62.0200 883.0000 1.0000
62.0300 956.0000 1.0000
62.0400 949.0000 1.0000
62.0500 927.0000 1.0000
62.0600 942.0000 1.0000
62.0700 989.0000 1.0000
62.0800 1020.0000 1.0000
62.0900 1015.0000 1.0000
62.1000 1057.0000 1.0000
62.1100 1106.0000 1.0000
62.1200 1174.0000 1.0000
62.1300 1138.0000 1.0000
62.1400 1166.0000 1.0000
62.1500 1204.0000 1.0000
62.1600 1247.0000 1.0000
62.1700 1324.0000 1.0000
62.1800 1337.0000 1.0000
62.1900 1339.0000 1.0000
62.2000 1366.0000 1.0000
62.2100 1409.0000 1.0000
62.2200 1472.0000 1.0000
62.2300 1475.0000 1.0000
62.2400 1483.0000 1.0000
62.2500 1532.0000 1.0000
62.2600 1585.0000 1.0000
62.2700 1641.0000 1.0000
62.2800 1552.0000 1.0000
62.2900 1616.0000 1.0000
62.3000 1693.0000 1.0000
62.3100 1778.0000 1.0000
62.3200 1652.0000 1.0000
62.3300 1640.0000 1.0000
62.3400 1677.0000 1.0000
62.3500 1683.0000 1.0000
62.3600 1685.0000 1.0000
62.3700 1692.0000 1.0000
62.3800 1624.0000 1.0000
62.3900 1656.0000 1.0000
62.4000 1658.0000 1.0000
62.4100 1566.0000 1.0000
62.4200 1647.0000 1.0000
62.4300 1611.0000 1.0000
62.4400 1556.0000 1.0000
62.4500 1464.0000 1.0000
62.4600 1461.0000 1.0000
62.4700 1469.0000 1.0000
62.4800 1395.0000 1.0000
62.4900 1471.0000 1.0000
62.5000 1435.0000 1.0000
62.5100 1383.0000 1.0000
62.5200 1284.0000 1.0000
62.5300 1330.0000 1.0000
62.5400 1240.0000 1.0000
62.5500 1205.0000 1.0000
62.5600 1262.0000 1.0000
62.5700 1226.0000 1.0000
62.5800 1183.0000 1.0000
62.5900 1166.0000 1.0000
62.6000 1118.0000 1.0000
62.6100 1140.0000 1.0000
62.6200 1063.0000 1.0000
62.6300 1043.0000 1.0000
62.6400 983.0000 1.0000
62.6500 1035.0000 1.0000
62.6600 1038.0000 1.0000
62.6700 981.0000 1.0000
62.6800 966.0000 1.0000
62.6900 984.0000 1.0000
62.7000 970.0000 1.0000
62.7100 913.0000 1.0000
62.7200 923.0000 1.0000
62.7300 936.0000 1.0000
62.7400 894.0000 1.0000
62.7500 882.0000 1.0000
62.7600 878.0000 1.0000
62.7700 895.0000 1.0000
62.7800 853.0000 1.0000
62.7900 869.0000 1.0000
62.8000 893.0000 1.0000
62.8100 871.0000 1.0000
62.8200 859.0000 1.0000
62.8300 862.0000 1.0000
62.8400 799.0000 1.0000
62.8500 774.0000 1.0000
62.8600 838.0000 1.0000
62.8700 832.0000 1.0000
62.8800 794.0000 1.0000
62.8900 802.0000 1.0000
62.9000 782.0000 1.0000
62.9100 784.0000 1.0000
62.9200 782.0000 1.0000
62.9300 783.0000 1.0000
62.9400 792.0000 1.0000
62.9500 774.0000 1.0000
62.9600 782.0000 1.0000
62.9700 764.0000 1.0000
62.9800 775.0000 1.0000
62.9900 801.0000 1.0000
63.0000 827.0000 1.0000
63.0100 783.0000 1.0000
63.0200 726.0000 1.0000
63.0300 762.0000 1.0000
63.0400 798.0000 1.0000
63.0500 760.0000 1.0000
63.0600 745.0000 1.0000
63.0700 756.0000 1.0000
63.0800 764.0000 1.0000
63.0900 784.0000 1.0000
63.1000 736.0000 1.0000
63.1100 774.0000 1.0000
63.1200 790.0000 1.0000
63.1300 739.0000 1.0000
63.1400 745.0000 1.0000
63.1500 737.0000 1.0000
63.1600 762.0000 1.0000
63.1700 744.0000 1.0000
63.1800 722.0000 1.0000
63.1900 734.0000 1.0000
63.2000 761.0000 1.0000
63.2100 724.0000 1.0000
63.2200 739.0000 1.0000
63.2300 760.0000 1.0000
63.2400 771.0000 1.0000
63.2500 787.0000 1.0000
63.2600 755.0000 1.0000
63.2700 749.0000 1.0000
63.2800 764.0000 1.0000
63.2900 730.0000 1.0000
63.3000 719.0000 1.0000
63.3100 733.0000 1.0000
63.3200 699.0000 1.0000
63.3300 766.0000 1.0000
63.3400 780.0000 1.0000
63.3500 716.0000 1.0000
63.3600 767.0000 1.0000
63.3700 719.0000 1.0000
63.3800 760.0000 1.0000
63.3900 776.0000 1.0000
63.4000 711.0000 1.0000
63.4100 675.0000 1.0000
63.4200 741.0000 1.0000
63.4300 725.0000 1.0000
63.4400 785.0000 1.0000
63.4500 733.0000 1.0000
63.4600 715.0000 1.0000
63.4700 728.0000 1.0000
63.4800 726.0000 1.0000
63.4900 791.0000 1.0000
63.5000 731.0000 1.0000
63.5100 698.0000 1.0000
63.5200 682.0000 1.0000
63.5300 712.0000 1.0000
63.5400 730.0000 1.0000
63.5500 700.0000 1.0000
63.5600 741.0000 1.0000
63.5700 726.0000 1.0000
63.5800 720.0000 1.0000
63.5900 713.0000 1.0000
63.6000 710.0000 1.0000
63.6100 670.0000 1.0000
63.6200 689.0000 1.0000
63.6300 687.0000 1.0000
63.6400 756.0000 1.0000
63.6500 749.0000 1.0000
63.6600 754.0000 1.0000
63.6700 708.0000 1.0000
63.6800 691.0000 1.0000
63.6900 694.0000 1.0000
63.7000 744.0000 1.0000
63.7100 729.0000 1.0000
63.7200 731.0000 1.0000
63.7300 752.0000 1.0000
63.7400 738.0000 1.0000
63.7500 720.0000 1.0000
63.7600 713.0000 1.0000
63.7700 706.0000 1.0000
63.7800 732.0000 1.0000
63.7900 752.0000 1.0000
63.8000 717.0000 1.0000
63.8100 750.0000 1.0000
63.8200 764.0000 1.0000
63.8300 723.0000 1.0000
63.8400 745.0000 1.0000
63.8500 692.0000 1.0000
63.8600 701.0000 1.0000
63.8700 754.0000 1.0000
63.8800 733.0000 1.0000
63.8900 705.0000 1.0000
63.9000 702.0000 1.0000
63.9100 737.0000 1.0000
63.9200 728.0000 1.0000
63.9300 704.0000 1.0000
63.9400 714.0000 1.0000
63.9500 738.0000 1.0000
63.9600 699.0000 1.0000
63.9700 782.0000 1.0000
63.9800 707.0000 1.0000
63.9900 686.0000 1.0000
64.0000 757.0000 1.0000
64.0100 730.0000 1.0000
64.0200 684.0000 1.0000
64.0300 731.0000 1.0000
64.0400 734.0000 1.0000
64.0500 743.0000 1.0000
64.0600 756.0000 1.0000
64.0700 721.0000 1.0000
64.0800 738.0000 1.0000
64.0900 740.0000 1.0000
64.1000 678.0000 1.0000
64.1100 740.0000 1.0000
64.1200 762.0000 1.0000
64.1300 732.0000 1.0000
64.1400 683.0000 1.0000
64.1500 735.0000 1.0000
64.1600 745.0000 1.0000
64.1700 695.0000 1.0000
64.1800 729.0000 1.0000
64.1900 742.0000 1.0000
64.2000 727.0000 1.0000
64.2100 710.0000 1.0000
64.2200 681.0000 1.0000
64.2300 749.0000 1.0000
64.2400 735.0000 1.0000
64.2500 736.0000 1.0000
64.2600 744.0000 1.0000
64.2700 738.0000 1.0000
64.2800 750.0000 1.0000
64.2900 733.0000 1.0000
64.3000 720.0000 1.0000
64.3100 751.0000 1.0000
64.3200 701.0000 1.0000
64.3300 754.0000 1.0000
64.3400 770.0000 1.0000
64.3500 738.0000 1.0000
64.3600 746.0000 1.0000
64.3700 750.0000 1.0000
64.3800 784.0000 1.0000
64.3900 762.0000 1.0000
64.4000 762.0000 1.0000
64.4100 803.0000 1.0000
64.4200 768.0000 1.0000
64.4300 785.0000 1.0000
64.4400 760.0000 1.0000
64.4500 794.0000 1.0000
64.4600 812.0000 1.0000
64.4700 791.0000 1.0000
64.4800 824.0000 1.0000
64.4900 804.0000 1.0000
64.5000 867.0000 1.0000
64.5100 826.0000 1.0000
64.5200 800.0000 1.0000
64.5300 777.0000 1.0000
64.5400 870.0000 1.0000
64.5500 864.0000 1.0000
64.5600 811.0000 1.0000
64.5700 868.0000 1.0000
64.5800 864.0000 1.0000
64.5900 871.0000 1.0000
64.6000 874.0000 1.0000
64.6100 936.0000 1.0000
64.6200 924.0000 1.0000
64.6300 925.0000 1.0000
64.6400 908.0000 1.0000
64.6500 913.0000 1.0000
64.6600 916.0000 1.0000
64.6700 966.0000 1.0000
64.6800 973.0000 1.0000
64.6900 929.0000 1.0000
64.7000 927.0000 1.0000
64.7100 983.0000 1.0000
64.7200 969.0000 1.0000
64.7300 1010.0000 1.0000
64.7400 955.0000 1.0000
64.7500 990.0000 1.0000
64.7600 957.0000 1.0000
64.7700 987.0000 1.0000
64.7800 990.0000 1.0000
64.7900 951.0000 1.0000
64.8000 941.0000 1.0000
64.8100 1004.0000 1.0000
64.8200 953.0000 1.0000
64.8300 921.0000 1.0000
64.8400 948.0000 1.0000
64.8500 925.0000 1.0000
64.8600 910.0000 1.0000
64.8700 934.0000 1.0000
64.8800 940.0000 1.0000
64.8900 875.0000 1.0000
64.9000 963.0000 1.0000
64.9100 897.0000 1.0000
64.9200 889.0000 1.0000
64.9300 935.0000 1.0000
64.9400 897.0000 1.0000
64.9500 966.0000 1.0000
64.9600 892.0000 1.0000
64.9700 858.0000 1.0000
64.9800 891.0000 1.0000
64.9900 885.0000 1.0000
65.0000 870.0000 1.0000
65.0100 841.0000 1.0000
65.0200 861.0000 1.0000
65.0300 911.0000 1.0000
65.0400 839.0000 1.0000
65.0500 843.0000 1.0000
65.0600 831.0000 1.0000
65.0700 801.0000 1.0000
65.0800 840.0000 1.0000
65.0900 789.0000 1.0000
65.1000 807.0000 1.0000
65.1100 803.0000 1.0000
65.1200 764.0000 1.0000
65.1300 813.0000 1.0000
65.1400 794.0000 1.0000
65.1500 769.0000 1.0000
65.1600 727.0000 1.0000
65.1700 817.0000 1.0000
65.1800 773.0000 1.0000
65.1900 750.0000 1.0000
65.2000 755.0000 1.0000
65.2100 730.0000 1.0000
65.2200 783.0000 1.0000
65.2300 758.0000 1.0000
65.2400 745.0000 1.0000
65.2500 760.0000 1.0000
65.2600 742.0000 1.0000
65.2700 739.0000 1.0000
65.2800 793.0000 1.0000
65.2900 815.0000 1.0000
65.3000 744.0000 1.0000
65.3100 724.0000 1.0000
65.3200 777.0000 1.0000
65.3300 754.0000 1.0000
65.3400 777.0000 1.0000
65.3500 734.0000 1.0000
65.3600 741.0000 1.0000
65.3700 715.0000 1.0000
65.3800 721.0000 1.0000
65.3900 757.0000 1.0000
65.4000 736.0000 1.0000
65.4100 757.0000 1.0000
65.4200 744.0000 1.0000
65.4300 761.0000 1.0000
65.4400 784.0000 1.0000
65.4500 750.0000 1.0000
65.4600 718.0000 1.0000
65.4700 783.0000 1.0000
65.4800 724.0000 1.0000
65.4900 715.0000 1.0000
65.5000 749.0000 1.0000
65.5100 778.0000 1.0000
65.5200 759.0000 1.0000
65.5300 756.0000 1.0000
65.5400 722.0000 1.0000
65.5500 762.0000 1.0000
65.5600 811.0000 1.0000
65.5700 733.0000 1.0000
65.5800 766.0000 1.0000
65.5900 734.0000 1.0000
65.6000 759.0000 1.0000
65.6100 780.0000 1.0000
65.6200 775.0000 1.0000
65.6300 747.0000 1.0000
65.6400 737.0000 1.0000
65.6500 734.0000 1.0000
65.6600 789.0000 1.0000
65.6700 791.0000 1.0000
65.6800 751.0000 1.0000
65.6900 750.0000 1.0000
65.7000 808.0000 1.0000
65.7100 768.0000 1.0000
65.7200 783.0000 1.0000
65.7300 786.0000 1.0000
65.7400 810.0000 1.0000
65.7500 809.0000 1.0000
65.7600 776.0000 1.0000
65.7700 780.0000 1.0000
65.7800 813.0000 1.0000
65.7900 788.0000 1.0000
65.8000 806.0000 1.0000
65.8100 860.0000 1.0000
65.8200 784.0000 1.0000
65.8300 810.0000 1.0000
65.8400 888.0000 1.0000
65.8500 876.0000 1.0000
65.8600 877.0000 1.0000
65.8700 861.0000 1.0000
65.8800 929.0000 1.0000
65.8900 860.0000 1.0000
65.9000 848.0000 1.0000
65.9100 894.0000 1.0000
65.9200 886.0000 1.0000
65.9300 915.0000 1.0000
65.9400 936.0000 1.0000
65.9500 955.0000 1.0000
65.9600 914.0000 1.0000
65.9700 924.0000 1.0000
65.9800 1008.0000 1.0000
65.9900 993.0000 1.0000
66.0000 1053.0000 1.0000
66.0100 1045.0000 1.0000
66.0200 1075.0000 1.0000
66.0300 1118.0000 1.0000
66.0400 1085.0000 1.0000
66.0500 1125.0000 1.0000
66.0600 1227.0000 1.0000
66.0700 1264.0000 1.0000
66.0800 1314.0000 1.0000
66.0900 1292.0000 1.0000
66.1000 1430.0000 1.0000
66.1100 1503.0000 1.0000
66.1200 1545.0000 1.0000
66.1300 1569.0000 1.0000
66.1400 1646.0000 1.0000
66.1500 1804.0000 1.0000
66.1600 1804.0000 1.0000
66.1700 1996.0000 1.0000
66.1800 2086.0000 1.0000
66.1900 2123.0000 1.0000
66.2000 2238.0000 1.0000
66.2100 2369.0000 1.0000
66.2200 2477.0000 1.0000
66.2300 2476.0000 1.0000
66.2400 2574.0000 1.0000
66.2500 2567.0000 1.0000
66.2600 2683.0000 1.0000
66.2700 2597.0000 1.0000
66.2800 2675.0000 1.0000
66.2900 2686.0000 1.0000
66.3000 2581.0000 1.0000
66.3100 2570.0000 1.0000
66.3200 2470.0000 1.0000
66.3300 2475.0000 1.0000
66.3400 2382.0000 1.0000
66.3500 2419.0000 1.0000
66.3600 2348.0000 1.0000
66.3700 2353.0000 1.0000
66.3800 2314.0000 1.0000
66.3900 2233.0000 1.0000
66.4000 2231.0000 1.0000
66.4100 2278.0000 1.0000
66.4200 2246.0000 1.0000
66.4300 2190.0000 1.0000
66.4400 2150.0000 1.0000
66.4500 2076.0000 1.0000
66.4600 2043.0000 1.0000
66.4700 1984.0000 1.0000
66.4800 1940.0000 1.0000
66.4900 1888.0000 1.0000
66.5000 1872.0000 1.0000
66.5100 1779.0000 1.0000
66.5200 1600.0000 1.0000
66.5300 1521.0000 1.0000
66.5400 1551.0000 1.0000
66.5500 1464.0000 1.0000
66.5600 1403.0000 1.0000
66.5700 1448.0000 1.0000
66.5800 1364.0000 1.0000
66.5900 1272.0000 1.0000
66.6000 1221.0000 1.0000
66.6100 1161.0000 1.0000
66.6200 1243.0000 1.0000
66.6300 1084.0000 1.0000
66.6400 1101.0000 1.0000
66.6500 1062.0000 1.0000
66.6600 1076.0000 1.0000
66.6700 1040.0000 1.0000
66.6800 1034.0000 1.0000
66.6900 1031.0000 1.0000
66.7000 934.0000 1.0000
66.7100 982.0000 1.0000
66.7200 945.0000 1.0000
66.7300 916.0000 1.0000
66.7400 915.0000 1.0000
66.7500 916.0000 1.0000
66.7600 868.0000 1.0000
66.7700 831.0000 1.0000
66.7800 845.0000 1.0000
66.7900 853.0000 1.0000
66.8000 832.0000 1.0000
66.8100 852.0000 1.0000
66.8200 767.0000 1.0000
66.8300 821.0000 1.0000
66.8400 802.0000 1.0000
66.8500 865.0000 1.0000
66.8600 870.0000 1.0000
66.8700 765.0000 1.0000
66.8800 793.0000 1.0000
66.8900 820.0000 1.0000
66.9000 766.0000 1.0000
66.9100 746.0000 1.0000
66.9200 732.0000 1.0000
66.9300 704.0000 1.0000
66.9400 720.0000 1.0000
66.9500 729.0000 1.0000
66.9600 704.0000 1.0000
66.9700 765.0000 1.0000
66.9800 734.0000 1.0000
66.9900 736.0000 1.0000
67.0000 696.0000 1.0000
67.0100 706.0000 1.0000
67.0200 723.0000 1.0000
67.0300 710.0000 1.0000
67.0400 751.0000 1.0000
67.0500 724.0000 1.0000
67.0600 709.0000 1.0000
67.0700 717.0000 1.0000
67.0800 698.0000 1.0000
67.0900 713.0000 1.0000
67.1000 733.0000 1.0000
67.1100 710.0000 1.0000
67.1200 706.0000 1.0000
67.1300 716.0000 1.0000
67.1400 707.0000 1.0000
67.1500 694.0000 1.0000
67.1600 685.0000 1.0000
67.1700 668.0000 1.0000
67.1800 722.0000 1.0000
67.1900 700.0000 1.0000
67.2000 707.0000 1.0000
67.2100 666.0000 1.0000
67.2200 655.0000 1.0000
67.2300 723.0000 1.0000
67.2400 670.0000 1.0000
67.2500 707.0000 1.0000
67.2600 653.0000 1.0000
67.2700 665.0000 1.0000
67.2800 725.0000 1.0000
67.2900 665.0000 1.0000
67.3000 650.0000 1.0000
67.3100 644.0000 1.0000
67.3200 678.0000 1.0000
67.3300 652.0000 1.0000
67.3400 687.0000 1.0000
67.3500 682.0000 1.0000
67.3600 686.0000 1.0000
67.3700 694.0000 1.0000
67.3800 685.0000 1.0000
67.3900 681.0000 1.0000
67.4000 659.0000 1.0000
67.4100 669.0000 1.0000
67.4200 658.0000 1.0000
67.4300 661.0000 1.0000
67.4400 666.0000 1.0000
67.4500 661.0000 1.0000
67.4600 690.0000 1.0000
67.4700 656.0000 1.0000
67.4800 631.0000 1.0000
67.4900 687.0000 1.0000
67.5000 681.0000 1.0000
67.5100 685.0000 1.0000
67.5200 665.0000 1.0000
67.5300 677.0000 1.0000
67.5400 609.0000 1.0000
67.5500 615.0000 1.0000
67.5600 686.0000 1.0000
67.5700 682.0000 1.0000
67.5800 637.0000 1.0000
67.5900 655.0000 1.0000
67.6000 649.0000 1.0000
67.6100 667.0000 1.0000
67.6200 642.0000 1.0000
67.6300 653.0000 1.0000
67.6400 688.0000 1.0000
67.6500 662.0000 1.0000
67.6600 688.0000 1.0000
67.6700 668.0000 1.0000
67.6800 683.0000 1.0000
67.6900 653.0000 1.0000
67.7000 639.0000 1.0000
67.7100 676.0000 1.0000
67.7200 652.0000 1.0000
67.7300 678.0000 1.0000
67.7400 667.0000 1.0000
67.7500 644.0000 1.0000
67.7600 676.0000 1.0000
67.7700 659.0000 1.0000
67.7800 690.0000 1.0000
67.7900 658.0000 1.0000
67.8000 637.0000 1.0000
67.8100 593.0000 1.0000
67.8200 651.0000 1.0000
67.8300 658.0000 1.0000
67.8400 632.0000 1.0000
67.8500 685.0000 1.0000
67.8600 697.0000 1.0000
67.8700 687.0000 1.0000
67.8800 662.0000 1.0000
67.8900 665.0000 1.0000
67.9000 641.0000 1.0000
67.9100 622.0000 1.0000
67.9200 651.0000 1.0000
67.9300 644.0000 1.0000
67.9400 639.0000 1.0000
67.9500 681.0000 1.0000
67.9600 659.0000 1.0000
67.9700 669.0000 1.0000
67.9800 674.0000 1.0000
67.9900 635.0000 1.0000
68.0000 653.0000 1.0000
68.0100 637.0000 1.0000
68.0200 698.0000 1.0000
68.0300 657.0000 1.0000
68.0400 623.0000 1.0000
68.0500 611.0000 1.0000
68.0600 631.0000 1.0000
68.0700 643.0000 1.0000
68.0800 647.0000 1.0000
68.0900 643.0000 1.0000
68.1000 669.0000 1.0000
68.1100 635.0000 1.0000
68.1200 645.0000 1.0000
68.1300 672.0000 1.0000
68.1400 640.0000 1.0000
68.1500 655.0000 1.0000
68.1600 630.0000 1.0000
68.1700 642.0000 1.0000
68.1800 676.0000 1.0000
68.1900 695.0000 1.0000
68.2000 610.0000 1.0000
68.2100 647.0000 1.0000
68.2200 649.0000 1.0000
68.2300 663.0000 1.0000
68.2400 628.0000 1.0000
68.2500 630.0000 1.0000
68.2600 654.0000 1.0000
68.2700 654.0000 1.0000
68.2800 677.0000 1.0000
68.2900 622.0000 1.0000
68.3000 625.0000 1.0000
68.3100 597.0000 1.0000
68.3200 676.0000 1.0000
68.3300 656.0000 1.0000
68.3400 651.0000 1.0000
68.3500 662.0000 1.0000
68.3600 643.0000 1.0000
68.3700 620.0000 1.0000
68.3800 662.0000 1.0000
68.3900 658.0000 1.0000
68.4000 648.0000 1.0000
68.4100 680.0000 1.0000
68.4200 631.0000 1.0000
68.4300 635.0000 1.0000
68.4400 660.0000 1.0000
68.4500 628.0000 1.0000
68.4600 681.0000 1.0000
68.4700 634.0000 1.0000
68.4800 658.0000 1.0000
68.4900 640.0000 1.0000
68.5000 641.0000 1.0000
68.5100 653.0000 1.0000
68.5200 664.0000 1.0000
68.5300 660.0000 1.0000
68.5400 622.0000 1.0000
68.5500 619.0000 1.0000
68.5600 662.0000 1.0000
68.5700 642.0000 1.0000
68.5800 638.0000 1.0000
68.5900 663.0000 1.0000
68.6000 658.0000 1.0000
68.6100 627.0000 1.0000
68.6200 618.0000 1.0000
68.6300 605.0000 1.0000
68.6400 677.0000 1.0000
68.6500 605.0000 1.0000
68.6600 625.0000 1.0000
68.6700 627.0000 1.0000
68.6800 648.0000 1.0000
68.6900 672.0000 1.0000
68.7000 614.0000 1.0000
68.7100 614.0000 1.0000
68.7200 622.0000 1.0000
68.7300 614.0000 1.0000
68.7400 651.0000 1.0000
68.7500 661.0000 1.0000
68.7600 654.0000 1.0000
68.7700 659.0000 1.0000
68.7800 651.0000 1.0000
68.7900 614.0000 1.0000
68.8000 622.0000 1.0000
68.8100 634.0000 1.0000
68.8200 666.0000 1.0000
68.8300 640.0000 1.0000
68.8400 662.0000 1.0000
68.8500 665.0000 1.0000
68.8600 599.0000 1.0000
68.8700 662.0000 1.0000
68.8800 606.0000 1.0000
68.8900 597.0000 1.0000
68.9000 630.0000 1.0000
68.9100 630.0000 1.0000
68.9200 617.0000 1.0000
68.9300 621.0000 1.0000
68.9400 598.0000 1.0000
68.9500 608.0000 1.0000
68.9600 590.0000 1.0000
68.9700 631.0000 1.0000
68.9800 643.0000 1.0000
68.9900 653.0000 1.0000
69.0000 606.0000 1.0000
69.0100 605.0000 1.0000
69.0200 615.0000 1.0000
69.0300 619.0000 1.0000
69.0400 590.0000 1.0000
69.0500 651.0000 1.0000
69.0600 640.0000 1.0000
69.0700 609.0000 1.0000
69.0800 621.0000 1.0000
69.0900 643.0000 1.0000
69.1000 611.0000 1.0000
69.1100 630.0000 1.0000
69.1200 623.0000 1.0000
69.1300 648.0000 1.0000
69.1400 626.0000 1.0000
69.1500 650.0000 1.0000
69.1600 576.0000 1.0000
69.1700 650.0000 1.0000
69.1800 620.0000 1.0000
69.1900 632.0000 1.0000
69.2000 607.0000 1.0000
69.2100 639.0000 1.0000
69.2200 654.0000 1.0000
69.2300 638.0000 1.0000
69.2400 594.0000 1.0000
69.2500 636.0000 1.0000
69.2600 625.0000 1.0000
69.2700 628.0000 1.0000
69.2800 623.0000 1.0000
69.2900 601.0000 1.0000
69.3000 601.0000 1.0000
69.3100 618.0000 1.0000
69.3200 610.0000 1.0000
69.3300 598.0000 1.0000
69.3400 632.0000 1.0000
69.3500 623.0000 1.0000
69.3600 618.0000 1.0000
69.3700 660.0000 1.0000
69.3800 629.0000 1.0000
69.3900 646.0000 1.0000
69.4000 596.0000 1.0000
69.4100 632.0000 1.0000
69.4200 639.0000 1.0000
69.4300 631.0000 1.0000
69.4400 631.0000 1.0000
69.4500 670.0000 1.0000
69.4600 633.0000 1.0000
69.4700 616.0000 1.0000
69.4800 621.0000 1.0000
69.4900 625.0000 1.0000
69.5000 633.0000 1.0000
69.5100 626.0000 1.0000
69.5200 612.0000 1.0000
69.5300 653.0000 1.0000
69.5400 624.0000 1.0000
69.5500 645.0000 1.0000
69.5600 644.0000 1.0000
69.5700 674.0000 1.0000
69.5800 634.0000 1.0000
69.5900 656.0000 1.0000
69.6000 631.0000 1.0000
69.6100 632.0000 1.0000
69.6200 620.0000 1.0000
69.6300 653.0000 1.0000
69.6400 624.0000 1.0000
69.6500 613.0000 1.0000
69.6600 689.0000 1.0000
69.6700 649.0000 1.0000
69.6800 619.0000 1.0000
69.6900 662.0000 1.0000
69.7000 643.0000 1.0000
69.7100 634.0000 1.0000
69.7200 609.0000 1.0000
69.7300 614.0000 1.0000
69.7400 708.0000 1.0000
69.7500 617.0000 1.0000
69.7600 643.0000 1.0000
69.7700 623.0000 1.0000
69.7800 618.0000 1.0000
69.7900 655.0000 1.0000
69.8000 635.0000 1.0000
69.8100 646.0000 1.0000
69.8200 624.0000 1.0000
69.8300 630.0000 1.0000
69.8400 680.0000 1.0000
69.8500 658.0000 1.0000
69.8600 659.0000 1.0000
69.8700 621.0000 1.0000
69.8800 606.0000 1.0000
69.8900 616.0000 1.0000
69.9000 665.0000 1.0000
69.9100 618.0000 1.0000
69.9200 630.0000 1.0000
69.9300 611.0000 1.0000
69.9400 622.0000 1.0000
69.9500 635.0000 1.0000
69.9600 663.0000 1.0000
69.9700 609.0000 1.0000
69.9800 582.0000 1.0000
69.9900 564.0000 1.0000
70.0000 622.0000 1.0000
*RAS_INT_END
*RAS_TEMPERATURE_START
*RAS_TEMPERATURE_END
*RAS_DATA_END
