*RAS_DATA_START
*RAS_HEADER_START
*DISP_FMT_X "%.2f"
*DISP_FMT_Y "%.0f"
*DISP_FULLSCALE "15166.0000000000"
*DISP_LINE_COLOR "255.0000000000"
*DISP_LINE_STYLE "0.0000000000"
*DISP_LINE_WIDTH "0.2500000000"
*DISP_NOTE "測定データ-3"
*DISP_OFFSET_Y "0.0000000000"
*DISP_PEAKSEARCH_UNIT_Y "cps"
*DISP_RANGE_BOTTOM "0.0000000000"
*DISP_RANGE_LEFT "20.0000000000"
*DISP_RANGE_LOGCUTOFF "0.0100000000"
*DISP_RANGE_RIGHT "70.0000000000"
*DISP_RANGE_TOP "15166.0000000000"
*DISP_SCALE_MODE_Y "0.0000000000"
*DISP_TAB_NAME "2θ/θ"
*DISP_TITLE_Y "強度"
*DISP_UNIT_Y "cps"
*DISP_WINDOW_NAME "MSG_MACROENGINE"
*FILE_COMMENT " "
*FILE_MD5 ""
*FILE_MEMO " "
*FILE_OPERATOR "Administrator"
*FILE_SAMPLE " "
*FILE_TYPE "RAS_RAW"
*FILE_USERGROUP "システムマネージャ"
*FILE_VERSION "1.0000000000"
*HW_ATTACHMENT_ID "ATT0025"
*HW_ATTACHMENT_NAME "標準|Standard"
*HW_COUNTER_ID-0 "CUT0025"
*HW_COUNTER_ID-1 "CUT0020"
*HW_COUNTER_ID-2 "CUT0020"
*HW_COUNTER_ID-3 "CSL0021"
*HW_COUNTER_ID-4 "CMC0021"
*HW_COUNTER_NAME-0 "D/teX Ultra|D/teX Ultra"
*HW_COUNTER_NAME-1 "None|None"
*HW_COUNTER_NAME-2 "None|None"
*HW_COUNTER_NAME-3 "BBM|BBM"
*HW_COUNTER_NAME-4 "検出器モノクロメータ|Detector monochromator"
*HW_COUNTER_SELECT_NAME "D/teX Ultra|D/teX Ultra"
*HW_GONIOMETER_ID "GON0023"
*HW_GONIOMETER_NAME "SmartLab|SmartLab"
*HW_GONIOMETER_RADIUS-0 "90.0"
*HW_GONIOMETER_RADIUS-1 "114.0"
*HW_GONIOMETER_RADIUS-2 "190.0"
*HW_GONIOMETER_RADIUS-3 "300.0"
*HW_GONIOMETER_RADIUS-4 "187.0"
*HW_GONIOMETER_RADIUS-5 "300.0"
*HW_GONIOMETER_RADIUS-6 "113.0"
*HW_GONIOMETER_RADIUS-7 "331.0"
*HW_I_OPT_ID-0 "CBO0021"
*HW_I_OPT_ID-1 "ICR0023"
*HW_I_OPT_ID-2 "ISL0021"
*HW_I_OPT_ID-3 "ISO0021"
*HW_I_OPT_ID-4 "IAD0021"
*HW_I_OPT_ID-5 "IPR0001"
*HW_I_OPT_NAME-0 "CBOユニット|CBO unit"
*HW_I_OPT_NAME-1 "標準入射光学ユニット|Standard incident optical unit"
*HW_I_OPT_NAME-2 "標準入射スリットボックス|Standard incident slit box"
*HW_I_OPT_NAME-3 "入射平行スリット|Incident parallel slit"
*HW_I_OPT_NAME-4 "長手制限スリット|Length limiting slit"
*HW_I_OPT_NAME-5 "None|None"
*HW_R_ATTENUATER_AUTOMODE "0"
*HW_R_OPT_ID-0 "RSS0021"
*HW_R_OPT_ID-1 "RCR0023"
*HW_R_OPT_ID-2 "RSO0021"
*HW_R_OPT_ID-3 "RRS0021"
*HW_R_OPT_ID-4 "ATN0021"
*HW_R_OPT_ID-5 "RFL0021"
*HW_R_OPT_ID-6 "RAD0021"
*HW_R_OPT_NAME-0 "標準受光スリットボックス1|Standard receiving slit box # 1"
*HW_R_OPT_NAME-1 "標準受光光学ユニット1|Standard receiving unit # 1"
*HW_R_OPT_NAME-2 "標準受光光学ユニット2|Standard receiving optical unit # 2"
*HW_R_OPT_NAME-3 "標準受光スリットボックス2|Standard receiving slit box # 2"
*HW_R_OPT_NAME-4 "標準アッテネータ|Standard Attenuator"
*HW_R_OPT_NAME-5 "Cu Kβ|Cu K-beta"
*HW_R_OPT_NAME-6 "調整用受光スリット|Alignment receiving slit"
*HW_SAMPLE_HOLDER_ID "SMP0023"
*HW_SAMPLE_HOLDER_NAME "標準Zステージ|Standard Z stage"
*HW_XG_CURRENT_MAX "50"
*HW_XG_CURRENT_MIN "2"
*HW_XG_CURRENT_RESOLUTION "1"
*HW_XG_CURRENT_UNIT "mA"
*HW_XG_FOCUS "1mm x 10mm"
*HW_XG_FOCUS_TYPE "Normal"
*HW_XG_ID ""
*HW_XG_NAME "3kW 封入管(ID:1200)|3kW Sealed tube(ID:1200)"
*HW_XG_TARGET_ATOMIC_NUMBER "29.0000000000"
*HW_XG_TARGET_NAME "Cu"
*HW_XG_TYPE "Hermetic"
*HW_XG_VOLTAGE_MAX "60"
*HW_XG_VOLTAGE_MIN "20"
*HW_XG_VOLTAGE_RESOLUTION "1"
*HW_XG_VOLTAGE_UNIT "kV"
*HW_XG_WATT_MAX "1.500"
*HW_XG_WATT_UNIT "kW"
*HW_XG_WAVE_LENGTH_ALPHA1 "1.540593"
*HW_XG_WAVE_LENGTH_ALPHA2 "1.544414"
*HW_XG_WAVE_LENGTH_BETA "1.392250"
*MEAS_COND_AXIS_NAME-0 "2θ/θ"
*MEAS_COND_AXIS_NAME-1 "2θ"
*MEAS_COND_AXIS_NAME-2 "ω"
*MEAS_COND_AXIS_NAME-3 "Z"
*MEAS_COND_AXIS_NAME-4 "2θ/ω"
*MEAS_COND_AXIS_NAME-5 "θs"
*MEAS_COND_AXIS_NAME-6 "θd"
*MEAS_COND_AXIS_NAME-7 "Ts"
*MEAS_COND_AXIS_NAME-8 "CBO選択スリット"
*MEAS_COND_AXIS_NAME-9 "M"
*MEAS_COND_AXIS_NAME-10 "入射平行スリット"
*MEAS_COND_AXIS_NAME-11 "入射スリット"
*MEAS_COND_AXIS_NAME-12 ""
*MEAS_COND_AXIS_NAME-13 "Zs"
*MEAS_COND_AXIS_NAME-14 "入射光学素子"
*MEAS_COND_AXIS_NAME-15 "長手制限スリット"
*MEAS_COND_AXIS_NAME-16 "センタースリット"
*MEAS_COND_AXIS_NAME-17 "フィルター"
*MEAS_COND_AXIS_NAME-18 "受光スリット1"
*MEAS_COND_AXIS_NAME-19 "受光スリット2"
*MEAS_COND_AXIS_NAME-20 "受光光学素子"
*MEAS_COND_AXIS_NAME-21 "受光平行スリット"
*MEAS_COND_AXIS_NAME-22 "調整用受光スリット"
*MEAS_COND_AXIS_NAME-23 ""
*MEAS_COND_AXIS_NAME-24 ""
*MEAS_COND_AXIS_NAME-25 "Zd"
*MEAS_COND_AXIS_NAME-26 "アッテネータ"
*MEAS_COND_AXIS_NAME-27 "検出器モノクロメータ"
*MEAS_COND_AXIS_NAME-28 "モノクロメータスリット"
*MEAS_COND_AXIS_NAME-29 "プライマリビーム"
*MEAS_COND_AXIS_NAME-30 "PHA"
*MEAS_COND_AXIS_NAME_INTERNAL-0 "TwoThetaTheta"
*MEAS_COND_AXIS_NAME_INTERNAL-1 "TwoTheta"
*MEAS_COND_AXIS_NAME_INTERNAL-2 "Omega"
*MEAS_COND_AXIS_NAME_INTERNAL-3 "Z"
*MEAS_COND_AXIS_NAME_INTERNAL-4 "TwoThetaOmega"
*MEAS_COND_AXIS_NAME_INTERNAL-5 "ThetaS"
*MEAS_COND_AXIS_NAME_INTERNAL-6 "ThetaD"
*MEAS_COND_AXIS_NAME_INTERNAL-7 "Ts"
*MEAS_COND_AXIS_NAME_INTERNAL-8 "CBO"
*MEAS_COND_AXIS_NAME_INTERNAL-9 "CBO-M"
*MEAS_COND_AXIS_NAME_INTERNAL-10 "IncidentSollerSlit"
*MEAS_COND_AXIS_NAME_INTERNAL-11 "IncidentSlitBox"
*MEAS_COND_AXIS_NAME_INTERNAL-12 "IncidentSlitBox-_Axis"
*MEAS_COND_AXIS_NAME_INTERNAL-13 "Zs"
*MEAS_COND_AXIS_NAME_INTERNAL-14 "IncidentMonochromator"
*MEAS_COND_AXIS_NAME_INTERNAL-15 "IncidentAxdSlit"
*MEAS_COND_AXIS_NAME_INTERNAL-16 "CenterSlit"
*MEAS_COND_AXIS_NAME_INTERNAL-17 "Filter"
*MEAS_COND_AXIS_NAME_INTERNAL-18 "ReceivingSlitBox1"
*MEAS_COND_AXIS_NAME_INTERNAL-19 "ReceivingSlitBox2"
*MEAS_COND_AXIS_NAME_INTERNAL-20 "ReceivingOptics"
*MEAS_COND_AXIS_NAME_INTERNAL-21 "ReceivingSollerSlit"
*MEAS_COND_AXIS_NAME_INTERNAL-22 "ReceivingAxdSlit"
*MEAS_COND_AXIS_NAME_INTERNAL-23 "ReceivingSlitBox1-_Axis"
*MEAS_COND_AXIS_NAME_INTERNAL-24 "ReceivingSlitBox2-_Axis"
*MEAS_COND_AXIS_NAME_INTERNAL-25 "ReceivingSlitBox2-Zd"
*MEAS_COND_AXIS_NAME_INTERNAL-26 "Attenuator"
*MEAS_COND_AXIS_NAME_INTERNAL-27 "CounterMonochromator"
*MEAS_COND_AXIS_NAME_INTERNAL-28 "CounterSlit"
*MEAS_COND_AXIS_NAME_INTERNAL-29 "IncidentPrimary"
*MEAS_COND_AXIS_NAME_INTERNAL-30 "PHA"
*MEAS_COND_AXIS_NAME_MAGICNO-0 "83951616.0000000000"
*MEAS_COND_AXIS_NAME_MAGICNO-1 "268632064.0000000000"
*MEAS_COND_AXIS_NAME_MAGICNO-2 "268500992.0000000000"
*MEAS_COND_AXIS_NAME_MAGICNO-3 "285278208.0000000000"
*MEAS_COND_AXIS_NAME_MAGICNO-4 "83951616.0000000000"
*MEAS_COND_AXIS_NAME_MAGICNO-5 "131072.0000000000"
*MEAS_COND_AXIS_NAME_MAGICNO-6 "131072.0000000000"
*MEAS_COND_AXIS_NAME_MAGICNO-7 "318898176.0000000000"
*MEAS_COND_AXIS_NAME_MAGICNO-8 "20971521.0000000000"
*MEAS_COND_AXIS_NAME_MAGICNO-9 "285343744.0000000000"
*MEAS_COND_AXIS_NAME_MAGICNO-10 "20971521.0000000000"
*MEAS_COND_AXIS_NAME_MAGICNO-11 "22020097.0000000000"
*MEAS_COND_AXIS_NAME_MAGICNO-12 "25165824.0000000000"
*MEAS_COND_AXIS_NAME_MAGICNO-13 "318898176.0000000000"
*MEAS_COND_AXIS_NAME_MAGICNO-14 "1.0000000000"
*MEAS_COND_AXIS_NAME_MAGICNO-15 "20971521.0000000000"
*MEAS_COND_AXIS_NAME_MAGICNO-16 "20971521.0000000000"
*MEAS_COND_AXIS_NAME_MAGICNO-17 "20971521.0000000000"
*MEAS_COND_AXIS_NAME_MAGICNO-18 "23068673.0000000000"
*MEAS_COND_AXIS_NAME_MAGICNO-19 "23068673.0000000000"
*MEAS_COND_AXIS_NAME_MAGICNO-20 "20971521.0000000000"
*MEAS_COND_AXIS_NAME_MAGICNO-21 "20971521.0000000000"
*MEAS_COND_AXIS_NAME_MAGICNO-22 "20971521.0000000000"
*MEAS_COND_AXIS_NAME_MAGICNO-23 "25165824.0000000000"
*MEAS_COND_AXIS_NAME_MAGICNO-24 "25165824.0000000000"
*MEAS_COND_AXIS_NAME_MAGICNO-25 "285343744.0000000000"
*MEAS_COND_AXIS_NAME_MAGICNO-26 "17301505.0000000000"
*MEAS_COND_AXIS_NAME_MAGICNO-27 "20971521.0000000000"
*MEAS_COND_AXIS_NAME_MAGICNO-28 "20971521.0000000000"
*MEAS_COND_AXIS_NAME_MAGICNO-29 "20971521.0000000000"
*MEAS_COND_AXIS_NAME_MAGICNO-30 "0.0000000000"
*MEAS_COND_AXIS_OFFSET-0 "-"
*MEAS_COND_AXIS_OFFSET-1 "-0.1081000000"
*MEAS_COND_AXIS_OFFSET-2 "0.3758000000"
*MEAS_COND_AXIS_OFFSET-3 "-"
*MEAS_COND_AXIS_OFFSET-4 "-"
*MEAS_COND_AXIS_OFFSET-5 "0.3758000000"
*MEAS_COND_AXIS_OFFSET-6 "-0.4839000000"
*MEAS_COND_AXIS_OFFSET-7 "-"
*MEAS_COND_AXIS_OFFSET-8 "-"
*MEAS_COND_AXIS_OFFSET-9 "-"
*MEAS_COND_AXIS_OFFSET-10 "-"
*MEAS_COND_AXIS_OFFSET-11 "-"
*MEAS_COND_AXIS_OFFSET-12 "-"
*MEAS_COND_AXIS_OFFSET-13 "-"
*MEAS_COND_AXIS_OFFSET-14 "-"
*MEAS_COND_AXIS_OFFSET-15 "-"
*MEAS_COND_AXIS_OFFSET-16 "-"
*MEAS_COND_AXIS_OFFSET-17 "-"
*MEAS_COND_AXIS_OFFSET-18 "-"
*MEAS_COND_AXIS_OFFSET-19 "-"
*MEAS_COND_AXIS_OFFSET-20 "-"
*MEAS_COND_AXIS_OFFSET-21 "-"
*MEAS_COND_AXIS_OFFSET-22 "-"
*MEAS_COND_AXIS_OFFSET-23 "-"
*MEAS_COND_AXIS_OFFSET-24 "-"
*MEAS_COND_AXIS_OFFSET-25 "-"
*MEAS_COND_AXIS_OFFSET-26 "-"
*MEAS_COND_AXIS_OFFSET-27 "-"
*MEAS_COND_AXIS_OFFSET-28 "-"
*MEAS_COND_AXIS_OFFSET-29 "-"
*MEAS_COND_AXIS_OFFSET-30 "-"
*MEAS_COND_AXIS_POSITION-0 "0.0000000000"
*MEAS_COND_AXIS_POSITION-1 "0.0000000000"
*MEAS_COND_AXIS_POSITION-2 "0.0000000000"
*MEAS_COND_AXIS_POSITION-3 "-0.5500000000"
*MEAS_COND_AXIS_POSITION-4 "0.0000000000"
*MEAS_COND_AXIS_POSITION-5 "0.0000000000"
*MEAS_COND_AXIS_POSITION-6 "0.0000000000"
*MEAS_COND_AXIS_POSITION-7 "-0.4278800000"
*MEAS_COND_AXIS_POSITION-8 "BB"
*MEAS_COND_AXIS_POSITION-9 "0.0000000000"
*MEAS_COND_AXIS_POSITION-10 "Soller_slit_5.0deg"
*MEAS_COND_AXIS_POSITION-11 "2/3deg"
*MEAS_COND_AXIS_POSITION-12 "2.2088000000"
*MEAS_COND_AXIS_POSITION-13 "-0.4140600000"
*MEAS_COND_AXIS_POSITION-14 "0.0000000000"
*MEAS_COND_AXIS_POSITION-15 "10.0mm"
*MEAS_COND_AXIS_POSITION-16 "None"
*MEAS_COND_AXIS_POSITION-17 "Cu_K-beta"
*MEAS_COND_AXIS_POSITION-18 "10.036mm"
*MEAS_COND_AXIS_POSITION-19 "13.000mm"
*MEAS_COND_AXIS_POSITION-20 "No_unit"
*MEAS_COND_AXIS_POSITION-21 "Soller_slit_5.0deg"
*MEAS_COND_AXIS_POSITION-22 "None"
*MEAS_COND_AXIS_POSITION-23 "10.0363000000"
*MEAS_COND_AXIS_POSITION-24 "13.0000000000"
*MEAS_COND_AXIS_POSITION-25 "0.0109400000"
*MEAS_COND_AXIS_POSITION-26 "Open"
*MEAS_COND_AXIS_POSITION-27 "None"
*MEAS_COND_AXIS_POSITION-28 "None"
*MEAS_COND_AXIS_POSITION-29 "None"
*MEAS_COND_AXIS_POSITION-30 "38.0000000000"
*MEAS_COND_AXIS_UNIT-0 "deg"
*MEAS_COND_AXIS_UNIT-1 "deg"
*MEAS_COND_AXIS_UNIT-2 "deg"
*MEAS_COND_AXIS_UNIT-3 "mm"
*MEAS_COND_AXIS_UNIT-4 "deg"
*MEAS_COND_AXIS_UNIT-5 "deg"
*MEAS_COND_AXIS_UNIT-6 "deg"
*MEAS_COND_AXIS_UNIT-7 "mm"
*MEAS_COND_AXIS_UNIT-8 ""
*MEAS_COND_AXIS_UNIT-9 "pulse"
*MEAS_COND_AXIS_UNIT-10 ""
*MEAS_COND_AXIS_UNIT-11 ""
*MEAS_COND_AXIS_UNIT-12 "mm"
*MEAS_COND_AXIS_UNIT-13 "mm"
*MEAS_COND_AXIS_UNIT-14 ""
*MEAS_COND_AXIS_UNIT-15 ""
*MEAS_COND_AXIS_UNIT-16 ""
*MEAS_COND_AXIS_UNIT-17 ""
*MEAS_COND_AXIS_UNIT-18 ""
*MEAS_COND_AXIS_UNIT-19 ""
*MEAS_COND_AXIS_UNIT-20 ""
*MEAS_COND_AXIS_UNIT-21 ""
*MEAS_COND_AXIS_UNIT-22 ""
*MEAS_COND_AXIS_UNIT-23 "mm"
*MEAS_COND_AXIS_UNIT-24 "mm"
*MEAS_COND_AXIS_UNIT-25 "mm"
*MEAS_COND_AXIS_UNIT-26 ""
*MEAS_COND_AXIS_UNIT-27 ""
*MEAS_COND_AXIS_UNIT-28 ""
*MEAS_COND_AXIS_UNIT-29 ""
*MEAS_COND_AXIS_UNIT-30 "div"
*MEAS_COND_COUNTER_CNTLOSS_CORR "0.0000000000"
*MEAS_COND_COUNTER_PHABASE "38.0000000000"
*MEAS_COND_COUNTER_PHAWINDOW "16.0000000000"
*MEAS_COND_COUNTER_PHA_UNIT "div"
*MEAS_COND_COUNTER_TAUDIFF "30.0000000000"
*MEAS_COND_COUNTER_TAUINT "0.0000000000"
*MEAS_COND_IRRADIATION_MODE "OFF"
*MEAS_COND_IRRADIATION_WIDTH ""
*MEAS_COND_OPT_ATTR "集中法"
*MEAS_COND_OPT_NAME "@集中法"
*MEAS_COND_UNSYMMETRIC_MODE "OFF"
*MEAS_COND_XG_CURRENT "30.0000000000"
*MEAS_COND_XG_VOLTAGE "40.0000000000"
*MEAS_COND_XG_WAVE_TYPE "Ka"
*MEAS_DATA_COUNT "5001.0000000000"
*MEAS_SCAN_AXIS_X "2θ/θ"
*MEAS_SCAN_AXIS_X_INTERNAL "TwoThetaTheta"
*MEAS_SCAN_END_TIME "07/15/21 13:37:19"
*MEAS_SCAN_MODE "CONTINUOUS"
*MEAS_SCAN_MONITOR "0"
*MEAS_SCAN_RESOLUTION_X "0.0002"
*MEAS_SCAN_SPEED "1.0"
*MEAS_SCAN_SPEED_UNIT "deg/min"
*MEAS_SCAN_START "20.0000000000"
*MEAS_SCAN_START_TIME "07/15/21 12:44:26"
*MEAS_SCAN_STEP "0.0100000000"
*MEAS_SCAN_STOP "70.0000000000"
*MEAS_SCAN_UNIT_X "deg"
*MEAS_SCAN_UNIT_Y "counts"
*RAS_HEADER_END
*RAS_INT_START
20.0000 1326.0000 1.0000
20.0100 1252.0000 1.0000
20.0200 1242.0000 1.0000
20.0300 1211.0000 1.0000
20.0400 1275.0000 1.0000
20.0500 1221.0000 1.0000
20.0600 1271.0000 1.0000
20.0700 1289.0000 1.0000
20.0800 1305.0000 1.0000
20.0900 1273.0000 1.0000
20.1000 1293.0000 1.0000
20.1100 1215.0000 1.0000
20.1200 1290.0000 1.0000
20.1300 1240.0000 1.0000
20.1400 1283.0000 1.0000
20.1500 1279.0000 1.0000
20.1600 1331.0000 1.0000
20.1700 1298.0000 1.0000
20.1800 1258.0000 1.0000
20.1900 1205.0000 1.0000
20.2000 1244.0000 1.0000
20.2100 1216.0000 1.0000
20.2200 1245.0000 1.0000
20.2300 1256.0000 1.0000
20.2400 1256.0000 1.0000
20.2500 1222.0000 1.0000
20.2600 1222.0000 1.0000
20.2700 1246.0000 1.0000
20.2800 1304.0000 1.0000
20.2900 1241.0000 1.0000
20.3000 1322.0000 1.0000
20.3100 1280.0000 1.0000
20.3200 1252.0000 1.0000
20.3300 1283.0000 1.0000
20.3400 1262.0000 1.0000
20.3500 1204.0000 1.0000
20.3600 1260.0000 1.0000
20.3700 1257.0000 1.0000
20.3800 1289.0000 1.0000
20.3900 1271.0000 1.0000
20.4000 1242.0000 1.0000
20.4100 1247.0000 1.0000
20.4200 1284.0000 1.0000
20.4300 1257.0000 1.0000
20.4400 1219.0000 1.0000
20.4500 1283.0000 1.0000
20.4600 1253.0000 1.0000
20.4700 1249.0000 1.0000
20.4800 1228.0000 1.0000
20.4900 1233.0000 1.0000
20.5000 1277.0000 1.0000
20.5100 1319.0000 1.0000
20.5200 1280.0000 1.0000
20.5300 1270.0000 1.0000
20.5400 1239.0000 1.0000
20.5500 1249.0000 1.0000
20.5600 1223.0000 1.0000
20.5700 1233.0000 1.0000
20.5800 1273.0000 1.0000
20.5900 1316.0000 1.0000
20.6000 1267.0000 1.0000
20.6100 1246.0000 1.0000
20.6200 1276.0000 1.0000
20.6300 1242.0000 1.0000
20.6400 1286.0000 1.0000
20.6500 1229.0000 1.0000
20.6600 1287.0000 1.0000
20.6700 1308.0000 1.0000
20.6800 1310.0000 1.0000
20.6900 1204.0000 1.0000
20.7000 1304.0000 1.0000
20.7100 1269.0000 1.0000
20.7200 1263.0000 1.0000
20.7300 1245.0000 1.0000
20.7400 1240.0000 1.0000
20.7500 1290.0000 1.0000
20.7600 1253.0000 1.0000
20.7700 1195.0000 1.0000
20.7800 1237.0000 1.0000
20.7900 1258.0000 1.0000
20.8000 1279.0000 1.0000
20.8100 1271.0000 1.0000
20.8200 1286.0000 1.0000
20.8300 1274.0000 1.0000
20.8400 1292.0000 1.0000
20.8500 1260.0000 1.0000
20.8600 1337.0000 1.0000
20.8700 1244.0000 1.0000
20.8800 1241.0000 1.0000
20.8900 1290.0000 1.0000
20.9000 1249.0000 1.0000
20.9100 1263.0000 1.0000
20.9200 1224.0000 1.0000
20.9300 1295.0000 1.0000
20.9400 1269.0000 1.0000
20.9500 1309.0000 1.0000
20.9600 1307.0000 1.0000
20.9700 1275.0000 1.0000
20.9800 1287.0000 1.0000
20.9900 1215.0000 1.0000
21.0000 1255.0000 1.0000
21.0100 1255.0000 1.0000
21.0200 1344.0000 1.0000
21.0300 1299.0000 1.0000
21.0400 1237.0000 1.0000
21.0500 1269.0000 1.0000
21.0600 1268.0000 1.0000
21.0700 1347.0000 1.0000
21.0800 1291.0000 1.0000
21.0900 1284.0000 1.0000
21.1000 1332.0000 1.0000
21.1100 1311.0000 1.0000
21.1200 1272.0000 1.0000
21.1300 1270.0000 1.0000
21.1400 1260.0000 1.0000
21.1500 1294.0000 1.0000
21.1600 1298.0000 1.0000
21.1700 1272.0000 1.0000
21.1800 1347.0000 1.0000
21.1900 1266.0000 1.0000
21.2000 1293.0000 1.0000
21.2100 1310.0000 1.0000
21.2200 1299.0000 1.0000
21.2300 1285.0000 1.0000
21.2400 1388.0000 1.0000
21.2500 1267.0000 1.0000
21.2600 1254.0000 1.0000
21.2700 1238.0000 1.0000
21.2800 1228.0000 1.0000
21.2900 1272.0000 1.0000
21.3000 1251.0000 1.0000
21.3100 1317.0000 1.0000
21.3200 1323.0000 1.0000
21.3300 1277.0000 1.0000
21.3400 1323.0000 1.0000
21.3500 1226.0000 1.0000
21.3600 1264.0000 1.0000
21.3700 1301.0000 1.0000
21.3800 1309.0000 1.0000
21.3900 1316.0000 1.0000
21.4000 1365.0000 1.0000
21.4100 1253.0000 1.0000
21.4200 1271.0000 1.0000
21.4300 1315.0000 1.0000
21.4400 1258.0000 1.0000
21.4500 1274.0000 1.0000
21.4600 1373.0000 1.0000
21.4700 1332.0000 1.0000
21.4800 1302.0000 1.0000
21.4900 1303.0000 1.0000
21.5000 1273.0000 1.0000
21.5100 1320.0000 1.0000
21.5200 1253.0000 1.0000
21.5300 1264.0000 1.0000
21.5400 1271.0000 1.0000
21.5500 1259.0000 1.0000
21.5600 1351.0000 1.0000
21.5700 1296.0000 1.0000
21.5800 1290.0000 1.0000
21.5900 1332.0000 1.0000
21.6000 1354.0000 1.0000
21.6100 1375.0000 1.0000
21.6200 1342.0000 1.0000
21.6300 1263.0000 1.0000
21.6400 1362.0000 1.0000
21.6500 1328.0000 1.0000
21.6600 1324.0000 1.0000
21.6700 1330.0000 1.0000
21.6800 1290.0000 1.0000
21.6900 1248.0000 1.0000
21.7000 1295.0000 1.0000
21.7100 1319.0000 1.0000
21.7200 1295.0000 1.0000
21.7300 1329.0000 1.0000
21.7400 1391.0000 1.0000
21.7500 1348.0000 1.0000
21.7600 1324.0000 1.0000
21.7700 1272.0000 1.0000
21.7800 1285.0000 1.0000
21.7900 1319.0000 1.0000
21.8000 1344.0000 1.0000
21.8100 1320.0000 1.0000
21.8200 1331.0000 1.0000
21.8300 1362.0000 1.0000
21.8400 1416.0000 1.0000
21.8500 1321.0000 1.0000
21.8600 1309.0000 1.0000
21.8700 1335.0000 1.0000
21.8800 1345.0000 1.0000
21.8900 1285.0000 1.0000
21.9000 1286.0000 1.0000
21.9100 1342.0000 1.0000
21.9200 1307.0000 1.0000
21.9300 1308.0000 1.0000
21.9400 1329.0000 1.0000
21.9500 1337.0000 1.0000
21.9600 1328.0000 1.0000
21.9700 1287.0000 1.0000
21.9800 1280.0000 1.0000
21.9900 1305.0000 1.0000
22.0000 1320.0000 1.0000
22.0100 1325.0000 1.0000
22.0200 1345.0000 1.0000
22.0300 1293.0000 1.0000
22.0400 1303.0000 1.0000
22.0500 1331.0000 1.0000
22.0600 1277.0000 1.0000
22.0700 1286.0000 1.0000
22.0800 1264.0000 1.0000
22.0900 1348.0000 1.0000
22.1000 1335.0000 1.0000
22.1100 1324.0000 1.0000
22.1200 1310.0000 1.0000
22.1300 1303.0000 1.0000
22.1400 1327.0000 1.0000
22.1500 1300.0000 1.0000
22.1600 1326.0000 1.0000
22.1700 1360.0000 1.0000
22.1800 1290.0000 1.0000
22.1900 1326.0000 1.0000
22.2000 1366.0000 1.0000
22.2100 1356.0000 1.0000
22.2200 1300.0000 1.0000
22.2300 1344.0000 1.0000
22.2400 1339.0000 1.0000
22.2500 1310.0000 1.0000
22.2600 1337.0000 1.0000
22.2700 1332.0000 1.0000
22.2800 1311.0000 1.0000
22.2900 1344.0000 1.0000
22.3000 1350.0000 1.0000
22.3100 1292.0000 1.0000
22.3200 1328.0000 1.0000
22.3300 1323.0000 1.0000
22.3400 1372.0000 1.0000
22.3500 1360.0000 1.0000
22.3600 1291.0000 1.0000
22.3700 1355.0000 1.0000
22.3800 1317.0000 1.0000
22.3900 1343.0000 1.0000
22.4000 1276.0000 1.0000
22.4100 1322.0000 1.0000
22.4200 1386.0000 1.0000
22.4300 1403.0000 1.0000
22.4400 1349.0000 1.0000
22.4500 1324.0000 1.0000
22.4600 1327.0000 1.0000
22.4700 1303.0000 1.0000
22.4800 1292.0000 1.0000
22.4900 1296.0000 1.0000
22.5000 1351.0000 1.0000
22.5100 1308.0000 1.0000
22.5200 1314.0000 1.0000
22.5300 1337.0000 1.0000
22.5400 1303.0000 1.0000
22.5500 1322.0000 1.0000
22.5600 1312.0000 1.0000
22.5700 1296.0000 1.0000
22.5800 1310.0000 1.0000
22.5900 1321.0000 1.0000
22.6000 1338.0000 1.0000
22.6100 1324.0000 1.0000
22.6200 1302.0000 1.0000
22.6300 1372.0000 1.0000
22.6400 1371.0000 1.0000
22.6500 1388.0000 1.0000
22.6600 1299.0000 1.0000
22.6700 1329.0000 1.0000
22.6800 1323.0000 1.0000
22.6900 1285.0000 1.0000
22.7000 1282.0000 1.0000
22.7100 1324.0000 1.0000
22.7200 1318.0000 1.0000
22.7300 1342.0000 1.0000
22.7400 1316.0000 1.0000
22.7500 1297.0000 1.0000
22.7600 1347.0000 1.0000
22.7700 1364.0000 1.0000
22.7800 1302.0000 1.0000
22.7900 1369.0000 1.0000
22.8000 1372.0000 1.0000
22.8100 1303.0000 1.0000
22.8200 1406.0000 1.0000
22.8300 1356.0000 1.0000
22.8400 1311.0000 1.0000
22.8500 1323.0000 1.0000
22.8600 1338.0000 1.0000
22.8700 1316.0000 1.0000
22.8800 1378.0000 1.0000
22.8900 1328.0000 1.0000
22.9000 1360.0000 1.0000
22.9100 1324.0000 1.0000
22.9200 1309.0000 1.0000
22.9300 1331.0000 1.0000
22.9400 1330.0000 1.0000
22.9500 1356.0000 1.0000
22.9600 1382.0000 1.0000
22.9700 1376.0000 1.0000
22.9800 1390.0000 1.0000
22.9900 1387.0000 1.0000
23.0000 1361.0000 1.0000
23.0100 1350.0000 1.0000
23.0200 1298.0000 1.0000
23.0300 1390.0000 1.0000
23.0400 1378.0000 1.0000
23.0500 1342.0000 1.0000
23.0600 1399.0000 1.0000
23.0700 1392.0000 1.0000
23.0800 1381.0000 1.0000
23.0900 1317.0000 1.0000
23.1000 1331.0000 1.0000
23.1100 1353.0000 1.0000
23.1200 1348.0000 1.0000
23.1300 1313.0000 1.0000
23.1400 1380.0000 1.0000
23.1500 1343.0000 1.0000
23.1600 1294.0000 1.0000
23.1700 1357.0000 1.0000
23.1800 1330.0000 1.0000
23.1900 1400.0000 1.0000
23.2000 1364.0000 1.0000
23.2100 1335.0000 1.0000
23.2200 1354.0000 1.0000
23.2300 1359.0000 1.0000
23.2400 1362.0000 1.0000
23.2500 1364.0000 1.0000
23.2600 1354.0000 1.0000
23.2700 1392.0000 1.0000
23.2800 1366.0000 1.0000
23.2900 1389.0000 1.0000
23.3000 1330.0000 1.0000
23.3100 1320.0000 1.0000
23.3200 1337.0000 1.0000
23.3300 1338.0000 1.0000
23.3400 1368.0000 1.0000
23.3500 1324.0000 1.0000
23.3600 1298.0000 1.0000
23.3700 1332.0000 1.0000
23.3800 1403.0000 1.0000
23.3900 1297.0000 1.0000
23.4000 1346.0000 1.0000
23.4100 1391.0000 1.0000
23.4200 1374.0000 1.0000
23.4300 1374.0000 1.0000
23.4400 1370.0000 1.0000
23.4500 1366.0000 1.0000
23.4600 1394.0000 1.0000
23.4700 1392.0000 1.0000
23.4800 1423.0000 1.0000
23.4900 1385.0000 1.0000
23.5000 1364.0000 1.0000
23.5100 1376.0000 1.0000
23.5200 1357.0000 1.0000
23.5300 1362.0000 1.0000
23.5400 1373.0000 1.0000
23.5500 1375.0000 1.0000
23.5600 1373.0000 1.0000
23.5700 1338.0000 1.0000
23.5800 1379.0000 1.0000
23.5900 1347.0000 1.0000
23.6000 1349.0000 1.0000
23.6100 1377.0000 1.0000
23.6200 1381.0000 1.0000
23.6300 1391.0000 1.0000
23.6400 1369.0000 1.0000
23.6500 1340.0000 1.0000
23.6600 1384.0000 1.0000
23.6700 1348.0000 1.0000
23.6800 1353.0000 1.0000
23.6900 1334.0000 1.0000
23.7000 1247.0000 1.0000
23.7100 1325.0000 1.0000
23.7200 1357.0000 1.0000
23.7300 1349.0000 1.0000
23.7400 1390.0000 1.0000
23.7500 1374.0000 1.0000
23.7600 1362.0000 1.0000
23.7700 1365.0000 1.0000
23.7800 1337.0000 1.0000
23.7900 1417.0000 1.0000
23.8000 1357.0000 1.0000
23.8100 1357.0000 1.0000
23.8200 1397.0000 1.0000
23.8300 1444.0000 1.0000
23.8400 1385.0000 1.0000
23.8500 1377.0000 1.0000
23.8600 1352.0000 1.0000
23.8700 1383.0000 1.0000
23.8800 1388.0000 1.0000
23.8900 1406.0000 1.0000
23.9000 1364.0000 1.0000
23.9100 1321.0000 1.0000
23.9200 1408.0000 1.0000
23.9300 1361.0000 1.0000
23.9400 1388.0000 1.0000
23.9500 1350.0000 1.0000
23.9600 1400.0000 1.0000
23.9700 1425.0000 1.0000
23.9800 1332.0000 1.0000
23.9900 1374.0000 1.0000
24.0000 1379.0000 1.0000
24.0100 1352.0000 1.0000
24.0200 1329.0000 1.0000
24.0300 1452.0000 1.0000
24.0400 1371.0000 1.0000
24.0500 1360.0000 1.0000
24.0600 1309.0000 1.0000
24.0700 1361.0000 1.0000
24.0800 1367.0000 1.0000
24.0900 1391.0000 1.0000
24.1000 1356.0000 1.0000
24.1100 1309.0000 1.0000
24.1200 1390.0000 1.0000
24.1300 1363.0000 1.0000
24.1400 1343.0000 1.0000
24.1500 1397.0000 1.0000
24.1600 1382.0000 1.0000
24.1700 1419.0000 1.0000
24.1800 1420.0000 1.0000
24.1900 1424.0000 1.0000
24.2000 1389.0000 1.0000
24.2100 1424.0000 1.0000
24.2200 1361.0000 1.0000
24.2300 1380.0000 1.0000
24.2400 1407.0000 1.0000
24.2500 1341.0000 1.0000
24.2600 1363.0000 1.0000
24.2700 1365.0000 1.0000
24.2800 1366.0000 1.0000
24.2900 1369.0000 1.0000
24.3000 1418.0000 1.0000
24.3100 1402.0000 1.0000
24.3200 1410.0000 1.0000
24.3300 1351.0000 1.0000
24.3400 1444.0000 1.0000
24.3500 1406.0000 1.0000
24.3600 1453.0000 1.0000
24.3700 1408.0000 1.0000
24.3800 1365.0000 1.0000
24.3900 1326.0000 1.0000
24.4000 1359.0000 1.0000
24.4100 1410.0000 1.0000
24.4200 1434.0000 1.0000
24.4300 1398.0000 1.0000
24.4400 1406.0000 1.0000
24.4500 1437.0000 1.0000
24.4600 1379.0000 1.0000
24.4700 1397.0000 1.0000
24.4800 1472.0000 1.0000
24.4900 1408.0000 1.0000
24.5000 1382.0000 1.0000
24.5100 1399.0000 1.0000
24.5200 1422.0000 1.0000
24.5300 1441.0000 1.0000
24.5400 1419.0000 1.0000
24.5500 1403.0000 1.0000
24.5600 1439.0000 1.0000
24.5700 1441.0000 1.0000
24.5800 1444.0000 1.0000
24.5900 1420.0000 1.0000
24.6000 1475.0000 1.0000
24.6100 1443.0000 1.0000
24.6200 1449.0000 1.0000
24.6300 1421.0000 1.0000
24.6400 1406.0000 1.0000
24.6500 1498.0000 1.0000
24.6600 1474.0000 1.0000
24.6700 1495.0000 1.0000
24.6800 1464.0000 1.0000
24.6900 1433.0000 1.0000
24.7000 1462.0000 1.0000
24.7100 1441.0000 1.0000
24.7200 1436.0000 1.0000
24.7300 1466.0000 1.0000
24.7400 1424.0000 1.0000
24.7500 1433.0000 1.0000
24.7600 1439.0000 1.0000
24.7700 1427.0000 1.0000
24.7800 1439.0000 1.0000
24.7900 1441.0000 1.0000
24.8000 1430.0000 1.0000
24.8100 1382.0000 1.0000
24.8200 1416.0000 1.0000
24.8300 1465.0000 1.0000
24.8400 1454.0000 1.0000
24.8500 1465.0000 1.0000
24.8600 1476.0000 1.0000
24.8700 1466.0000 1.0000
24.8800 1458.0000 1.0000
24.8900 1467.0000 1.0000
24.9000 1418.0000 1.0000
24.9100 1446.0000 1.0000
24.9200 1427.0000 1.0000
24.9300 1420.0000 1.0000
24.9400 1435.0000 1.0000
24.9500 1396.0000 1.0000
24.9600 1434.0000 1.0000
24.9700 1460.0000 1.0000
24.9800 1484.0000 1.0000
24.9900 1468.0000 1.0000
25.0000 1430.0000 1.0000
25.0100 1392.0000 1.0000
25.0200 1485.0000 1.0000
25.0300 1474.0000 1.0000
25.0400 1510.0000 1.0000
25.0500 1477.0000 1.0000
25.0600 1464.0000 1.0000
25.0700 1518.0000 1.0000
25.0800 1503.0000 1.0000
25.0900 1462.0000 1.0000
25.1000 1432.0000 1.0000
25.1100 1426.0000 1.0000
25.1200 1499.0000 1.0000
25.1300 1483.0000 1.0000
25.1400 1489.0000 1.0000
25.1500 1465.0000 1.0000
25.1600 1447.0000 1.0000
25.1700 1435.0000 1.0000
25.1800 1494.0000 1.0000
25.1900 1429.0000 1.0000
25.2000 1422.0000 1.0000
25.2100 1465.0000 1.0000
25.2200 1438.0000 1.0000
25.2300 1448.0000 1.0000
25.2400 1469.0000 1.0000
25.2500 1486.0000 1.0000
25.2600 1391.0000 1.0000
25.2700 1399.0000 1.0000
25.2800 1444.0000 1.0000
25.2900 1459.0000 1.0000
25.3000 1424.0000 1.0000
25.3100 1424.0000 1.0000
25.3200 1417.0000 1.0000
25.3300 1465.0000 1.0000
25.3400 1429.0000 1.0000
25.3500 1453.0000 1.0000
25.3600 1477.0000 1.0000
25.3700 1462.0000 1.0000
25.3800 1481.0000 1.0000
25.3900 1507.0000 1.0000
25.4000 1437.0000 1.0000
25.4100 1454.0000 1.0000
25.4200 1492.0000 1.0000
25.4300 1486.0000 1.0000
25.4400 1376.0000 1.0000
25.4500 1450.0000 1.0000
25.4600 1380.0000 1.0000
25.4700 1452.0000 1.0000
25.4800 1417.0000 1.0000
25.4900 1441.0000 1.0000
25.5000 1467.0000 1.0000
25.5100 1459.0000 1.0000
25.5200 1460.0000 1.0000
25.5300 1443.0000 1.0000
25.5400 1444.0000 1.0000
25.5500 1504.0000 1.0000
25.5600 1457.0000 1.0000
25.5700 1435.0000 1.0000
25.5800 1501.0000 1.0000
25.5900 1425.0000 1.0000
25.6000 1370.0000 1.0000
25.6100 1447.0000 1.0000
25.6200 1417.0000 1.0000
25.6300 1482.0000 1.0000
25.6400 1465.0000 1.0000
25.6500 1413.0000 1.0000
25.6600 1502.0000 1.0000
25.6700 1403.0000 1.0000
25.6800 1404.0000 1.0000
25.6900 1462.0000 1.0000
25.7000 1455.0000 1.0000
25.7100 1464.0000 1.0000
25.7200 1493.0000 1.0000
25.7300 1424.0000 1.0000
25.7400 1460.0000 1.0000
25.7500 1421.0000 1.0000
25.7600 1396.0000 1.0000
25.7700 1413.0000 1.0000
25.7800 1461.0000 1.0000
25.7900 1472.0000 1.0000
25.8000 1485.0000 1.0000
25.8100 1448.0000 1.0000
25.8200 1426.0000 1.0000
25.8300 1385.0000 1.0000
25.8400 1449.0000 1.0000
25.8500 1477.0000 1.0000
25.8600 1493.0000 1.0000
25.8700 1418.0000 1.0000
25.8800 1460.0000 1.0000
25.8900 1496.0000 1.0000
25.9000 1458.0000 1.0000
25.9100 1444.0000 1.0000
25.9200 1471.0000 1.0000
25.9300 1366.0000 1.0000
25.9400 1401.0000 1.0000
25.9500 1443.0000 1.0000
25.9600 1468.0000 1.0000
25.9700 1445.0000 1.0000
25.9800 1424.0000 1.0000
25.9900 1404.0000 1.0000
26.0000 1425.0000 1.0000
26.0100 1449.0000 1.0000
26.0200 1421.0000 1.0000
26.0300 1455.0000 1.0000
26.0400 1424.0000 1.0000
26.0500 1466.0000 1.0000
26.0600 1474.0000 1.0000
26.0700 1435.0000 1.0000
26.0800 1458.0000 1.0000
26.0900 1421.0000 1.0000
26.1000 1488.0000 1.0000
26.1100 1414.0000 1.0000
26.1200 1434.0000 1.0000
26.1300 1499.0000 1.0000
26.1400 1452.0000 1.0000
26.1500 1483.0000 1.0000
26.1600 1434.0000 1.0000
26.1700 1492.0000 1.0000
26.1800 1519.0000 1.0000
26.1900 1493.0000 1.0000
26.2000 1469.0000 1.0000
26.2100 1431.0000 1.0000
26.2200 1514.0000 1.0000
26.2300 1436.0000 1.0000
26.2400 1551.0000 1.0000
26.2500 1512.0000 1.0000
26.2600 1483.0000 1.0000
26.2700 1466.0000 1.0000
26.2800 1469.0000 1.0000
26.2900 1521.0000 1.0000
26.3000 1493.0000 1.0000
26.3100 1528.0000 1.0000
26.3200 1522.0000 1.0000
26.3300 1522.0000 1.0000
26.3400 1504.0000 1.0000
26.3500 1555.0000 1.0000
26.3600 1573.0000 1.0000
26.3700 1566.0000 1.0000
26.3800 1557.0000 1.0000
26.3900 1523.0000 1.0000
26.4000 1505.0000 1.0000
26.4100 1489.0000 1.0000
26.4200 1543.0000 1.0000
26.4300 1468.0000 1.0000
26.4400 1536.0000 1.0000
26.4500 1525.0000 1.0000
26.4600 1555.0000 1.0000
26.4700 1522.0000 1.0000
26.4800 1482.0000 1.0000
26.4900 1456.0000 1.0000
26.5000 1570.0000 1.0000
26.5100 1541.0000 1.0000
26.5200 1525.0000 1.0000
26.5300 1559.0000 1.0000
26.5400 1527.0000 1.0000
26.5500 1553.0000 1.0000
26.5600 1565.0000 1.0000
26.5700 1577.0000 1.0000
26.5800 1598.0000 1.0000
26.5900 1536.0000 1.0000
26.6000 1543.0000 1.0000
26.6100 1562.0000 1.0000
26.6200 1618.0000 1.0000
26.6300 1565.0000 1.0000
26.6400 1506.0000 1.0000
26.6500 1637.0000 1.0000
26.6600 1583.0000 1.0000
26.6700 1607.0000 1.0000
26.6800 1592.0000 1.0000
26.6900 1542.0000 1.0000
26.7000 1613.0000 1.0000
26.7100 1594.0000 1.0000
26.7200 1596.0000 1.0000
26.7300 1608.0000 1.0000
26.7400 1641.0000 1.0000
26.7500 1668.0000 1.0000
26.7600 1673.0000 1.0000
26.7700 1622.0000 1.0000
26.7800 1654.0000 1.0000
26.7900 1635.0000 1.0000
26.8000 1631.0000 1.0000
26.8100 1681.0000 1.0000
26.8200 1733.0000 1.0000
26.8300 1719.0000 1.0000
26.8400 1704.0000 1.0000
26.8500 1739.0000 1.0000
26.8600 1671.0000 1.0000
26.8700 1809.0000 1.0000
26.8800 1753.0000 1.0000
26.8900 1771.0000 1.0000
26.9000 1796.0000 1.0000
26.9100 1830.0000 1.0000
26.9200 1898.0000 1.0000
26.9300 1846.0000 1.0000
26.9400 1939.0000 1.0000
26.9500 1946.0000 1.0000
26.9600 1920.0000 1.0000
26.9700 2003.0000 1.0000
26.9800 2005.0000 1.0000
26.9900 2040.0000 1.0000
27.0000 2152.0000 1.0000
27.0100 2177.0000 1.0000
27.0200 2118.0000 1.0000
27.0300 2321.0000 1.0000
27.0400 2363.0000 1.0000
27.0500 2440.0000 1.0000
27.0600 2420.0000 1.0000
27.0700 2555.0000 1.0000
27.0800 2698.0000 1.0000
27.0900 2778.0000 1.0000
27.1000 2800.0000 1.0000
27.1100 3038.0000 1.0000
27.1200 3073.0000 1.0000
27.1300 3251.0000 1.0000
27.1400 3398.0000 1.0000
27.1500 3510.0000 1.0000
27.1600 3802.0000 1.0000
27.1700 4000.0000 1.0000
27.1800 4236.0000 1.0000
27.1900 4516.0000 1.0000
27.2000 4731.0000 1.0000
27.2100 4922.0000 1.0000
27.2200 5159.0000 1.0000
27.2300 5614.0000 1.0000
27.2400 5835.0000 1.0000
27.2500 6034.0000 1.0000
27.2600 6329.0000 1.0000
27.2700 6389.0000 1.0000
27.2800 6511.0000 1.0000
27.2900 6564.0000 1.0000
27.3000 6553.0000 1.0000
27.3100 6374.0000 1.0000
27.3200 6021.0000 1.0000
27.3300 6022.0000 1.0000
27.3400 5713.0000 1.0000
27.3500 5542.0000 1.0000
27.3600 5243.0000 1.0000
27.3700 4973.0000 1.0000
27.3800 4676.0000 1.0000
27.3900 4496.0000 1.0000
27.4000 4169.0000 1.0000
27.4100 3986.0000 1.0000
27.4200 3698.0000 1.0000
27.4300 3478.0000 1.0000
27.4400 3368.0000 1.0000
27.4500 3198.0000 1.0000
27.4600 3025.0000 1.0000
27.4700 2925.0000 1.0000
27.4800 2886.0000 1.0000
27.4900 2691.0000 1.0000
27.5000 2588.0000 1.0000
27.5100 2478.0000 1.0000
27.5200 2447.0000 1.0000
27.5300 2367.0000 1.0000
27.5400 2308.0000 1.0000
27.5500 2255.0000 1.0000
27.5600 2235.0000 1.0000
27.5700 2204.0000 1.0000
27.5800 2174.0000 1.0000
27.5900 2094.0000 1.0000
27.6000 2065.0000 1.0000
27.6100 1888.0000 1.0000
27.6200 1977.0000 1.0000
27.6300 1969.0000 1.0000
27.6400 1943.0000 1.0000
27.6500 1917.0000 1.0000
27.6600 1871.0000 1.0000
27.6700 1851.0000 1.0000
27.6800 1856.0000 1.0000
27.6900 1779.0000 1.0000
27.7000 1802.0000 1.0000
27.7100 1738.0000 1.0000
27.7200 1735.0000 1.0000
27.7300 1831.0000 1.0000
27.7400 1741.0000 1.0000
27.7500 1763.0000 1.0000
27.7600 1686.0000 1.0000
27.7700 1698.0000 1.0000
27.7800 1745.0000 1.0000
27.7900 1634.0000 1.0000
27.8000 1609.0000 1.0000
27.8100 1651.0000 1.0000
27.8200 1642.0000 1.0000
27.8300 1594.0000 1.0000
27.8400 1598.0000 1.0000
27.8500 1623.0000 1.0000
27.8600 1645.0000 1.0000
27.8700 1592.0000 1.0000
27.8800 1613.0000 1.0000
27.8900 1553.0000 1.0000
27.9000 1620.0000 1.0000
27.9100 1585.0000 1.0000
27.9200 1630.0000 1.0000
27.9300 1589.0000 1.0000
27.9400 1545.0000 1.0000
27.9500 1583.0000 1.0000
27.9600 1522.0000 1.0000
27.9700 1609.0000 1.0000
27.9800 1519.0000 1.0000
27.9900 1554.0000 1.0000
28.0000 1625.0000 1.0000
28.0100 1487.0000 1.0000
28.0200 1500.0000 1.0000
28.0300 1477.0000 1.0000
28.0400 1535.0000 1.0000
28.0500 1507.0000 1.0000
28.0600 1514.0000 1.0000
28.0700 1555.0000 1.0000
28.0800 1551.0000 1.0000
28.0900 1534.0000 1.0000
28.1000 1471.0000 1.0000
28.1100 1499.0000 1.0000
28.1200 1477.0000 1.0000
28.1300 1462.0000 1.0000
28.1400 1500.0000 1.0000
28.1500 1500.0000 1.0000
28.1600 1530.0000 1.0000
28.1700 1497.0000 1.0000
28.1800 1516.0000 1.0000
28.1900 1436.0000 1.0000
28.2000 1457.0000 1.0000
28.2100 1495.0000 1.0000
28.2200 1462.0000 1.0000
28.2300 1429.0000 1.0000
28.2400 1465.0000 1.0000
28.2500 1437.0000 1.0000
28.2600 1501.0000 1.0000
28.2700 1472.0000 1.0000
28.2800 1511.0000 1.0000
28.2900 1461.0000 1.0000
28.3000 1487.0000 1.0000
28.3100 1516.0000 1.0000
28.3200 1492.0000 1.0000
28.3300 1496.0000 1.0000
28.3400 1521.0000 1.0000
28.3500 1482.0000 1.0000
28.3600 1538.0000 1.0000
28.3700 1451.0000 1.0000
28.3800 1475.0000 1.0000
28.3900 1491.0000 1.0000
28.4000 1461.0000 1.0000
28.4100 1425.0000 1.0000
28.4200 1439.0000 1.0000
28.4300 1458.0000 1.0000
28.4400 1511.0000 1.0000
28.4500 1427.0000 1.0000
28.4600 1477.0000 1.0000
28.4700 1449.0000 1.0000
28.4800 1443.0000 1.0000
28.4900 1513.0000 1.0000
28.5000 1466.0000 1.0000
28.5100 1394.0000 1.0000
28.5200 1405.0000 1.0000
28.5300 1452.0000 1.0000
28.5400 1435.0000 1.0000
28.5500 1399.0000 1.0000
28.5600 1436.0000 1.0000
28.5700 1512.0000 1.0000
28.5800 1432.0000 1.0000
28.5900 1420.0000 1.0000
28.6000 1386.0000 1.0000
28.6100 1422.0000 1.0000
28.6200 1412.0000 1.0000
28.6300 1488.0000 1.0000
28.6400 1502.0000 1.0000
28.6500 1457.0000 1.0000
28.6600 1448.0000 1.0000
28.6700 1371.0000 1.0000
28.6800 1436.0000 1.0000
28.6900 1469.0000 1.0000
28.7000 1435.0000 1.0000
28.7100 1522.0000 1.0000
28.7200 1450.0000 1.0000
28.7300 1447.0000 1.0000
28.7400 1443.0000 1.0000
28.7500 1388.0000 1.0000
28.7600 1402.0000 1.0000
28.7700 1401.0000 1.0000
28.7800 1456.0000 1.0000
28.7900 1458.0000 1.0000
28.8000 1426.0000 1.0000
28.8100 1412.0000 1.0000
28.8200 1435.0000 1.0000
28.8300 1480.0000 1.0000
28.8400 1440.0000 1.0000
28.8500 1404.0000 1.0000
28.8600 1412.0000 1.0000
28.8700 1358.0000 1.0000
28.8800 1376.0000 1.0000
28.8900 1431.0000 1.0000
28.9000 1429.0000 1.0000
28.9100 1397.0000 1.0000
28.9200 1436.0000 1.0000
28.9300 1414.0000 1.0000
28.9400 1467.0000 1.0000
28.9500 1375.0000 1.0000
28.9600 1407.0000 1.0000
28.9700 1404.0000 1.0000
28.9800 1354.0000 1.0000
28.9900 1404.0000 1.0000
29.0000 1467.0000 1.0000
29.0100 1433.0000 1.0000
29.0200 1375.0000 1.0000
29.0300 1395.0000 1.0000
29.0400 1439.0000 1.0000
29.0500 1460.0000 1.0000
29.0600 1390.0000 1.0000
29.0700 1404.0000 1.0000
29.0800 1396.0000 1.0000
29.0900 1421.0000 1.0000
29.1000 1375.0000 1.0000
29.1100 1359.0000 1.0000
29.1200 1337.0000 1.0000
29.1300 1401.0000 1.0000
29.1400 1432.0000 1.0000
29.1500 1372.0000 1.0000
29.1600 1375.0000 1.0000
29.1700 1404.0000 1.0000
29.1800 1424.0000 1.0000
29.1900 1436.0000 1.0000
29.2000 1369.0000 1.0000
29.2100 1402.0000 1.0000
29.2200 1436.0000 1.0000
29.2300 1456.0000 1.0000
29.2400 1300.0000 1.0000
29.2500 1433.0000 1.0000
29.2600 1368.0000 1.0000
29.2700 1367.0000 1.0000
29.2800 1346.0000 1.0000
29.2900 1371.0000 1.0000
29.3000 1425.0000 1.0000
29.3100 1401.0000 1.0000
29.3200 1377.0000 1.0000
29.3300 1424.0000 1.0000
29.3400 1376.0000 1.0000
29.3500 1369.0000 1.0000
29.3600 1312.0000 1.0000
29.3700 1439.0000 1.0000
29.3800 1401.0000 1.0000
29.3900 1363.0000 1.0000
29.4000 1367.0000 1.0000
29.4100 1366.0000 1.0000
29.4200 1433.0000 1.0000
29.4300 1441.0000 1.0000
29.4400 1421.0000 1.0000
29.4500 1390.0000 1.0000
29.4600 1395.0000 1.0000
29.4700 1383.0000 1.0000
29.4800 1408.0000 1.0000
29.4900 1394.0000 1.0000
29.5000 1409.0000 1.0000
29.5100 1416.0000 1.0000
29.5200 1371.0000 1.0000
29.5300 1406.0000 1.0000
29.5400 1413.0000 1.0000
29.5500 1451.0000 1.0000
29.5600 1387.0000 1.0000
29.5700 1400.0000 1.0000
29.5800 1402.0000 1.0000
29.5900 1373.0000 1.0000
29.6000 1417.0000 1.0000
29.6100 1364.0000 1.0000
29.6200 1401.0000 1.0000
29.6300 1363.0000 1.0000
29.6400 1361.0000 1.0000
29.6500 1413.0000 1.0000
29.6600 1368.0000 1.0000
29.6700 1400.0000 1.0000
29.6800 1352.0000 1.0000
29.6900 1358.0000 1.0000
29.7000 1299.0000 1.0000
29.7100 1417.0000 1.0000
29.7200 1395.0000 1.0000
29.7300 1401.0000 1.0000
29.7400 1410.0000 1.0000
29.7500 1366.0000 1.0000
29.7600 1366.0000 1.0000
29.7700 1364.0000 1.0000
29.7800 1358.0000 1.0000
29.7900 1396.0000 1.0000
29.8000 1370.0000 1.0000
29.8100 1386.0000 1.0000
29.8200 1422.0000 1.0000
29.8300 1349.0000 1.0000
29.8400 1341.0000 1.0000
29.8500 1370.0000 1.0000
29.8600 1333.0000 1.0000
29.8700 1368.0000 1.0000
29.8800 1417.0000 1.0000
29.8900 1396.0000 1.0000
29.9000 1373.0000 1.0000
29.9100 1341.0000 1.0000
29.9200 1368.0000 1.0000
29.9300 1420.0000 1.0000
29.9400 1396.0000 1.0000
29.9500 1388.0000 1.0000
29.9600 1387.0000 1.0000
29.9700 1362.0000 1.0000
29.9800 1395.0000 1.0000
29.9900 1351.0000 1.0000
30.0000 1331.0000 1.0000
30.0100 1305.0000 1.0000
30.0200 1360.0000 1.0000
30.0300 1401.0000 1.0000
30.0400 1355.0000 1.0000
30.0500 1409.0000 1.0000
30.0600 1333.0000 1.0000
30.0700 1336.0000 1.0000
30.0800 1394.0000 1.0000
30.0900 1381.0000 1.0000
30.1000 1345.0000 1.0000
30.1100 1388.0000 1.0000
30.1200 1303.0000 1.0000
30.1300 1342.0000 1.0000
30.1400 1398.0000 1.0000
30.1500 1321.0000 1.0000
30.1600 1325.0000 1.0000
30.1700 1319.0000 1.0000
30.1800 1366.0000 1.0000
30.1900 1328.0000 1.0000
30.2000 1342.0000 1.0000
30.2100 1359.0000 1.0000
30.2200 1337.0000 1.0000
30.2300 1302.0000 1.0000
30.2400 1412.0000 1.0000
30.2500 1432.0000 1.0000
30.2600 1355.0000 1.0000
30.2700 1347.0000 1.0000
30.2800 1261.0000 1.0000
30.2900 1358.0000 1.0000
30.3000 1316.0000 1.0000
30.3100 1344.0000 1.0000
30.3200 1337.0000 1.0000
30.3300 1313.0000 1.0000
30.3400 1325.0000 1.0000
30.3500 1341.0000 1.0000
30.3600 1394.0000 1.0000
30.3700 1332.0000 1.0000
30.3800 1339.0000 1.0000
30.3900 1333.0000 1.0000
30.4000 1326.0000 1.0000
30.4100 1313.0000 1.0000
30.4200 1347.0000 1.0000
30.4300 1314.0000 1.0000
30.4400 1301.0000 1.0000
30.4500 1302.0000 1.0000
30.4600 1351.0000 1.0000
30.4700 1303.0000 1.0000
30.4800 1286.0000 1.0000
30.4900 1354.0000 1.0000
30.5000 1351.0000 1.0000
30.5100 1341.0000 1.0000
30.5200 1301.0000 1.0000
30.5300 1385.0000 1.0000
30.5400 1302.0000 1.0000
30.5500 1358.0000 1.0000
30.5600 1284.0000 1.0000
30.5700 1359.0000 1.0000
30.5800 1361.0000 1.0000
30.5900 1343.0000 1.0000
30.6000 1316.0000 1.0000
30.6100 1374.0000 1.0000
30.6200 1334.0000 1.0000
30.6300 1290.0000 1.0000
30.6400 1285.0000 1.0000
30.6500 1346.0000 1.0000
30.6600 1336.0000 1.0000
30.6700 1302.0000 1.0000
30.6800 1254.0000 1.0000
30.6900 1320.0000 1.0000
30.7000 1305.0000 1.0000
30.7100 1364.0000 1.0000
30.7200 1295.0000 1.0000
30.7300 1287.0000 1.0000
30.7400 1279.0000 1.0000
30.7500 1318.0000 1.0000
30.7600 1267.0000 1.0000
30.7700 1280.0000 1.0000
30.7800 1358.0000 1.0000
30.7900 1350.0000 1.0000
30.8000 1316.0000 1.0000
30.8100 1260.0000 1.0000
30.8200 1298.0000 1.0000
30.8300 1291.0000 1.0000
30.8400 1315.0000 1.0000
30.8500 1319.0000 1.0000
30.8600 1265.0000 1.0000
30.8700 1293.0000 1.0000
30.8800 1314.0000 1.0000
30.8900 1349.0000 1.0000
30.9000 1352.0000 1.0000
30.9100 1320.0000 1.0000
30.9200 1283.0000 1.0000
30.9300 1271.0000 1.0000
30.9400 1274.0000 1.0000
30.9500 1336.0000 1.0000
30.9600 1313.0000 1.0000
30.9700 1292.0000 1.0000
30.9800 1262.0000 1.0000
30.9900 1285.0000 1.0000
31.0000 1287.0000 1.0000
31.0100 1313.0000 1.0000
31.0200 1274.0000 1.0000
31.0300 1329.0000 1.0000
31.0400 1264.0000 1.0000
31.0500 1245.0000 1.0000
31.0600 1319.0000 1.0000
31.0700 1373.0000 1.0000
31.0800 1336.0000 1.0000
31.0900 1291.0000 1.0000
31.1000 1309.0000 1.0000
31.1100 1313.0000 1.0000
31.1200 1295.0000 1.0000
31.1300 1353.0000 1.0000
31.1400 1291.0000 1.0000
31.1500 1282.0000 1.0000
31.1600 1370.0000 1.0000
31.1700 1300.0000 1.0000
31.1800 1298.0000 1.0000
31.1900 1293.0000 1.0000
31.2000 1240.0000 1.0000
31.2100 1283.0000 1.0000
31.2200 1339.0000 1.0000
31.2300 1335.0000 1.0000
31.2400 1280.0000 1.0000
31.2500 1219.0000 1.0000
31.2600 1309.0000 1.0000
31.2700 1267.0000 1.0000
31.2800 1310.0000 1.0000
31.2900 1309.0000 1.0000
31.3000 1307.0000 1.0000
31.3100 1333.0000 1.0000
31.3200 1299.0000 1.0000
31.3300 1339.0000 1.0000
31.3400 1310.0000 1.0000
31.3500 1277.0000 1.0000
31.3600 1271.0000 1.0000
31.3700 1334.0000 1.0000
31.3800 1333.0000 1.0000
31.3900 1263.0000 1.0000
31.4000 1284.0000 1.0000
31.4100 1315.0000 1.0000
31.4200 1331.0000 1.0000
31.4300 1332.0000 1.0000
31.4400 1294.0000 1.0000
31.4500 1299.0000 1.0000
31.4600 1336.0000 1.0000
31.4700 1275.0000 1.0000
31.4800 1215.0000 1.0000
31.4900 1319.0000 1.0000
31.5000 1288.0000 1.0000
31.5100 1254.0000 1.0000
31.5200 1276.0000 1.0000
31.5300 1250.0000 1.0000
31.5400 1262.0000 1.0000
31.5500 1325.0000 1.0000
31.5600 1263.0000 1.0000
31.5700 1295.0000 1.0000
31.5800 1337.0000 1.0000
31.5900 1299.0000 1.0000
31.6000 1307.0000 1.0000
31.6100 1297.0000 1.0000
31.6200 1325.0000 1.0000
31.6300 1219.0000 1.0000
31.6400 1296.0000 1.0000
31.6500 1248.0000 1.0000
31.6600 1244.0000 1.0000
31.6700 1283.0000 1.0000
31.6800 1232.0000 1.0000
31.6900 1234.0000 1.0000
31.7000 1319.0000 1.0000
31.7100 1336.0000 1.0000
31.7200 1286.0000 1.0000
31.7300 1282.0000 1.0000
31.7400 1286.0000 1.0000
31.7500 1295.0000 1.0000
31.7600 1314.0000 1.0000
31.7700 1299.0000 1.0000
31.7800 1248.0000 1.0000
31.7900 1271.0000 1.0000
31.8000 1305.0000 1.0000
31.8100 1352.0000 1.0000
31.8200 1266.0000 1.0000
31.8300 1369.0000 1.0000
31.8400 1364.0000 1.0000
31.8500 1276.0000 1.0000
31.8600 1292.0000 1.0000
31.8700 1287.0000 1.0000
31.8800 1285.0000 1.0000
31.8900 1291.0000 1.0000
31.9000 1293.0000 1.0000
31.9100 1301.0000 1.0000
31.9200 1297.0000 1.0000
31.9300 1313.0000 1.0000
31.9400 1292.0000 1.0000
31.9500 1296.0000 1.0000
31.9600 1400.0000 1.0000
31.9700 1371.0000 1.0000
31.9800 1327.0000 1.0000
31.9900 1351.0000 1.0000
32.0000 1337.0000 1.0000
32.0100 1373.0000 1.0000
32.0200 1326.0000 1.0000
32.0300 1298.0000 1.0000
32.0400 1285.0000 1.0000
32.0500 1365.0000 1.0000
32.0600 1360.0000 1.0000
32.0700 1308.0000 1.0000
32.0800 1300.0000 1.0000
32.0900 1291.0000 1.0000
32.1000 1295.0000 1.0000
32.1100 1282.0000 1.0000
32.1200 1297.0000 1.0000
32.1300 1258.0000 1.0000
32.1400 1267.0000 1.0000
32.1500 1261.0000 1.0000
32.1600 1260.0000 1.0000
32.1700 1269.0000 1.0000
32.1800 1241.0000 1.0000
32.1900 1289.0000 1.0000
32.2000 1276.0000 1.0000
32.2100 1292.0000 1.0000
32.2200 1248.0000 1.0000
32.2300 1247.0000 1.0000
32.2400 1267.0000 1.0000
32.2500 1253.0000 1.0000
32.2600 1244.0000 1.0000
32.2700 1320.0000 1.0000
32.2800 1255.0000 1.0000
32.2900 1307.0000 1.0000
32.3000 1302.0000 1.0000
32.3100 1260.0000 1.0000
32.3200 1233.0000 1.0000
32.3300 1238.0000 1.0000
32.3400 1285.0000 1.0000
32.3500 1247.0000 1.0000
32.3600 1246.0000 1.0000
32.3700 1276.0000 1.0000
32.3800 1228.0000 1.0000
32.3900 1269.0000 1.0000
32.4000 1262.0000 1.0000
32.4100 1221.0000 1.0000
32.4200 1227.0000 1.0000
32.4300 1248.0000 1.0000
32.4400 1215.0000 1.0000
32.4500 1278.0000 1.0000
32.4600 1236.0000 1.0000
32.4700 1256.0000 1.0000
32.4800 1297.0000 1.0000
32.4900 1264.0000 1.0000
32.5000 1239.0000 1.0000
32.5100 1257.0000 1.0000
32.5200 1243.0000 1.0000
32.5300 1224.0000 1.0000
32.5400 1216.0000 1.0000
32.5500 1315.0000 1.0000
32.5600 1284.0000 1.0000
32.5700 1294.0000 1.0000
32.5800 1261.0000 1.0000
32.5900 1179.0000 1.0000
32.6000 1241.0000 1.0000
32.6100 1230.0000 1.0000
32.6200 1249.0000 1.0000
32.6300 1213.0000 1.0000
32.6400 1275.0000 1.0000
32.6500 1220.0000 1.0000
32.6600 1229.0000 1.0000
32.6700 1270.0000 1.0000
32.6800 1230.0000 1.0000
32.6900 1215.0000 1.0000
32.7000 1200.0000 1.0000
32.7100 1259.0000 1.0000
32.7200 1255.0000 1.0000
32.7300 1251.0000 1.0000
32.7400 1239.0000 1.0000
32.7500 1232.0000 1.0000
32.7600 1243.0000 1.0000
32.7700 1274.0000 1.0000
32.7800 1254.0000 1.0000
32.7900 1231.0000 1.0000
32.8000 1210.0000 1.0000
32.8100 1213.0000 1.0000
32.8200 1241.0000 1.0000
32.8300 1207.0000 1.0000
32.8400 1232.0000 1.0000
32.8500 1154.0000 1.0000
32.8600 1239.0000 1.0000
32.8700 1207.0000 1.0000
32.8800 1190.0000 1.0000
32.8900 1168.0000 1.0000
32.9000 1147.0000 1.0000
32.9100 1240.0000 1.0000
32.9200 1249.0000 1.0000
32.9300 1172.0000 1.0000
32.9400 1143.0000 1.0000
32.9500 1181.0000 1.0000
32.9600 1227.0000 1.0000
32.9700 1231.0000 1.0000
32.9800 1217.0000 1.0000
32.9900 1200.0000 1.0000
33.0000 1224.0000 1.0000
33.0100 1188.0000 1.0000
33.0200 1154.0000 1.0000
33.0300 1198.0000 1.0000
33.0400 1227.0000 1.0000
33.0500 1225.0000 1.0000
33.0600 1190.0000 1.0000
33.0700 1193.0000 1.0000
33.0800 1223.0000 1.0000
33.0900 1229.0000 1.0000
33.1000 1175.0000 1.0000
33.1100 1175.0000 1.0000
33.1200 1223.0000 1.0000
33.1300 1176.0000 1.0000
33.1400 1230.0000 1.0000
33.1500 1212.0000 1.0000
33.1600 1233.0000 1.0000
33.1700 1248.0000 1.0000
33.1800 1178.0000 1.0000
33.1900 1259.0000 1.0000
33.2000 1195.0000 1.0000
33.2100 1266.0000 1.0000
33.2200 1170.0000 1.0000
33.2300 1250.0000 1.0000
33.2400 1218.0000 1.0000
33.2500 1204.0000 1.0000
33.2600 1240.0000 1.0000
33.2700 1238.0000 1.0000
33.2800 1251.0000 1.0000
33.2900 1204.0000 1.0000
33.3000 1186.0000 1.0000
33.3100 1193.0000 1.0000
33.3200 1207.0000 1.0000
33.3300 1245.0000 1.0000
33.3400 1201.0000 1.0000
33.3500 1216.0000 1.0000
33.3600 1221.0000 1.0000
33.3700 1229.0000 1.0000
33.3800 1247.0000 1.0000
33.3900 1228.0000 1.0000
33.4000 1183.0000 1.0000
33.4100 1213.0000 1.0000
33.4200 1226.0000 1.0000
33.4300 1223.0000 1.0000
33.4400 1248.0000 1.0000
33.4500 1206.0000 1.0000
33.4600 1213.0000 1.0000
33.4700 1168.0000 1.0000
33.4800 1174.0000 1.0000
33.4900 1230.0000 1.0000
33.5000 1254.0000 1.0000
33.5100 1226.0000 1.0000
33.5200 1191.0000 1.0000
33.5300 1234.0000 1.0000
33.5400 1226.0000 1.0000
33.5500 1258.0000 1.0000
33.5600 1279.0000 1.0000
33.5700 1176.0000 1.0000
33.5800 1201.0000 1.0000
33.5900 1188.0000 1.0000
33.6000 1220.0000 1.0000
33.6100 1291.0000 1.0000
33.6200 1239.0000 1.0000
33.6300 1260.0000 1.0000
33.6400 1240.0000 1.0000
33.6500 1236.0000 1.0000
33.6600 1262.0000 1.0000
33.6700 1233.0000 1.0000
33.6800 1232.0000 1.0000
33.6900 1253.0000 1.0000
33.7000 1279.0000 1.0000
33.7100 1297.0000 1.0000
33.7200 1335.0000 1.0000
33.7300 1286.0000 1.0000
33.7400 1254.0000 1.0000
33.7500 1304.0000 1.0000
33.7600 1205.0000 1.0000
33.7700 1304.0000 1.0000
33.7800 1268.0000 1.0000
33.7900 1330.0000 1.0000
33.8000 1320.0000 1.0000
33.8100 1315.0000 1.0000
33.8200 1285.0000 1.0000
33.8300 1306.0000 1.0000
33.8400 1333.0000 1.0000
33.8500 1297.0000 1.0000
33.8600 1309.0000 1.0000
33.8700 1285.0000 1.0000
33.8800 1302.0000 1.0000
33.8900 1305.0000 1.0000
33.9000 1332.0000 1.0000
33.9100 1323.0000 1.0000
33.9200 1365.0000 1.0000
33.9300 1302.0000 1.0000
33.9400 1313.0000 1.0000
33.9500 1368.0000 1.0000
33.9600 1325.0000 1.0000
33.9700 1310.0000 1.0000
33.9800 1371.0000 1.0000
33.9900 1360.0000 1.0000
34.0000 1362.0000 1.0000
34.0100 1418.0000 1.0000
34.0200 1327.0000 1.0000
34.0300 1360.0000 1.0000
34.0400 1352.0000 1.0000
34.0500 1330.0000 1.0000
34.0600 1326.0000 1.0000
34.0700 1353.0000 1.0000
34.0800 1415.0000 1.0000
34.0900 1436.0000 1.0000
34.1000 1403.0000 1.0000
34.1100 1367.0000 1.0000
34.1200 1356.0000 1.0000
34.1300 1373.0000 1.0000
34.1400 1385.0000 1.0000
34.1500 1362.0000 1.0000
34.1600 1443.0000 1.0000
34.1700 1456.0000 1.0000
34.1800 1436.0000 1.0000
34.1900 1470.0000 1.0000
34.2000 1563.0000 1.0000
34.2100 1469.0000 1.0000
34.2200 1544.0000 1.0000
34.2300 1571.0000 1.0000
34.2400 1563.0000 1.0000
34.2500 1605.0000 1.0000
34.2600 1631.0000 1.0000
34.2700 1641.0000 1.0000
34.2800 1726.0000 1.0000
34.2900 1668.0000 1.0000
34.3000 1728.0000 1.0000
34.3100 1720.0000 1.0000
34.3200 1783.0000 1.0000
34.3300 1946.0000 1.0000
34.3400 1983.0000 1.0000
34.3500 2018.0000 1.0000
34.3600 2085.0000 1.0000
34.3700 2186.0000 1.0000
34.3800 2250.0000 1.0000
34.3900 2371.0000 1.0000
34.4000 2449.0000 1.0000
34.4100 2476.0000 1.0000
34.4200 2677.0000 1.0000
34.4300 2681.0000 1.0000
34.4400 2806.0000 1.0000
34.4500 2818.0000 1.0000
34.4600 2872.0000 1.0000
34.4700 2854.0000 1.0000
34.4800 2939.0000 1.0000
34.4900 2974.0000 1.0000
34.5000 2838.0000 1.0000
34.5100 2783.0000 1.0000
34.5200 2713.0000 1.0000
34.5300 2688.0000 1.0000
34.5400 2548.0000 1.0000
34.5500 2527.0000 1.0000
34.5600 2433.0000 1.0000
34.5700 2375.0000 1.0000
34.5800 2298.0000 1.0000
34.5900 2180.0000 1.0000
34.6000 2071.0000 1.0000
34.6100 2123.0000 1.0000
34.6200 2062.0000 1.0000
34.6300 1960.0000 1.0000
34.6400 1854.0000 1.0000
34.6500 1756.0000 1.0000
34.6600 1736.0000 1.0000
34.6700 1714.0000 1.0000
34.6800 1760.0000 1.0000
34.6900 1631.0000 1.0000
34.7000 1594.0000 1.0000
34.7100 1610.0000 1.0000
34.7200 1572.0000 1.0000
34.7300 1527.0000 1.0000
34.7400 1499.0000 1.0000
34.7500 1496.0000 1.0000
34.7600 1435.0000 1.0000
34.7700 1428.0000 1.0000
34.7800 1446.0000 1.0000
34.7900 1412.0000 1.0000
34.8000 1382.0000 1.0000
34.8100 1392.0000 1.0000
34.8200 1392.0000 1.0000
34.8300 1385.0000 1.0000
34.8400 1360.0000 1.0000
34.8500 1368.0000 1.0000
34.8600 1320.0000 1.0000
34.8700 1271.0000 1.0000
34.8800 1262.0000 1.0000
34.8900 1207.0000 1.0000
34.9000 1284.0000 1.0000
34.9100 1254.0000 1.0000
34.9200 1263.0000 1.0000
34.9300 1232.0000 1.0000
34.9400 1241.0000 1.0000
34.9500 1208.0000 1.0000
34.9600 1237.0000 1.0000
34.9700 1242.0000 1.0000
34.9800 1170.0000 1.0000
34.9900 1188.0000 1.0000
35.0000 1163.0000 1.0000
35.0100 1185.0000 1.0000
35.0200 1140.0000 1.0000
35.0300 1156.0000 1.0000
35.0400 1159.0000 1.0000
35.0500 1154.0000 1.0000
35.0600 1134.0000 1.0000
35.0700 1165.0000 1.0000
35.0800 1196.0000 1.0000
35.0900 1193.0000 1.0000
35.1000 1149.0000 1.0000
35.1100 1164.0000 1.0000
35.1200 1139.0000 1.0000
35.1300 1110.0000 1.0000
35.1400 1090.0000 1.0000
35.1500 1131.0000 1.0000
35.1600 1148.0000 1.0000
35.1700 1195.0000 1.0000
35.1800 1120.0000 1.0000
35.1900 1143.0000 1.0000
35.2000 1155.0000 1.0000
35.2100 1136.0000 1.0000
35.2200 1101.0000 1.0000
35.2300 1124.0000 1.0000
35.2400 1061.0000 1.0000
35.2500 1095.0000 1.0000
35.2600 1098.0000 1.0000
35.2700 1121.0000 1.0000
35.2800 1062.0000 1.0000
35.2900 1105.0000 1.0000
35.3000 1110.0000 1.0000
35.3100 1131.0000 1.0000
35.3200 1170.0000 1.0000
35.3300 1063.0000 1.0000
35.3400 1066.0000 1.0000
35.3500 1071.0000 1.0000
35.3600 1081.0000 1.0000
35.3700 1076.0000 1.0000
35.3800 1059.0000 1.0000
35.3900 1080.0000 1.0000
35.4000 1097.0000 1.0000
35.4100 1073.0000 1.0000
35.4200 1021.0000 1.0000
35.4300 1081.0000 1.0000
35.4400 1077.0000 1.0000
35.4500 1080.0000 1.0000
35.4600 1069.0000 1.0000
35.4700 1059.0000 1.0000
35.4800 1056.0000 1.0000
35.4900 1048.0000 1.0000
35.5000 1034.0000 1.0000
35.5100 1018.0000 1.0000
35.5200 1094.0000 1.0000
35.5300 1107.0000 1.0000
35.5400 1121.0000 1.0000
35.5500 1096.0000 1.0000
35.5600 1028.0000 1.0000
35.5700 1067.0000 1.0000
35.5800 1100.0000 1.0000
35.5900 1051.0000 1.0000
35.6000 1094.0000 1.0000
35.6100 1015.0000 1.0000
35.6200 1073.0000 1.0000
35.6300 1068.0000 1.0000
35.6400 1042.0000 1.0000
35.6500 1019.0000 1.0000
35.6600 1074.0000 1.0000
35.6700 1070.0000 1.0000
35.6800 1024.0000 1.0000
35.6900 984.0000 1.0000
35.7000 1069.0000 1.0000
35.7100 1069.0000 1.0000
35.7200 1005.0000 1.0000
35.7300 1065.0000 1.0000
35.7400 1138.0000 1.0000
35.7500 1027.0000 1.0000
35.7600 1063.0000 1.0000
35.7700 1065.0000 1.0000
35.7800 1046.0000 1.0000
35.7900 1153.0000 1.0000
35.8000 1061.0000 1.0000
35.8100 1015.0000 1.0000
35.8200 1082.0000 1.0000
35.8300 1054.0000 1.0000
35.8400 1074.0000 1.0000
35.8500 1033.0000 1.0000
35.8600 1017.0000 1.0000
35.8700 1106.0000 1.0000
35.8800 1028.0000 1.0000
35.8900 1080.0000 1.0000
35.9000 1072.0000 1.0000
35.9100 1040.0000 1.0000
35.9200 1031.0000 1.0000
35.9300 1037.0000 1.0000
35.9400 1093.0000 1.0000
35.9500 1087.0000 1.0000
35.9600 1092.0000 1.0000
35.9700 1051.0000 1.0000
35.9800 1020.0000 1.0000
35.9900 1074.0000 1.0000
36.0000 1044.0000 1.0000
36.0100 1068.0000 1.0000
36.0200 1089.0000 1.0000
36.0300 1048.0000 1.0000
36.0400 1093.0000 1.0000
36.0500 1071.0000 1.0000
36.0600 1086.0000 1.0000
36.0700 1078.0000 1.0000
36.0800 1131.0000 1.0000
36.0900 1080.0000 1.0000
36.1000 1107.0000 1.0000
36.1100 1105.0000 1.0000
36.1200 1084.0000 1.0000
36.1300 1106.0000 1.0000
36.1400 1143.0000 1.0000
36.1500 1172.0000 1.0000
36.1600 1123.0000 1.0000
36.1700 1156.0000 1.0000
36.1800 1135.0000 1.0000
36.1900 1131.0000 1.0000
36.2000 1142.0000 1.0000
36.2100 1234.0000 1.0000
36.2200 1146.0000 1.0000
36.2300 1229.0000 1.0000
36.2400 1226.0000 1.0000
36.2500 1235.0000 1.0000
36.2600 1270.0000 1.0000
36.2700 1240.0000 1.0000
36.2800 1282.0000 1.0000
36.2900 1275.0000 1.0000
36.3000 1264.0000 1.0000
36.3100 1343.0000 1.0000
36.3200 1333.0000 1.0000
36.3300 1372.0000 1.0000
36.3400 1332.0000 1.0000
36.3500 1386.0000 1.0000
36.3600 1353.0000 1.0000
36.3700 1408.0000 1.0000
36.3800 1377.0000 1.0000
36.3900 1376.0000 1.0000
36.4000 1362.0000 1.0000
36.4100 1422.0000 1.0000
36.4200 1369.0000 1.0000
36.4300 1335.0000 1.0000
36.4400 1352.0000 1.0000
36.4500 1388.0000 1.0000
36.4600 1286.0000 1.0000
36.4700 1411.0000 1.0000
36.4800 1334.0000 1.0000
36.4900 1296.0000 1.0000
36.5000 1282.0000 1.0000
36.5100 1235.0000 1.0000
36.5200 1251.0000 1.0000
36.5300 1272.0000 1.0000
36.5400 1243.0000 1.0000
36.5500 1234.0000 1.0000
36.5600 1185.0000 1.0000
36.5700 1167.0000 1.0000
36.5800 1128.0000 1.0000
36.5900 1115.0000 1.0000
36.6000 1190.0000 1.0000
36.6100 1211.0000 1.0000
36.6200 1141.0000 1.0000
36.6300 1086.0000 1.0000
36.6400 1118.0000 1.0000
36.6500 1086.0000 1.0000
36.6600 1123.0000 1.0000
36.6700 1048.0000 1.0000
36.6800 1054.0000 1.0000
36.6900 1056.0000 1.0000
36.7000 1018.0000 1.0000
36.7100 1032.0000 1.0000
36.7200 1039.0000 1.0000
36.7300 981.0000 1.0000
36.7400 1013.0000 1.0000
36.7500 1027.0000 1.0000
36.7600 1062.0000 1.0000
36.7700 995.0000 1.0000
36.7800 970.0000 1.0000
36.7900 985.0000 1.0000
36.8000 1047.0000 1.0000
36.8100 984.0000 1.0000
36.8200 980.0000 1.0000
36.8300 1001.0000 1.0000
36.8400 983.0000 1.0000
36.8500 917.0000 1.0000
36.8600 976.0000 1.0000
36.8700 993.0000 1.0000
36.8800 966.0000 1.0000
36.8900 974.0000 1.0000
36.9000 989.0000 1.0000
36.9100 995.0000 1.0000
36.9200 999.0000 1.0000
36.9300 950.0000 1.0000
36.9400 970.0000 1.0000
36.9500 961.0000 1.0000
36.9600 1016.0000 1.0000
36.9700 1008.0000 1.0000
36.9800 957.0000 1.0000
36.9900 929.0000 1.0000
37.0000 961.0000 1.0000
37.0100 946.0000 1.0000
37.0200 973.0000 1.0000
37.0300 956.0000 1.0000
37.0400 984.0000 1.0000
37.0500 974.0000 1.0000
37.0600 1006.0000 1.0000
37.0700 971.0000 1.0000
37.0800 956.0000 1.0000
37.0900 948.0000 1.0000
37.1000 927.0000 1.0000
37.1100 927.0000 1.0000
37.1200 936.0000 1.0000
37.1300 985.0000 1.0000
37.1400 949.0000 1.0000
37.1500 968.0000 1.0000
37.1600 971.0000 1.0000
37.1700 938.0000 1.0000
37.1800 989.0000 1.0000
37.1900 924.0000 1.0000
37.2000 909.0000 1.0000
37.2100 938.0000 1.0000
37.2200 990.0000 1.0000
37.2300 994.0000 1.0000
37.2400 954.0000 1.0000
37.2500 975.0000 1.0000
37.2600 961.0000 1.0000
37.2700 960.0000 1.0000
37.2800 979.0000 1.0000
37.2900 977.0000 1.0000
37.3000 914.0000 1.0000
37.3100 984.0000 1.0000
37.3200 967.0000 1.0000
37.3300 965.0000 1.0000
37.3400 963.0000 1.0000
37.3500 984.0000 1.0000
37.3600 993.0000 1.0000
37.3700 990.0000 1.0000
37.3800 981.0000 1.0000
37.3900 951.0000 1.0000
37.4000 920.0000 1.0000
37.4100 951.0000 1.0000
37.4200 953.0000 1.0000
37.4300 948.0000 1.0000
37.4400 972.0000 1.0000
37.4500 919.0000 1.0000
37.4600 959.0000 1.0000
37.4700 962.0000 1.0000
37.4800 974.0000 1.0000
37.4900 930.0000 1.0000
37.5000 956.0000 1.0000
37.5100 1011.0000 1.0000
37.5200 939.0000 1.0000
37.5300 966.0000 1.0000
37.5400 958.0000 1.0000
37.5500 991.0000 1.0000
37.5600 964.0000 1.0000
37.5700 936.0000 1.0000
37.5800 977.0000 1.0000
37.5900 933.0000 1.0000
37.6000 963.0000 1.0000
37.6100 965.0000 1.0000
37.6200 917.0000 1.0000
37.6300 907.0000 1.0000
37.6400 931.0000 1.0000
37.6500 972.0000 1.0000
37.6600 972.0000 1.0000
37.6700 999.0000 1.0000
37.6800 954.0000 1.0000
37.6900 971.0000 1.0000
37.7000 947.0000 1.0000
37.7100 971.0000 1.0000
37.7200 960.0000 1.0000
37.7300 970.0000 1.0000
37.7400 1018.0000 1.0000
37.7500 993.0000 1.0000
37.7600 1021.0000 1.0000
37.7700 1005.0000 1.0000
37.7800 950.0000 1.0000
37.7900 994.0000 1.0000
37.8000 918.0000 1.0000
37.8100 969.0000 1.0000
37.8200 981.0000 1.0000
37.8300 953.0000 1.0000
37.8400 951.0000 1.0000
37.8500 1021.0000 1.0000
37.8600 964.0000 1.0000
37.8700 992.0000 1.0000
37.8800 971.0000 1.0000
37.8900 1014.0000 1.0000
37.9000 1005.0000 1.0000
37.9100 1070.0000 1.0000
37.9200 1010.0000 1.0000
37.9300 1005.0000 1.0000
37.9400 1046.0000 1.0000
37.9500 1080.0000 1.0000
37.9600 1044.0000 1.0000
37.9700 1054.0000 1.0000
37.9800 993.0000 1.0000
37.9900 1060.0000 1.0000
38.0000 1058.0000 1.0000
38.0100 1087.0000 1.0000
38.0200 1095.0000 1.0000
38.0300 1132.0000 1.0000
38.0400 1113.0000 1.0000
38.0500 1065.0000 1.0000
38.0600 1099.0000 1.0000
38.0700 1105.0000 1.0000
38.0800 1107.0000 1.0000
38.0900 1210.0000 1.0000
38.1000 1142.0000 1.0000
38.1100 1170.0000 1.0000
38.1200 1222.0000 1.0000
38.1300 1208.0000 1.0000
38.1400 1234.0000 1.0000
38.1500 1299.0000 1.0000
38.1600 1305.0000 1.0000
38.1700 1328.0000 1.0000
38.1800 1424.0000 1.0000
38.1900 1459.0000 1.0000
38.2000 1510.0000 1.0000
38.2100 1563.0000 1.0000
38.2200 1603.0000 1.0000
38.2300 1685.0000 1.0000
38.2400 1745.0000 1.0000
38.2500 1811.0000 1.0000
38.2600 1837.0000 1.0000
38.2700 1930.0000 1.0000
38.2800 2057.0000 1.0000
38.2900 2242.0000 1.0000
38.3000 2235.0000 1.0000
38.3100 2329.0000 1.0000
38.3200 2521.0000 1.0000
38.3300 2653.0000 1.0000
38.3400 2900.0000 1.0000
38.3500 3015.0000 1.0000
38.3600 3201.0000 1.0000
38.3700 3366.0000 1.0000
38.3800 3650.0000 1.0000
38.3900 3991.0000 1.0000
38.4000 4225.0000 1.0000
38.4100 4617.0000 1.0000
38.4200 5131.0000 1.0000
38.4300 5382.0000 1.0000
38.4400 5580.0000 1.0000
38.4500 6079.0000 1.0000
38.4600 6435.0000 1.0000
38.4700 6774.0000 1.0000
38.4800 7032.0000 1.0000
38.4900 7234.0000 1.0000
38.5000 7506.0000 1.0000
38.5100 7505.0000 1.0000
38.5200 7583.0000 1.0000
38.5300 7407.0000 1.0000
38.5400 7340.0000 1.0000
38.5500 7306.0000 1.0000
38.5600 6960.0000 1.0000
38.5700 6780.0000 1.0000
38.5800 6737.0000 1.0000
38.5900 6390.0000 1.0000
38.6000 6033.0000 1.0000
38.6100 5775.0000 1.0000
38.6200 5462.0000 1.0000
38.6300 5242.0000 1.0000
38.6400 4856.0000 1.0000
38.6500 4609.0000 1.0000
38.6600 4178.0000 1.0000
38.6700 3887.0000 1.0000
38.6800 3660.0000 1.0000
38.6900 3428.0000 1.0000
38.7000 3068.0000 1.0000
38.7100 3034.0000 1.0000
38.7200 2849.0000 1.0000
38.7300 2603.0000 1.0000
38.7400 2389.0000 1.0000
38.7500 2339.0000 1.0000
38.7600 2266.0000 1.0000
38.7700 1990.0000 1.0000
38.7800 1972.0000 1.0000
38.7900 1874.0000 1.0000
38.8000 1769.0000 1.0000
38.8100 1661.0000 1.0000
38.8200 1627.0000 1.0000
38.8300 1529.0000 1.0000
38.8400 1525.0000 1.0000
38.8500 1417.0000 1.0000
38.8600 1418.0000 1.0000
38.8700 1345.0000 1.0000
38.8800 1350.0000 1.0000
38.8900 1272.0000 1.0000
38.9000 1263.0000 1.0000
38.9100 1258.0000 1.0000
38.9200 1196.0000 1.0000
38.9300 1189.0000 1.0000
38.9400 1131.0000 1.0000
38.9500 1220.0000 1.0000
38.9600 1063.0000 1.0000
38.9700 1091.0000 1.0000
38.9800 1078.0000 1.0000
38.9900 1044.0000 1.0000
39.0000 1021.0000 1.0000
39.0100 1036.0000 1.0000
39.0200 1052.0000 1.0000
39.0300 1041.0000 1.0000
39.0400 978.0000 1.0000
39.0500 1005.0000 1.0000
39.0600 994.0000 1.0000
39.0700 1001.0000 1.0000
39.0800 979.0000 1.0000
39.0900 956.0000 1.0000
39.1000 925.0000 1.0000
39.1100 935.0000 1.0000
39.1200 932.0000 1.0000
39.1300 948.0000 1.0000
39.1400 895.0000 1.0000
39.1500 891.0000 1.0000
39.1600 926.0000 1.0000
39.1700 946.0000 1.0000
39.1800 948.0000 1.0000
39.1900 944.0000 1.0000
39.2000 919.0000 1.0000
39.2100 855.0000 1.0000
39.2200 927.0000 1.0000
39.2300 896.0000 1.0000
39.2400 876.0000 1.0000
39.2500 902.0000 1.0000
39.2600 892.0000 1.0000
39.2700 898.0000 1.0000
39.2800 925.0000 1.0000
39.2900 882.0000 1.0000
39.3000 923.0000 1.0000
39.3100 928.0000 1.0000
39.3200 943.0000 1.0000
39.3300 873.0000 1.0000
39.3400 916.0000 1.0000
39.3500 883.0000 1.0000
39.3600 902.0000 1.0000
39.3700 876.0000 1.0000
39.3800 894.0000 1.0000
39.3900 863.0000 1.0000
39.4000 926.0000 1.0000
39.4100 901.0000 1.0000
39.4200 932.0000 1.0000
39.4300 895.0000 1.0000
39.4400 890.0000 1.0000
39.4500 894.0000 1.0000
39.4600 896.0000 1.0000
39.4700 910.0000 1.0000
39.4800 919.0000 1.0000
39.4900 821.0000 1.0000
39.5000 857.0000 1.0000
39.5100 901.0000 1.0000
39.5200 942.0000 1.0000
39.5300 938.0000 1.0000
39.5400 939.0000 1.0000
39.5500 890.0000 1.0000
39.5600 936.0000 1.0000
39.5700 903.0000 1.0000
39.5800 895.0000 1.0000
39.5900 887.0000 1.0000
39.6000 877.0000 1.0000
39.6100 943.0000 1.0000
39.6200 940.0000 1.0000
39.6300 903.0000 1.0000
39.6400 865.0000 1.0000
39.6500 921.0000 1.0000
39.6600 924.0000 1.0000
39.6700 885.0000 1.0000
39.6800 900.0000 1.0000
39.6900 907.0000 1.0000
39.7000 885.0000 1.0000
39.7100 855.0000 1.0000
39.7200 856.0000 1.0000
39.7300 898.0000 1.0000
39.7400 901.0000 1.0000
39.7500 845.0000 1.0000
39.7600 860.0000 1.0000
39.7700 863.0000 1.0000
39.7800 872.0000 1.0000
39.7900 850.0000 1.0000
39.8000 859.0000 1.0000
39.8100 869.0000 1.0000
39.8200 788.0000 1.0000
39.8300 865.0000 1.0000
39.8400 841.0000 1.0000
39.8500 911.0000 1.0000
39.8600 850.0000 1.0000
39.8700 811.0000 1.0000
39.8800 780.0000 1.0000
39.8900 799.0000 1.0000
39.9000 818.0000 1.0000
39.9100 800.0000 1.0000
39.9200 838.0000 1.0000
39.9300 830.0000 1.0000
39.9400 834.0000 1.0000
39.9500 844.0000 1.0000
39.9600 799.0000 1.0000
39.9700 850.0000 1.0000
39.9800 820.0000 1.0000
39.9900 820.0000 1.0000
40.0000 833.0000 1.0000
40.0100 830.0000 1.0000
40.0200 842.0000 1.0000
40.0300 846.0000 1.0000
40.0400 801.0000 1.0000
40.0500 833.0000 1.0000
40.0600 794.0000 1.0000
40.0700 823.0000 1.0000
40.0800 800.0000 1.0000
40.0900 803.0000 1.0000
40.1000 790.0000 1.0000
40.1100 777.0000 1.0000
40.1200 786.0000 1.0000
40.1300 797.0000 1.0000
40.1400 771.0000 1.0000
40.1500 810.0000 1.0000
40.1600 817.0000 1.0000
40.1700 787.0000 1.0000
40.1800 801.0000 1.0000
40.1900 813.0000 1.0000
40.2000 788.0000 1.0000
40.2100 831.0000 1.0000
40.2200 791.0000 1.0000
40.2300 823.0000 1.0000
40.2400 839.0000 1.0000
40.2500 806.0000 1.0000
40.2600 810.0000 1.0000
40.2700 820.0000 1.0000
40.2800 803.0000 1.0000
40.2900 822.0000 1.0000
40.3000 805.0000 1.0000
40.3100 840.0000 1.0000
40.3200 811.0000 1.0000
40.3300 793.0000 1.0000
40.3400 767.0000 1.0000
40.3500 837.0000 1.0000
40.3600 785.0000 1.0000
40.3700 769.0000 1.0000
40.3800 837.0000 1.0000
40.3900 782.0000 1.0000
40.4000 806.0000 1.0000
40.4100 762.0000 1.0000
40.4200 826.0000 1.0000
40.4300 787.0000 1.0000
40.4400 788.0000 1.0000
40.4500 812.0000 1.0000
40.4600 802.0000 1.0000
40.4700 801.0000 1.0000
40.4800 787.0000 1.0000
40.4900 820.0000 1.0000
40.5000 825.0000 1.0000
40.5100 770.0000 1.0000
40.5200 808.0000 1.0000
40.5300 810.0000 1.0000
40.5400 782.0000 1.0000
40.5500 756.0000 1.0000
40.5600 776.0000 1.0000
40.5700 760.0000 1.0000
40.5800 747.0000 1.0000
40.5900 804.0000 1.0000
40.6000 792.0000 1.0000
40.6100 806.0000 1.0000
40.6200 782.0000 1.0000
40.6300 816.0000 1.0000
40.6400 800.0000 1.0000
40.6500 789.0000 1.0000
40.6600 808.0000 1.0000
40.6700 833.0000 1.0000
40.6800 778.0000 1.0000
40.6900 750.0000 1.0000
40.7000 742.0000 1.0000
40.7100 790.0000 1.0000
40.7200 821.0000 1.0000
40.7300 836.0000 1.0000
40.7400 811.0000 1.0000
40.7500 767.0000 1.0000
40.7600 767.0000 1.0000
40.7700 817.0000 1.0000
40.7800 784.0000 1.0000
40.7900 761.0000 1.0000
40.8000 762.0000 1.0000
40.8100 768.0000 1.0000
40.8200 768.0000 1.0000
40.8300 794.0000 1.0000
40.8400 804.0000 1.0000
40.8500 751.0000 1.0000
40.8600 784.0000 1.0000
40.8700 801.0000 1.0000
40.8800 759.0000 1.0000
40.8900 806.0000 1.0000
40.9000 844.0000 1.0000
40.9100 769.0000 1.0000
40.9200 812.0000 1.0000
40.9300 783.0000 1.0000
40.9400 797.0000 1.0000
40.9500 809.0000 1.0000
40.9600 810.0000 1.0000
40.9700 794.0000 1.0000
40.9800 790.0000 1.0000
40.9900 775.0000 1.0000
41.0000 815.0000 1.0000
41.0100 775.0000 1.0000
41.0200 818.0000 1.0000
41.0300 800.0000 1.0000
41.0400 747.0000 1.0000
41.0500 766.0000 1.0000
41.0600 787.0000 1.0000
41.0700 806.0000 1.0000
41.0800 769.0000 1.0000
41.0900 801.0000 1.0000
41.1000 783.0000 1.0000
41.1100 763.0000 1.0000
41.1200 806.0000 1.0000
41.1300 806.0000 1.0000
41.1400 836.0000 1.0000
41.1500 737.0000 1.0000
41.1600 811.0000 1.0000
41.1700 825.0000 1.0000
41.1800 794.0000 1.0000
41.1900 745.0000 1.0000
41.2000 789.0000 1.0000
41.2100 800.0000 1.0000
41.2200 784.0000 1.0000
41.2300 805.0000 1.0000
41.2400 814.0000 1.0000
41.2500 756.0000 1.0000
41.2600 758.0000 1.0000
41.2700 788.0000 1.0000
41.2800 784.0000 1.0000
41.2900 740.0000 1.0000
41.3000 796.0000 1.0000
41.3100 808.0000 1.0000
41.3200 817.0000 1.0000
41.3300 777.0000 1.0000
41.3400 769.0000 1.0000
41.3500 757.0000 1.0000
41.3600 806.0000 1.0000
41.3700 794.0000 1.0000
41.3800 782.0000 1.0000
41.3900 793.0000 1.0000
41.4000 779.0000 1.0000
41.4100 732.0000 1.0000
41.4200 833.0000 1.0000
41.4300 846.0000 1.0000
41.4400 733.0000 1.0000
41.4500 750.0000 1.0000
41.4600 811.0000 1.0000
41.4700 775.0000 1.0000
41.4800 762.0000 1.0000
41.4900 812.0000 1.0000
41.5000 817.0000 1.0000
41.5100 800.0000 1.0000
41.5200 772.0000 1.0000
41.5300 751.0000 1.0000
41.5400 771.0000 1.0000
41.5500 779.0000 1.0000
41.5600 811.0000 1.0000
41.5700 779.0000 1.0000
41.5800 832.0000 1.0000
41.5900 802.0000 1.0000
41.6000 782.0000 1.0000
41.6100 791.0000 1.0000
41.6200 838.0000 1.0000
41.6300 786.0000 1.0000
41.6400 790.0000 1.0000
41.6500 774.0000 1.0000
41.6600 805.0000 1.0000
41.6700 776.0000 1.0000
41.6800 791.0000 1.0000
41.6900 785.0000 1.0000
41.7000 801.0000 1.0000
41.7100 804.0000 1.0000
41.7200 801.0000 1.0000
41.7300 796.0000 1.0000
41.7400 798.0000 1.0000
41.7500 747.0000 1.0000
41.7600 838.0000 1.0000
41.7700 751.0000 1.0000
41.7800 749.0000 1.0000
41.7900 776.0000 1.0000
41.8000 769.0000 1.0000
41.8100 765.0000 1.0000
41.8200 718.0000 1.0000
41.8300 787.0000 1.0000
41.8400 791.0000 1.0000
41.8500 783.0000 1.0000
41.8600 771.0000 1.0000
41.8700 771.0000 1.0000
41.8800 799.0000 1.0000
41.8900 813.0000 1.0000
41.9000 796.0000 1.0000
41.9100 770.0000 1.0000
41.9200 756.0000 1.0000
41.9300 776.0000 1.0000
41.9400 772.0000 1.0000
41.9500 791.0000 1.0000
41.9600 771.0000 1.0000
41.9700 765.0000 1.0000
41.9800 776.0000 1.0000
41.9900 760.0000 1.0000
42.0000 759.0000 1.0000
42.0100 809.0000 1.0000
42.0200 777.0000 1.0000
42.0300 732.0000 1.0000
42.0400 712.0000 1.0000
42.0500 799.0000 1.0000
42.0600 780.0000 1.0000
42.0700 799.0000 1.0000
42.0800 769.0000 1.0000
42.0900 760.0000 1.0000
42.1000 811.0000 1.0000
42.1100 801.0000 1.0000
42.1200 773.0000 1.0000
42.1300 737.0000 1.0000
42.1400 771.0000 1.0000
42.1500 744.0000 1.0000
42.1600 785.0000 1.0000
42.1700 715.0000 1.0000
42.1800 738.0000 1.0000
42.1900 776.0000 1.0000
42.2000 770.0000 1.0000
42.2100 735.0000 1.0000
42.2200 730.0000 1.0000
42.2300 766.0000 1.0000
42.2400 830.0000 1.0000
42.2500 760.0000 1.0000
42.2600 729.0000 1.0000
42.2700 782.0000 1.0000
42.2800 783.0000 1.0000
42.2900 778.0000 1.0000
42.3000 765.0000 1.0000
42.3100 747.0000 1.0000
42.3200 776.0000 1.0000
42.3300 765.0000 1.0000
42.3400 767.0000 1.0000
42.3500 791.0000 1.0000
42.3600 768.0000 1.0000
42.3700 743.0000 1.0000
42.3800 794.0000 1.0000
42.3900 803.0000 1.0000
42.4000 787.0000 1.0000
42.4100 807.0000 1.0000
42.4200 765.0000 1.0000
42.4300 759.0000 1.0000
42.4400 780.0000 1.0000
42.4500 760.0000 1.0000
42.4600 735.0000 1.0000
42.4700 779.0000 1.0000
42.4800 762.0000 1.0000
42.4900 710.0000 1.0000
42.5000 764.0000 1.0000
42.5100 779.0000 1.0000
42.5200 755.0000 1.0000
42.5300 750.0000 1.0000
42.5400 800.0000 1.0000
42.5500 801.0000 1.0000
42.5600 776.0000 1.0000
42.5700 739.0000 1.0000
42.5800 745.0000 1.0000
42.5900 791.0000 1.0000
42.6000 810.0000 1.0000
42.6100 784.0000 1.0000
42.6200 771.0000 1.0000
42.6300 763.0000 1.0000
42.6400 774.0000 1.0000
42.6500 778.0000 1.0000
42.6600 766.0000 1.0000
42.6700 732.0000 1.0000
42.6800 774.0000 1.0000
42.6900 759.0000 1.0000
42.7000 762.0000 1.0000
42.7100 794.0000 1.0000
42.7200 783.0000 1.0000
42.7300 801.0000 1.0000
42.7400 737.0000 1.0000
42.7500 756.0000 1.0000
42.7600 750.0000 1.0000
42.7700 787.0000 1.0000
42.7800 762.0000 1.0000
42.7900 773.0000 1.0000
42.8000 784.0000 1.0000
42.8100 794.0000 1.0000
42.8200 784.0000 1.0000
42.8300 810.0000 1.0000
42.8400 804.0000 1.0000
42.8500 813.0000 1.0000
42.8600 717.0000 1.0000
42.8700 756.0000 1.0000
42.8800 827.0000 1.0000
42.8900 759.0000 1.0000
42.9000 750.0000 1.0000
42.9100 769.0000 1.0000
42.9200 820.0000 1.0000
42.9300 801.0000 1.0000
42.9400 813.0000 1.0000
42.9500 801.0000 1.0000
42.9600 797.0000 1.0000
42.9700 832.0000 1.0000
42.9800 775.0000 1.0000
42.9900 756.0000 1.0000
43.0000 810.0000 1.0000
43.0100 751.0000 1.0000
43.0200 780.0000 1.0000
43.0300 784.0000 1.0000
43.0400 842.0000 1.0000
43.0500 846.0000 1.0000
43.0600 786.0000 1.0000
43.0700 809.0000 1.0000
43.0800 816.0000 1.0000
43.0900 834.0000 1.0000
43.1000 834.0000 1.0000
43.1100 837.0000 1.0000
43.1200 833.0000 1.0000
43.1300 832.0000 1.0000
43.1400 842.0000 1.0000
43.1500 825.0000 1.0000
43.1600 878.0000 1.0000
43.1700 853.0000 1.0000
43.1800 835.0000 1.0000
43.1900 854.0000 1.0000
43.2000 874.0000 1.0000
43.2100 903.0000 1.0000
43.2200 879.0000 1.0000
43.2300 871.0000 1.0000
43.2400 844.0000 1.0000
43.2500 863.0000 1.0000
43.2600 826.0000 1.0000
43.2700 832.0000 1.0000
43.2800 854.0000 1.0000
43.2900 849.0000 1.0000
43.3000 853.0000 1.0000
43.3100 847.0000 1.0000
43.3200 857.0000 1.0000
43.3300 811.0000 1.0000
43.3400 822.0000 1.0000
43.3500 845.0000 1.0000
43.3600 786.0000 1.0000
43.3700 834.0000 1.0000
43.3800 805.0000 1.0000
43.3900 774.0000 1.0000
43.4000 833.0000 1.0000
43.4100 812.0000 1.0000
43.4200 821.0000 1.0000
43.4300 768.0000 1.0000
43.4400 780.0000 1.0000
43.4500 771.0000 1.0000
43.4600 811.0000 1.0000
43.4700 745.0000 1.0000
43.4800 777.0000 1.0000
43.4900 762.0000 1.0000
43.5000 799.0000 1.0000
43.5100 729.0000 1.0000
43.5200 765.0000 1.0000
43.5300 799.0000 1.0000
43.5400 767.0000 1.0000
43.5500 777.0000 1.0000
43.5600 779.0000 1.0000
43.5700 771.0000 1.0000
43.5800 779.0000 1.0000
43.5900 738.0000 1.0000
43.6000 800.0000 1.0000
43.6100 757.0000 1.0000
43.6200 759.0000 1.0000
43.6300 792.0000 1.0000
43.6400 784.0000 1.0000
43.6500 748.0000 1.0000
43.6600 768.0000 1.0000
43.6700 759.0000 1.0000
43.6800 799.0000 1.0000
43.6900 794.0000 1.0000
43.7000 749.0000 1.0000
43.7100 742.0000 1.0000
43.7200 757.0000 1.0000
43.7300 790.0000 1.0000
43.7400 753.0000 1.0000
43.7500 763.0000 1.0000
43.7600 730.0000 1.0000
43.7700 715.0000 1.0000
43.7800 722.0000 1.0000
43.7900 716.0000 1.0000
43.8000 754.0000 1.0000
43.8100 758.0000 1.0000
43.8200 724.0000 1.0000
43.8300 758.0000 1.0000
43.8400 747.0000 1.0000
43.8500 694.0000 1.0000
43.8600 774.0000 1.0000
43.8700 800.0000 1.0000
43.8800 729.0000 1.0000
43.8900 733.0000 1.0000
43.9000 822.0000 1.0000
43.9100 749.0000 1.0000
43.9200 745.0000 1.0000
43.9300 716.0000 1.0000
43.9400 713.0000 1.0000
43.9500 732.0000 1.0000
43.9600 752.0000 1.0000
43.9700 734.0000 1.0000
43.9800 724.0000 1.0000
43.9900 707.0000 1.0000
44.0000 774.0000 1.0000
44.0100 742.0000 1.0000
44.0200 727.0000 1.0000
44.0300 763.0000 1.0000
44.0400 703.0000 1.0000
44.0500 758.0000 1.0000
44.0600 752.0000 1.0000
44.0700 791.0000 1.0000
44.0800 739.0000 1.0000
44.0900 779.0000 1.0000
44.1000 762.0000 1.0000
44.1100 703.0000 1.0000
44.1200 731.0000 1.0000
44.1300 741.0000 1.0000
44.1400 755.0000 1.0000
44.1500 765.0000 1.0000
44.1600 755.0000 1.0000
44.1700 785.0000 1.0000
44.1800 728.0000 1.0000
44.1900 780.0000 1.0000
44.2000 753.0000 1.0000
44.2100 756.0000 1.0000
44.2200 731.0000 1.0000
44.2300 736.0000 1.0000
44.2400 728.0000 1.0000
44.2500 715.0000 1.0000
44.2600 686.0000 1.0000
44.2700 768.0000 1.0000
44.2800 769.0000 1.0000
44.2900 707.0000 1.0000
44.3000 740.0000 1.0000
44.3100 755.0000 1.0000
44.3200 790.0000 1.0000
44.3300 758.0000 1.0000
44.3400 743.0000 1.0000
44.3500 791.0000 1.0000
44.3600 763.0000 1.0000
44.3700 739.0000 1.0000
44.3800 769.0000 1.0000
44.3900 738.0000 1.0000
44.4000 737.0000 1.0000
44.4100 757.0000 1.0000
44.4200 731.0000 1.0000
44.4300 745.0000 1.0000
44.4400 707.0000 1.0000
44.4500 684.0000 1.0000
44.4600 768.0000 1.0000
44.4700 796.0000 1.0000
44.4800 725.0000 1.0000
44.4900 759.0000 1.0000
44.5000 691.0000 1.0000
44.5100 715.0000 1.0000
44.5200 743.0000 1.0000
44.5300 758.0000 1.0000
44.5400 732.0000 1.0000
44.5500 711.0000 1.0000
44.5600 754.0000 1.0000
44.5700 754.0000 1.0000
44.5800 787.0000 1.0000
44.5900 713.0000 1.0000
44.6000 744.0000 1.0000
44.6100 761.0000 1.0000
44.6200 774.0000 1.0000
44.6300 759.0000 1.0000
44.6400 745.0000 1.0000
44.6500 723.0000 1.0000
44.6600 731.0000 1.0000
44.6700 724.0000 1.0000
44.6800 736.0000 1.0000
44.6900 712.0000 1.0000
44.7000 711.0000 1.0000
44.7100 732.0000 1.0000
44.7200 756.0000 1.0000
44.7300 743.0000 1.0000
44.7400 726.0000 1.0000
44.7500 756.0000 1.0000
44.7600 702.0000 1.0000
44.7700 736.0000 1.0000
44.7800 699.0000 1.0000
44.7900 716.0000 1.0000
44.8000 723.0000 1.0000
44.8100 718.0000 1.0000
44.8200 732.0000 1.0000
44.8300 725.0000 1.0000
44.8400 738.0000 1.0000
44.8500 715.0000 1.0000
44.8600 752.0000 1.0000
44.8700 699.0000 1.0000
44.8800 715.0000 1.0000
44.8900 741.0000 1.0000
44.9000 759.0000 1.0000
44.9100 737.0000 1.0000
44.9200 740.0000 1.0000
44.9300 746.0000 1.0000
44.9400 728.0000 1.0000
44.9500 723.0000 1.0000
44.9600 745.0000 1.0000
44.9700 707.0000 1.0000
44.9800 713.0000 1.0000
44.9900 692.0000 1.0000
45.0000 735.0000 1.0000
45.0100 730.0000 1.0000
45.0200 714.0000 1.0000
45.0300 726.0000 1.0000
45.0400 712.0000 1.0000
45.0500 701.0000 1.0000
45.0600 700.0000 1.0000
45.0700 736.0000 1.0000
45.0800 785.0000 1.0000
45.0900 717.0000 1.0000
45.1000 702.0000 1.0000
45.1100 731.0000 1.0000
45.1200 727.0000 1.0000
45.1300 710.0000 1.0000
45.1400 730.0000 1.0000
45.1500 702.0000 1.0000
45.1600 721.0000 1.0000
45.1700 716.0000 1.0000
45.1800 746.0000 1.0000
45.1900 726.0000 1.0000
45.2000 730.0000 1.0000
45.2100 743.0000 1.0000
45.2200 710.0000 1.0000
45.2300 699.0000 1.0000
45.2400 720.0000 1.0000
45.2500 754.0000 1.0000
45.2600 730.0000 1.0000
45.2700 708.0000 1.0000
45.2800 737.0000 1.0000
45.2900 695.0000 1.0000
45.3000 666.0000 1.0000
45.3100 709.0000 1.0000
45.3200 685.0000 1.0000
45.3300 690.0000 1.0000
45.3400 747.0000 1.0000
45.3500 717.0000 1.0000
45.3600 717.0000 1.0000
45.3700 740.0000 1.0000
45.3800 715.0000 1.0000
45.3900 733.0000 1.0000
45.4000 750.0000 1.0000
45.4100 715.0000 1.0000
45.4200 735.0000 1.0000
45.4300 729.0000 1.0000
45.4400 669.0000 1.0000
45.4500 739.0000 1.0000
45.4600 663.0000 1.0000
45.4700 709.0000 1.0000
45.4800 686.0000 1.0000
45.4900 678.0000 1.0000
45.5000 723.0000 1.0000
45.5100 687.0000 1.0000
45.5200 716.0000 1.0000
45.5300 730.0000 1.0000
45.5400 729.0000 1.0000
45.5500 688.0000 1.0000
45.5600 727.0000 1.0000
45.5700 700.0000 1.0000
45.5800 710.0000 1.0000
45.5900 701.0000 1.0000
45.6000 709.0000 1.0000
45.6100 685.0000 1.0000
45.6200 708.0000 1.0000
45.6300 710.0000 1.0000
45.6400 699.0000 1.0000
45.6500 733.0000 1.0000
45.6600 739.0000 1.0000
45.6700 708.0000 1.0000
45.6800 696.0000 1.0000
45.6900 750.0000 1.0000
45.7000 716.0000 1.0000
45.7100 748.0000 1.0000
45.7200 735.0000 1.0000
45.7300 720.0000 1.0000
45.7400 664.0000 1.0000
45.7500 707.0000 1.0000
45.7600 733.0000 1.0000
45.7700 763.0000 1.0000
45.7800 739.0000 1.0000
45.7900 727.0000 1.0000
45.8000 680.0000 1.0000
45.8100 722.0000 1.0000
45.8200 711.0000 1.0000
45.8300 754.0000 1.0000
45.8400 693.0000 1.0000
45.8500 681.0000 1.0000
45.8600 734.0000 1.0000
45.8700 706.0000 1.0000
45.8800 696.0000 1.0000
45.8900 675.0000 1.0000
45.9000 717.0000 1.0000
45.9100 719.0000 1.0000
45.9200 723.0000 1.0000
45.9300 699.0000 1.0000
45.9400 658.0000 1.0000
45.9500 770.0000 1.0000
45.9600 720.0000 1.0000
45.9700 643.0000 1.0000
45.9800 659.0000 1.0000
45.9900 674.0000 1.0000
46.0000 690.0000 1.0000
46.0100 716.0000 1.0000
46.0200 689.0000 1.0000
46.0300 697.0000 1.0000
46.0400 702.0000 1.0000
46.0500 736.0000 1.0000
46.0600 692.0000 1.0000
46.0700 665.0000 1.0000
46.0800 698.0000 1.0000
46.0900 696.0000 1.0000
46.1000 680.0000 1.0000
46.1100 691.0000 1.0000
46.1200 689.0000 1.0000
46.1300 697.0000 1.0000
46.1400 679.0000 1.0000
46.1500 708.0000 1.0000
46.1600 693.0000 1.0000
46.1700 702.0000 1.0000
46.1800 748.0000 1.0000
46.1900 700.0000 1.0000
46.2000 707.0000 1.0000
46.2100 688.0000 1.0000
46.2200 675.0000 1.0000
46.2300 702.0000 1.0000
46.2400 705.0000 1.0000
46.2500 706.0000 1.0000
46.2600 683.0000 1.0000
46.2700 700.0000 1.0000
46.2800 733.0000 1.0000
46.2900 673.0000 1.0000
46.3000 713.0000 1.0000
46.3100 687.0000 1.0000
46.3200 709.0000 1.0000
46.3300 673.0000 1.0000
46.3400 699.0000 1.0000
46.3500 705.0000 1.0000
46.3600 677.0000 1.0000
46.3700 712.0000 1.0000
46.3800 728.0000 1.0000
46.3900 703.0000 1.0000
46.4000 738.0000 1.0000
46.4100 736.0000 1.0000
46.4200 691.0000 1.0000
46.4300 662.0000 1.0000
46.4400 658.0000 1.0000
46.4500 675.0000 1.0000
46.4600 713.0000 1.0000
46.4700 712.0000 1.0000
46.4800 689.0000 1.0000
46.4900 715.0000 1.0000
46.5000 690.0000 1.0000
46.5100 719.0000 1.0000
46.5200 682.0000 1.0000
46.5300 699.0000 1.0000
46.5400 700.0000 1.0000
46.5500 730.0000 1.0000
46.5600 684.0000 1.0000
46.5700 662.0000 1.0000
46.5800 712.0000 1.0000
46.5900 712.0000 1.0000
46.6000 638.0000 1.0000
46.6100 677.0000 1.0000
46.6200 710.0000 1.0000
46.6300 717.0000 1.0000
46.6400 724.0000 1.0000
46.6500 685.0000 1.0000
46.6600 675.0000 1.0000
46.6700 687.0000 1.0000
46.6800 759.0000 1.0000
46.6900 688.0000 1.0000
46.7000 707.0000 1.0000
46.7100 664.0000 1.0000
46.7200 705.0000 1.0000
46.7300 696.0000 1.0000
46.7400 673.0000 1.0000
46.7500 667.0000 1.0000
46.7600 712.0000 1.0000
46.7700 692.0000 1.0000
46.7800 701.0000 1.0000
46.7900 693.0000 1.0000
46.8000 691.0000 1.0000
46.8100 687.0000 1.0000
46.8200 702.0000 1.0000
46.8300 666.0000 1.0000
46.8400 684.0000 1.0000
46.8500 716.0000 1.0000
46.8600 723.0000 1.0000
46.8700 708.0000 1.0000
46.8800 694.0000 1.0000
46.8900 739.0000 1.0000
46.9000 704.0000 1.0000
46.9100 696.0000 1.0000
46.9200 697.0000 1.0000
46.9300 695.0000 1.0000
46.9400 741.0000 1.0000
46.9500 711.0000 1.0000
46.9600 718.0000 1.0000
46.9700 700.0000 1.0000
46.9800 760.0000 1.0000
46.9900 742.0000 1.0000
47.0000 720.0000 1.0000
47.0100 692.0000 1.0000
47.0200 704.0000 1.0000
47.0300 739.0000 1.0000
47.0400 738.0000 1.0000
47.0500 713.0000 1.0000
47.0600 728.0000 1.0000
47.0700 701.0000 1.0000
47.0800 739.0000 1.0000
47.0900 730.0000 1.0000
47.1000 728.0000 1.0000
47.1100 706.0000 1.0000
47.1200 753.0000 1.0000
47.1300 684.0000 1.0000
47.1400 725.0000 1.0000
47.1500 687.0000 1.0000
47.1600 723.0000 1.0000
47.1700 672.0000 1.0000
47.1800 722.0000 1.0000
47.1900 704.0000 1.0000
47.2000 704.0000 1.0000
47.2100 666.0000 1.0000
47.2200 672.0000 1.0000
47.2300 679.0000 1.0000
47.2400 727.0000 1.0000
47.2500 738.0000 1.0000
47.2600 738.0000 1.0000
47.2700 722.0000 1.0000
47.2800 674.0000 1.0000
47.2900 651.0000 1.0000
47.3000 688.0000 1.0000
47.3100 682.0000 1.0000
47.3200 694.0000 1.0000
47.3300 682.0000 1.0000
47.3400 668.0000 1.0000
47.3500 686.0000 1.0000
47.3600 689.0000 1.0000
47.3700 696.0000 1.0000
47.3800 706.0000 1.0000
47.3900 687.0000 1.0000
47.4000 702.0000 1.0000
47.4100 709.0000 1.0000
47.4200 660.0000 1.0000
47.4300 651.0000 1.0000
47.4400 712.0000 1.0000
47.4500 695.0000 1.0000
47.4600 689.0000 1.0000
47.4700 671.0000 1.0000
47.4800 676.0000 1.0000
47.4900 695.0000 1.0000
47.5000 696.0000 1.0000
47.5100 762.0000 1.0000
47.5200 703.0000 1.0000
47.5300 680.0000 1.0000
47.5400 647.0000 1.0000
47.5500 691.0000 1.0000
47.5600 652.0000 1.0000
47.5700 667.0000 1.0000
47.5800 706.0000 1.0000
47.5900 677.0000 1.0000
47.6000 665.0000 1.0000
47.6100 714.0000 1.0000
47.6200 667.0000 1.0000
47.6300 688.0000 1.0000
47.6400 699.0000 1.0000
47.6500 683.0000 1.0000
47.6600 720.0000 1.0000
47.6700 687.0000 1.0000
47.6800 717.0000 1.0000
47.6900 674.0000 1.0000
47.7000 673.0000 1.0000
47.7100 710.0000 1.0000
47.7200 678.0000 1.0000
47.7300 661.0000 1.0000
47.7400 677.0000 1.0000
47.7500 617.0000 1.0000
47.7600 658.0000 1.0000
47.7700 648.0000 1.0000
47.7800 699.0000 1.0000
47.7900 690.0000 1.0000
47.8000 688.0000 1.0000
47.8100 674.0000 1.0000
47.8200 658.0000 1.0000
47.8300 701.0000 1.0000
47.8400 657.0000 1.0000
47.8500 678.0000 1.0000
47.8600 715.0000 1.0000
47.8700 657.0000 1.0000
47.8800 703.0000 1.0000
47.8900 679.0000 1.0000
47.9000 695.0000 1.0000
47.9100 667.0000 1.0000
47.9200 637.0000 1.0000
47.9300 637.0000 1.0000
47.9400 649.0000 1.0000
47.9500 647.0000 1.0000
47.9600 682.0000 1.0000
47.9700 663.0000 1.0000
47.9800 688.0000 1.0000
47.9900 690.0000 1.0000
48.0000 667.0000 1.0000
48.0100 654.0000 1.0000
48.0200 665.0000 1.0000
48.0300 660.0000 1.0000
48.0400 681.0000 1.0000
48.0500 670.0000 1.0000
48.0600 642.0000 1.0000
48.0700 696.0000 1.0000
48.0800 675.0000 1.0000
48.0900 684.0000 1.0000
48.1000 701.0000 1.0000
48.1100 698.0000 1.0000
48.1200 682.0000 1.0000
48.1300 643.0000 1.0000
48.1400 643.0000 1.0000
48.1500 721.0000 1.0000
48.1600 705.0000 1.0000
48.1700 634.0000 1.0000
48.1800 690.0000 1.0000
48.1900 688.0000 1.0000
48.2000 631.0000 1.0000
48.2100 687.0000 1.0000
48.2200 638.0000 1.0000
48.2300 685.0000 1.0000
48.2400 703.0000 1.0000
48.2500 680.0000 1.0000
48.2600 667.0000 1.0000
48.2700 684.0000 1.0000
48.2800 677.0000 1.0000
48.2900 683.0000 1.0000
48.3000 656.0000 1.0000
48.3100 658.0000 1.0000
48.3200 695.0000 1.0000
48.3300 674.0000 1.0000
48.3400 710.0000 1.0000
48.3500 742.0000 1.0000
48.3600 722.0000 1.0000
48.3700 670.0000 1.0000
48.3800 687.0000 1.0000
48.3900 700.0000 1.0000
48.4000 683.0000 1.0000
48.4100 686.0000 1.0000
48.4200 649.0000 1.0000
48.4300 670.0000 1.0000
48.4400 685.0000 1.0000
48.4500 659.0000 1.0000
48.4600 688.0000 1.0000
48.4700 667.0000 1.0000
48.4800 608.0000 1.0000
48.4900 673.0000 1.0000
48.5000 640.0000 1.0000
48.5100 660.0000 1.0000
48.5200 674.0000 1.0000
48.5300 657.0000 1.0000
48.5400 662.0000 1.0000
48.5500 696.0000 1.0000
48.5600 669.0000 1.0000
48.5700 695.0000 1.0000
48.5800 670.0000 1.0000
48.5900 658.0000 1.0000
48.6000 629.0000 1.0000
48.6100 688.0000 1.0000
48.6200 670.0000 1.0000
48.6300 675.0000 1.0000
48.6400 645.0000 1.0000
48.6500 594.0000 1.0000
48.6600 659.0000 1.0000
48.6700 662.0000 1.0000
48.6800 605.0000 1.0000
48.6900 648.0000 1.0000
48.7000 667.0000 1.0000
48.7100 650.0000 1.0000
48.7200 661.0000 1.0000
48.7300 662.0000 1.0000
48.7400 667.0000 1.0000
48.7500 659.0000 1.0000
48.7600 662.0000 1.0000
48.7700 662.0000 1.0000
48.7800 624.0000 1.0000
48.7900 678.0000 1.0000
48.8000 659.0000 1.0000
48.8100 704.0000 1.0000
48.8200 649.0000 1.0000
48.8300 680.0000 1.0000
48.8400 685.0000 1.0000
48.8500 688.0000 1.0000
48.8600 675.0000 1.0000
48.8700 637.0000 1.0000
48.8800 650.0000 1.0000
48.8900 665.0000 1.0000
48.9000 619.0000 1.0000
48.9100 663.0000 1.0000
48.9200 667.0000 1.0000
48.9300 695.0000 1.0000
48.9400 644.0000 1.0000
48.9500 657.0000 1.0000
48.9600 650.0000 1.0000
48.9700 644.0000 1.0000
48.9800 673.0000 1.0000
48.9900 687.0000 1.0000
49.0000 671.0000 1.0000
49.0100 676.0000 1.0000
49.0200 658.0000 1.0000
49.0300 643.0000 1.0000
49.0400 669.0000 1.0000
49.0500 659.0000 1.0000
49.0600 649.0000 1.0000
49.0700 662.0000 1.0000
49.0800 701.0000 1.0000
49.0900 683.0000 1.0000
49.1000 692.0000 1.0000
49.1100 670.0000 1.0000
49.1200 678.0000 1.0000
49.1300 681.0000 1.0000
49.1400 720.0000 1.0000
49.1500 655.0000 1.0000
49.1600 658.0000 1.0000
49.1700 686.0000 1.0000
49.1800 647.0000 1.0000
49.1900 670.0000 1.0000
49.2000 667.0000 1.0000
49.2100 649.0000 1.0000
49.2200 636.0000 1.0000
49.2300 660.0000 1.0000
49.2400 691.0000 1.0000
49.2500 697.0000 1.0000
49.2600 639.0000 1.0000
49.2700 658.0000 1.0000
49.2800 616.0000 1.0000
49.2900 639.0000 1.0000
49.3000 695.0000 1.0000
49.3100 674.0000 1.0000
49.3200 662.0000 1.0000
49.3300 625.0000 1.0000
49.3400 670.0000 1.0000
49.3500 663.0000 1.0000
49.3600 687.0000 1.0000
49.3700 660.0000 1.0000
49.3800 634.0000 1.0000
49.3900 671.0000 1.0000
49.4000 694.0000 1.0000
49.4100 662.0000 1.0000
49.4200 658.0000 1.0000
49.4300 630.0000 1.0000
49.4400 699.0000 1.0000
49.4500 644.0000 1.0000
49.4600 591.0000 1.0000
49.4700 668.0000 1.0000
49.4800 677.0000 1.0000
49.4900 671.0000 1.0000
49.5000 667.0000 1.0000
49.5100 686.0000 1.0000
49.5200 671.0000 1.0000
49.5300 668.0000 1.0000
49.5400 661.0000 1.0000
49.5500 669.0000 1.0000
49.5600 680.0000 1.0000
49.5700 683.0000 1.0000
49.5800 676.0000 1.0000
49.5900 667.0000 1.0000
49.6000 634.0000 1.0000
49.6100 649.0000 1.0000
49.6200 655.0000 1.0000
49.6300 631.0000 1.0000
49.6400 644.0000 1.0000
49.6500 672.0000 1.0000
49.6600 663.0000 1.0000
49.6700 647.0000 1.0000
49.6800 674.0000 1.0000
49.6900 671.0000 1.0000
49.7000 658.0000 1.0000
49.7100 659.0000 1.0000
49.7200 641.0000 1.0000
49.7300 628.0000 1.0000
49.7400 680.0000 1.0000
49.7500 644.0000 1.0000
49.7600 617.0000 1.0000
49.7700 660.0000 1.0000
49.7800 673.0000 1.0000
49.7900 653.0000 1.0000
49.8000 652.0000 1.0000
49.8100 675.0000 1.0000
49.8200 631.0000 1.0000
49.8300 653.0000 1.0000
49.8400 642.0000 1.0000
49.8500 642.0000 1.0000
49.8600 649.0000 1.0000
49.8700 705.0000 1.0000
49.8800 639.0000 1.0000
49.8900 646.0000 1.0000
49.9000 688.0000 1.0000
49.9100 631.0000 1.0000
49.9200 608.0000 1.0000
49.9300 678.0000 1.0000
49.9400 660.0000 1.0000
49.9500 657.0000 1.0000
49.9600 615.0000 1.0000
49.9700 672.0000 1.0000
49.9800 661.0000 1.0000
49.9900 652.0000 1.0000
50.0000 654.0000 1.0000
50.0100 612.0000 1.0000
50.0200 658.0000 1.0000
50.0300 637.0000 1.0000
50.0400 646.0000 1.0000
50.0500 625.0000 1.0000
50.0600 663.0000 1.0000
50.0700 678.0000 1.0000
50.0800 647.0000 1.0000
50.0900 608.0000 1.0000
50.1000 666.0000 1.0000
50.1100 657.0000 1.0000
50.1200 683.0000 1.0000
50.1300 672.0000 1.0000
50.1400 691.0000 1.0000
50.1500 664.0000 1.0000
50.1600 675.0000 1.0000
50.1700 691.0000 1.0000
50.1800 711.0000 1.0000
50.1900 717.0000 1.0000
50.2000 655.0000 1.0000
50.2100 658.0000 1.0000
50.2200 646.0000 1.0000
50.2300 692.0000 1.0000
50.2400 661.0000 1.0000
50.2500 684.0000 1.0000
50.2600 681.0000 1.0000
50.2700 645.0000 1.0000
50.2800 647.0000 1.0000
50.2900 630.0000 1.0000
50.3000 735.0000 1.0000
50.3100 668.0000 1.0000
50.3200 654.0000 1.0000
50.3300 684.0000 1.0000
50.3400 692.0000 1.0000
50.3500 704.0000 1.0000
50.3600 665.0000 1.0000
50.3700 673.0000 1.0000
50.3800 708.0000 1.0000
50.3900 678.0000 1.0000
50.4000 652.0000 1.0000
50.4100 649.0000 1.0000
50.4200 670.0000 1.0000
50.4300 696.0000 1.0000
50.4400 676.0000 1.0000
50.4500 677.0000 1.0000
50.4600 637.0000 1.0000
50.4700 703.0000 1.0000
50.4800 686.0000 1.0000
50.4900 691.0000 1.0000
50.5000 710.0000 1.0000
50.5100 660.0000 1.0000
50.5200 674.0000 1.0000
50.5300 711.0000 1.0000
50.5400 695.0000 1.0000
50.5500 660.0000 1.0000
50.5600 705.0000 1.0000
50.5700 683.0000 1.0000
50.5800 681.0000 1.0000
50.5900 697.0000 1.0000
50.6000 680.0000 1.0000
50.6100 686.0000 1.0000
50.6200 655.0000 1.0000
50.6300 677.0000 1.0000
50.6400 686.0000 1.0000
50.6500 634.0000 1.0000
50.6600 613.0000 1.0000
50.6700 652.0000 1.0000
50.6800 690.0000 1.0000
50.6900 688.0000 1.0000
50.7000 645.0000 1.0000
50.7100 657.0000 1.0000
50.7200 673.0000 1.0000
50.7300 640.0000 1.0000
50.7400 666.0000 1.0000
50.7500 671.0000 1.0000
50.7600 697.0000 1.0000
50.7700 653.0000 1.0000
50.7800 679.0000 1.0000
50.7900 656.0000 1.0000
50.8000 689.0000 1.0000
50.8100 682.0000 1.0000
50.8200 710.0000 1.0000
50.8300 686.0000 1.0000
50.8400 683.0000 1.0000
50.8500 673.0000 1.0000
50.8600 643.0000 1.0000
50.8700 660.0000 1.0000
50.8800 658.0000 1.0000
50.8900 700.0000 1.0000
50.9000 690.0000 1.0000
50.9100 671.0000 1.0000
50.9200 685.0000 1.0000
50.9300 654.0000 1.0000
50.9400 661.0000 1.0000
50.9500 675.0000 1.0000
50.9600 681.0000 1.0000
50.9700 663.0000 1.0000
50.9800 651.0000 1.0000
50.9900 679.0000 1.0000
51.0000 643.0000 1.0000
51.0100 665.0000 1.0000
51.0200 684.0000 1.0000
51.0300 717.0000 1.0000
51.0400 678.0000 1.0000
51.0500 675.0000 1.0000
51.0600 656.0000 1.0000
51.0700 646.0000 1.0000
51.0800 663.0000 1.0000
51.0900 661.0000 1.0000
51.1000 634.0000 1.0000
51.1100 680.0000 1.0000
51.1200 666.0000 1.0000
51.1300 659.0000 1.0000
51.1400 693.0000 1.0000
51.1500 696.0000 1.0000
51.1600 638.0000 1.0000
51.1700 650.0000 1.0000
51.1800 693.0000 1.0000
51.1900 687.0000 1.0000
51.2000 684.0000 1.0000
51.2100 662.0000 1.0000
51.2200 666.0000 1.0000
51.2300 649.0000 1.0000
51.2400 670.0000 1.0000
51.2500 661.0000 1.0000
51.2600 716.0000 1.0000
51.2700 697.0000 1.0000
51.2800 678.0000 1.0000
51.2900 703.0000 1.0000
51.3000 651.0000 1.0000
51.3100 672.0000 1.0000
51.3200 686.0000 1.0000
51.3300 691.0000 1.0000
51.3400 692.0000 1.0000
51.3500 662.0000 1.0000
51.3600 663.0000 1.0000
51.3700 670.0000 1.0000
51.3800 690.0000 1.0000
51.3900 708.0000 1.0000
51.4000 650.0000 1.0000
51.4100 661.0000 1.0000
51.4200 678.0000 1.0000
51.4300 699.0000 1.0000
51.4400 715.0000 1.0000
51.4500 679.0000 1.0000
51.4600 667.0000 1.0000
51.4700 652.0000 1.0000
51.4800 670.0000 1.0000
51.4900 707.0000 1.0000
51.5000 697.0000 1.0000
51.5100 663.0000 1.0000
51.5200 685.0000 1.0000
51.5300 731.0000 1.0000
51.5400 709.0000 1.0000
51.5500 729.0000 1.0000
51.5600 701.0000 1.0000
51.5700 634.0000 1.0000
51.5800 698.0000 1.0000
51.5900 676.0000 1.0000
51.6000 700.0000 1.0000
51.6100 724.0000 1.0000
51.6200 708.0000 1.0000
51.6300 710.0000 1.0000
51.6400 707.0000 1.0000
51.6500 702.0000 1.0000
51.6600 695.0000 1.0000
51.6700 694.0000 1.0000
51.6800 695.0000 1.0000
51.6900 699.0000 1.0000
51.7000 687.0000 1.0000
51.7100 703.0000 1.0000
51.7200 734.0000 1.0000
51.7300 703.0000 1.0000
51.7400 778.0000 1.0000
51.7500 743.0000 1.0000
51.7600 733.0000 1.0000
51.7700 744.0000 1.0000
51.7800 785.0000 1.0000
51.7900 808.0000 1.0000
51.8000 795.0000 1.0000
51.8100 815.0000 1.0000
51.8200 836.0000 1.0000
51.8300 831.0000 1.0000
51.8400 816.0000 1.0000
51.8500 798.0000 1.0000
51.8600 840.0000 1.0000
51.8700 843.0000 1.0000
51.8800 836.0000 1.0000
51.8900 888.0000 1.0000
51.9000 892.0000 1.0000
51.9100 896.0000 1.0000
51.9200 963.0000 1.0000
51.9300 972.0000 1.0000
51.9400 979.0000 1.0000
51.9500 1055.0000 1.0000
51.9600 1031.0000 1.0000
51.9700 1091.0000 1.0000
51.9800 1132.0000 1.0000
51.9900 1157.0000 1.0000
52.0000 1249.0000 1.0000
52.0100 1207.0000 1.0000
52.0200 1306.0000 1.0000
52.0300 1324.0000 1.0000
52.0400 1441.0000 1.0000
52.0500 1457.0000 1.0000
52.0600 1490.0000 1.0000
52.0700 1665.0000 1.0000
52.0800 1678.0000 1.0000
52.0900 1856.0000 1.0000
52.1000 1951.0000 1.0000
52.1100 2171.0000 1.0000
52.1200 2276.0000 1.0000
52.1300 2569.0000 1.0000
52.1400 2788.0000 1.0000
52.1500 2905.0000 1.0000
52.1600 3204.0000 1.0000
52.1700 3502.0000 1.0000
52.1800 3693.0000 1.0000
52.1900 4018.0000 1.0000
52.2000 4286.0000 1.0000
52.2100 4453.0000 1.0000
52.2200 4641.0000 1.0000
52.2300 4826.0000 1.0000
52.2400 4835.0000 1.0000
52.2500 4786.0000 1.0000
52.2600 4827.0000 1.0000
52.2700 4708.0000 1.0000
52.2800 4554.0000 1.0000
52.2900 4385.0000 1.0000
52.3000 4323.0000 1.0000
52.3100 4120.0000 1.0000
52.3200 4089.0000 1.0000
52.3300 4039.0000 1.0000
52.3400 4004.0000 1.0000
52.3500 3760.0000 1.0000
52.3600 3662.0000 1.0000
52.3700 3661.0000 1.0000
52.3800 3449.0000 1.0000
52.3900 3276.0000 1.0000
52.4000 3221.0000 1.0000
52.4100 3079.0000 1.0000
52.4200 2849.0000 1.0000
52.4300 2575.0000 1.0000
52.4400 2492.0000 1.0000
52.4500 2289.0000 1.0000
52.4600 2174.0000 1.0000
52.4700 2011.0000 1.0000
52.4800 1902.0000 1.0000
52.4900 1678.0000 1.0000
52.5000 1578.0000 1.0000
52.5100 1573.0000 1.0000
52.5200 1435.0000 1.0000
52.5300 1453.0000 1.0000
52.5400 1293.0000 1.0000
52.5500 1309.0000 1.0000
52.5600 1244.0000 1.0000
52.5700 1221.0000 1.0000
52.5800 1176.0000 1.0000
52.5900 1130.0000 1.0000
52.6000 1061.0000 1.0000
52.6100 1043.0000 1.0000
52.6200 1001.0000 1.0000
52.6300 984.0000 1.0000
52.6400 942.0000 1.0000
52.6500 977.0000 1.0000
52.6600 952.0000 1.0000
52.6700 943.0000 1.0000
52.6800 889.0000 1.0000
52.6900 859.0000 1.0000
52.7000 885.0000 1.0000
52.7100 864.0000 1.0000
52.7200 860.0000 1.0000
52.7300 857.0000 1.0000
52.7400 873.0000 1.0000
52.7500 838.0000 1.0000
52.7600 784.0000 1.0000
52.7700 784.0000 1.0000
52.7800 837.0000 1.0000
52.7900 806.0000 1.0000
52.8000 798.0000 1.0000
52.8100 727.0000 1.0000
52.8200 776.0000 1.0000
52.8300 766.0000 1.0000
52.8400 746.0000 1.0000
52.8500 759.0000 1.0000
52.8600 725.0000 1.0000
52.8700 773.0000 1.0000
52.8800 742.0000 1.0000
52.8900 736.0000 1.0000
52.9000 731.0000 1.0000
52.9100 757.0000 1.0000
52.9200 723.0000 1.0000
52.9300 734.0000 1.0000
52.9400 729.0000 1.0000
52.9500 713.0000 1.0000
52.9600 693.0000 1.0000
52.9700 678.0000 1.0000
52.9800 699.0000 1.0000
52.9900 732.0000 1.0000
53.0000 672.0000 1.0000
53.0100 735.0000 1.0000
53.0200 664.0000 1.0000
53.0300 726.0000 1.0000
53.0400 687.0000 1.0000
53.0500 668.0000 1.0000
53.0600 653.0000 1.0000
53.0700 711.0000 1.0000
53.0800 674.0000 1.0000
53.0900 702.0000 1.0000
53.1000 677.0000 1.0000
53.1100 709.0000 1.0000
53.1200 711.0000 1.0000
53.1300 681.0000 1.0000
53.1400 676.0000 1.0000
53.1500 681.0000 1.0000
53.1600 670.0000 1.0000
53.1700 722.0000 1.0000
53.1800 673.0000 1.0000
53.1900 697.0000 1.0000
53.2000 732.0000 1.0000
53.2100 716.0000 1.0000
53.2200 687.0000 1.0000
53.2300 661.0000 1.0000
53.2400 662.0000 1.0000
53.2500 693.0000 1.0000
53.2600 673.0000 1.0000
53.2700 650.0000 1.0000
53.2800 674.0000 1.0000
53.2900 678.0000 1.0000
53.3000 682.0000 1.0000
53.3100 636.0000 1.0000
53.3200 689.0000 1.0000
53.3300 688.0000 1.0000
53.3400 691.0000 1.0000
53.3500 681.0000 1.0000
53.3600 643.0000 1.0000
53.3700 647.0000 1.0000
53.3800 668.0000 1.0000
53.3900 700.0000 1.0000
53.4000 703.0000 1.0000
53.4100 669.0000 1.0000
53.4200 663.0000 1.0000
53.4300 635.0000 1.0000
53.4400 701.0000 1.0000
53.4500 670.0000 1.0000
53.4600 642.0000 1.0000
53.4700 665.0000 1.0000
53.4800 657.0000 1.0000
53.4900 683.0000 1.0000
53.5000 686.0000 1.0000
53.5100 645.0000 1.0000
53.5200 665.0000 1.0000
53.5300 649.0000 1.0000
53.5400 706.0000 1.0000
53.5500 657.0000 1.0000
53.5600 632.0000 1.0000
53.5700 676.0000 1.0000
53.5800 639.0000 1.0000
53.5900 644.0000 1.0000
53.6000 657.0000 1.0000
53.6100 660.0000 1.0000
53.6200 685.0000 1.0000
53.6300 649.0000 1.0000
53.6400 619.0000 1.0000
53.6500 634.0000 1.0000
53.6600 651.0000 1.0000
53.6700 681.0000 1.0000
53.6800 641.0000 1.0000
53.6900 626.0000 1.0000
53.7000 663.0000 1.0000
53.7100 659.0000 1.0000
53.7200 643.0000 1.0000
53.7300 650.0000 1.0000
53.7400 661.0000 1.0000
53.7500 627.0000 1.0000
53.7600 652.0000 1.0000
53.7700 649.0000 1.0000
53.7800 701.0000 1.0000
53.7900 684.0000 1.0000
53.8000 636.0000 1.0000
53.8100 668.0000 1.0000
53.8200 660.0000 1.0000
53.8300 698.0000 1.0000
53.8400 662.0000 1.0000
53.8500 665.0000 1.0000
53.8600 658.0000 1.0000
53.8700 634.0000 1.0000
53.8800 669.0000 1.0000
53.8900 705.0000 1.0000
53.9000 636.0000 1.0000
53.9100 666.0000 1.0000
53.9200 623.0000 1.0000
53.9300 648.0000 1.0000
53.9400 643.0000 1.0000
53.9500 616.0000 1.0000
53.9600 657.0000 1.0000
53.9700 658.0000 1.0000
53.9800 638.0000 1.0000
53.9900 698.0000 1.0000
54.0000 627.0000 1.0000
54.0100 635.0000 1.0000
54.0200 645.0000 1.0000
54.0300 655.0000 1.0000
54.0400 671.0000 1.0000
54.0500 647.0000 1.0000
54.0600 665.0000 1.0000
54.0700 619.0000 1.0000
54.0800 656.0000 1.0000
54.0900 666.0000 1.0000
54.1000 656.0000 1.0000
54.1100 625.0000 1.0000
54.1200 690.0000 1.0000
54.1300 661.0000 1.0000
54.1400 663.0000 1.0000
54.1500 644.0000 1.0000
54.1600 669.0000 1.0000
54.1700 689.0000 1.0000
54.1800 677.0000 1.0000
54.1900 652.0000 1.0000
54.2000 682.0000 1.0000
54.2100 681.0000 1.0000
54.2200 645.0000 1.0000
54.2300 633.0000 1.0000
54.2400 645.0000 1.0000
54.2500 649.0000 1.0000
54.2600 665.0000 1.0000
54.2700 682.0000 1.0000
54.2800 684.0000 1.0000
54.2900 700.0000 1.0000
54.3000 656.0000 1.0000
54.3100 645.0000 1.0000
54.3200 638.0000 1.0000
54.3300 655.0000 1.0000
54.3400 662.0000 1.0000
54.3500 675.0000 1.0000
54.3600 605.0000 1.0000
54.3700 645.0000 1.0000
54.3800 672.0000 1.0000
54.3900 690.0000 1.0000
54.4000 685.0000 1.0000
54.4100 642.0000 1.0000
54.4200 685.0000 1.0000
54.4300 684.0000 1.0000
54.4400 658.0000 1.0000
54.4500 672.0000 1.0000
54.4600 704.0000 1.0000
54.4700 660.0000 1.0000
54.4800 646.0000 1.0000
54.4900 690.0000 1.0000
54.5000 688.0000 1.0000
54.5100 699.0000 1.0000
54.5200 668.0000 1.0000
54.5300 673.0000 1.0000
54.5400 654.0000 1.0000
54.5500 684.0000 1.0000
54.5600 693.0000 1.0000
54.5700 645.0000 1.0000
54.5800 636.0000 1.0000
54.5900 650.0000 1.0000
54.6000 682.0000 1.0000
54.6100 738.0000 1.0000
54.6200 700.0000 1.0000
54.6300 708.0000 1.0000
54.6400 675.0000 1.0000
54.6500 698.0000 1.0000
54.6600 686.0000 1.0000
54.6700 663.0000 1.0000
54.6800 668.0000 1.0000
54.6900 696.0000 1.0000
54.7000 692.0000 1.0000
54.7100 675.0000 1.0000
54.7200 674.0000 1.0000
54.7300 712.0000 1.0000
54.7400 692.0000 1.0000
54.7500 734.0000 1.0000
54.7600 709.0000 1.0000
54.7700 697.0000 1.0000
54.7800 675.0000 1.0000
54.7900 697.0000 1.0000
54.8000 720.0000 1.0000
54.8100 673.0000 1.0000
54.8200 697.0000 1.0000
54.8300 722.0000 1.0000
54.8400 725.0000 1.0000
54.8500 723.0000 1.0000
54.8600 754.0000 1.0000
54.8700 756.0000 1.0000
54.8800 712.0000 1.0000
54.8900 716.0000 1.0000
54.9000 690.0000 1.0000
54.9100 710.0000 1.0000
54.9200 736.0000 1.0000
54.9300 687.0000 1.0000
54.9400 701.0000 1.0000
54.9500 744.0000 1.0000
54.9600 764.0000 1.0000
54.9700 739.0000 1.0000
54.9800 697.0000 1.0000
54.9900 710.0000 1.0000
55.0000 740.0000 1.0000
55.0100 754.0000 1.0000
55.0200 752.0000 1.0000
55.0300 740.0000 1.0000
55.0400 757.0000 1.0000
55.0500 761.0000 1.0000
55.0600 779.0000 1.0000
55.0700 788.0000 1.0000
55.0800 824.0000 1.0000
55.0900 825.0000 1.0000
55.1000 824.0000 1.0000
55.1100 872.0000 1.0000
55.1200 858.0000 1.0000
55.1300 922.0000 1.0000
55.1400 885.0000 1.0000
55.1500 859.0000 1.0000
55.1600 957.0000 1.0000
55.1700 967.0000 1.0000
55.1800 959.0000 1.0000
55.1900 990.0000 1.0000
55.2000 1036.0000 1.0000
55.2100 1015.0000 1.0000
55.2200 988.0000 1.0000
55.2300 1001.0000 1.0000
55.2400 1109.0000 1.0000
55.2500 1019.0000 1.0000
55.2600 1063.0000 1.0000
55.2700 1007.0000 1.0000
55.2800 1066.0000 1.0000
55.2900 1011.0000 1.0000
55.3000 1075.0000 1.0000
55.3100 1046.0000 1.0000
55.3200 1015.0000 1.0000
55.3300 1038.0000 1.0000
55.3400 1024.0000 1.0000
55.3500 1008.0000 1.0000
55.3600 991.0000 1.0000
55.3700 963.0000 1.0000
55.3800 956.0000 1.0000
55.3900 981.0000 1.0000
55.4000 970.0000 1.0000
55.4100 930.0000 1.0000
55.4200 922.0000 1.0000
55.4300 927.0000 1.0000
55.4400 875.0000 1.0000
55.4500 869.0000 1.0000
55.4600 878.0000 1.0000
55.4700 885.0000 1.0000
55.4800 834.0000 1.0000
55.4900 836.0000 1.0000
55.5000 780.0000 1.0000
55.5100 808.0000 1.0000
55.5200 751.0000 1.0000
55.5300 795.0000 1.0000
55.5400 788.0000 1.0000
55.5500 726.0000 1.0000
55.5600 744.0000 1.0000
55.5700 770.0000 1.0000
55.5800 758.0000 1.0000
55.5900 709.0000 1.0000
55.6000 732.0000 1.0000
55.6100 700.0000 1.0000
55.6200 700.0000 1.0000
55.6300 734.0000 1.0000
55.6400 697.0000 1.0000
55.6500 698.0000 1.0000
55.6600 663.0000 1.0000
55.6700 675.0000 1.0000
55.6800 686.0000 1.0000
55.6900 685.0000 1.0000
55.7000 678.0000 1.0000
55.7100 646.0000 1.0000
55.7200 635.0000 1.0000
55.7300 715.0000 1.0000
55.7400 714.0000 1.0000
55.7500 727.0000 1.0000
55.7600 681.0000 1.0000
55.7700 685.0000 1.0000
55.7800 659.0000 1.0000
55.7900 712.0000 1.0000
55.8000 693.0000 1.0000
55.8100 671.0000 1.0000
55.8200 641.0000 1.0000
55.8300 664.0000 1.0000
55.8400 673.0000 1.0000
55.8500 688.0000 1.0000
55.8600 645.0000 1.0000
55.8700 622.0000 1.0000
55.8800 636.0000 1.0000
55.8900 645.0000 1.0000
55.9000 652.0000 1.0000
55.9100 623.0000 1.0000
55.9200 666.0000 1.0000
55.9300 685.0000 1.0000
55.9400 703.0000 1.0000
55.9500 639.0000 1.0000
55.9600 648.0000 1.0000
55.9700 628.0000 1.0000
55.9800 639.0000 1.0000
55.9900 632.0000 1.0000
56.0000 664.0000 1.0000
56.0100 653.0000 1.0000
56.0200 664.0000 1.0000
56.0300 645.0000 1.0000
56.0400 662.0000 1.0000
56.0500 635.0000 1.0000
56.0600 656.0000 1.0000
56.0700 630.0000 1.0000
56.0800 660.0000 1.0000
56.0900 652.0000 1.0000
56.1000 649.0000 1.0000
56.1100 647.0000 1.0000
56.1200 643.0000 1.0000
56.1300 637.0000 1.0000
56.1400 653.0000 1.0000
56.1500 641.0000 1.0000
56.1600 621.0000 1.0000
56.1700 662.0000 1.0000
56.1800 603.0000 1.0000
56.1900 601.0000 1.0000
56.2000 655.0000 1.0000
56.2100 648.0000 1.0000
56.2200 625.0000 1.0000
56.2300 678.0000 1.0000
56.2400 636.0000 1.0000
56.2500 620.0000 1.0000
56.2600 626.0000 1.0000
56.2700 605.0000 1.0000
56.2800 654.0000 1.0000
56.2900 634.0000 1.0000
56.3000 623.0000 1.0000
56.3100 633.0000 1.0000
56.3200 617.0000 1.0000
56.3300 627.0000 1.0000
56.3400 648.0000 1.0000
56.3500 615.0000 1.0000
56.3600 637.0000 1.0000
56.3700 638.0000 1.0000
56.3800 640.0000 1.0000
56.3900 669.0000 1.0000
56.4000 643.0000 1.0000
56.4100 610.0000 1.0000
56.4200 643.0000 1.0000
56.4300 649.0000 1.0000
56.4400 651.0000 1.0000
56.4500 637.0000 1.0000
56.4600 656.0000 1.0000
56.4700 654.0000 1.0000
56.4800 646.0000 1.0000
56.4900 644.0000 1.0000
56.5000 659.0000 1.0000
56.5100 624.0000 1.0000
56.5200 600.0000 1.0000
56.5300 628.0000 1.0000
56.5400 643.0000 1.0000
56.5500 623.0000 1.0000
56.5600 635.0000 1.0000
56.5700 617.0000 1.0000
56.5800 624.0000 1.0000
56.5900 668.0000 1.0000
56.6000 631.0000 1.0000
56.6100 668.0000 1.0000
56.6200 648.0000 1.0000
56.6300 654.0000 1.0000
56.6400 654.0000 1.0000
56.6500 617.0000 1.0000
56.6600 598.0000 1.0000
56.6700 612.0000 1.0000
56.6800 587.0000 1.0000
56.6900 608.0000 1.0000
56.7000 656.0000 1.0000
56.7100 628.0000 1.0000
56.7200 642.0000 1.0000
56.7300 640.0000 1.0000
56.7400 630.0000 1.0000
56.7500 606.0000 1.0000
56.7600 627.0000 1.0000
56.7700 675.0000 1.0000
56.7800 644.0000 1.0000
56.7900 612.0000 1.0000
56.8000 632.0000 1.0000
56.8100 624.0000 1.0000
56.8200 616.0000 1.0000
56.8300 661.0000 1.0000
56.8400 616.0000 1.0000
56.8500 637.0000 1.0000
56.8600 619.0000 1.0000
56.8700 632.0000 1.0000
56.8800 642.0000 1.0000
56.8900 600.0000 1.0000
56.9000 635.0000 1.0000
56.9100 638.0000 1.0000
56.9200 616.0000 1.0000
56.9300 601.0000 1.0000
56.9400 662.0000 1.0000
56.9500 614.0000 1.0000
56.9600 636.0000 1.0000
56.9700 694.0000 1.0000
56.9800 635.0000 1.0000
56.9900 669.0000 1.0000
57.0000 642.0000 1.0000
57.0100 669.0000 1.0000
57.0200 661.0000 1.0000
57.0300 679.0000 1.0000
57.0400 615.0000 1.0000
57.0500 643.0000 1.0000
57.0600 633.0000 1.0000
57.0700 639.0000 1.0000
57.0800 642.0000 1.0000
57.0900 616.0000 1.0000
57.1000 628.0000 1.0000
57.1100 631.0000 1.0000
57.1200 648.0000 1.0000
57.1300 634.0000 1.0000
57.1400 675.0000 1.0000
57.1500 674.0000 1.0000
57.1600 641.0000 1.0000
57.1700 630.0000 1.0000
57.1800 656.0000 1.0000
57.1900 671.0000 1.0000
57.2000 623.0000 1.0000
57.2100 649.0000 1.0000
57.2200 582.0000 1.0000
57.2300 657.0000 1.0000
57.2400 656.0000 1.0000
57.2500 653.0000 1.0000
57.2600 625.0000 1.0000
57.2700 616.0000 1.0000
57.2800 611.0000 1.0000
57.2900 605.0000 1.0000
57.3000 647.0000 1.0000
57.3100 617.0000 1.0000
57.3200 633.0000 1.0000
57.3300 635.0000 1.0000
57.3400 629.0000 1.0000
57.3500 629.0000 1.0000
57.3600 632.0000 1.0000
57.3700 653.0000 1.0000
57.3800 665.0000 1.0000
57.3900 651.0000 1.0000
57.4000 626.0000 1.0000
57.4100 621.0000 1.0000
57.4200 600.0000 1.0000
57.4300 637.0000 1.0000
57.4400 606.0000 1.0000
57.4500 623.0000 1.0000
57.4600 682.0000 1.0000
57.4700 630.0000 1.0000
57.4800 611.0000 1.0000
57.4900 622.0000 1.0000
57.5000 647.0000 1.0000
57.5100 600.0000 1.0000
57.5200 642.0000 1.0000
57.5300 631.0000 1.0000
57.5400 646.0000 1.0000
57.5500 602.0000 1.0000
57.5600 585.0000 1.0000
57.5700 590.0000 1.0000
57.5800 606.0000 1.0000
57.5900 652.0000 1.0000
57.6000 639.0000 1.0000
57.6100 680.0000 1.0000
57.6200 606.0000 1.0000
57.6300 618.0000 1.0000
57.6400 601.0000 1.0000
57.6500 633.0000 1.0000
57.6600 616.0000 1.0000
57.6700 601.0000 1.0000
57.6800 628.0000 1.0000
57.6900 625.0000 1.0000
57.7000 665.0000 1.0000
57.7100 620.0000 1.0000
57.7200 608.0000 1.0000
57.7300 604.0000 1.0000
57.7400 633.0000 1.0000
57.7500 636.0000 1.0000
57.7600 655.0000 1.0000
57.7700 621.0000 1.0000
57.7800 592.0000 1.0000
57.7900 638.0000 1.0000
57.8000 642.0000 1.0000
57.8100 620.0000 1.0000
57.8200 604.0000 1.0000
57.8300 626.0000 1.0000
57.8400 633.0000 1.0000
57.8500 628.0000 1.0000
57.8600 639.0000 1.0000
57.8700 634.0000 1.0000
57.8800 635.0000 1.0000
57.8900 636.0000 1.0000
57.9000 630.0000 1.0000
57.9100 645.0000 1.0000
57.9200 587.0000 1.0000
57.9300 608.0000 1.0000
57.9400 656.0000 1.0000
57.9500 658.0000 1.0000
57.9600 634.0000 1.0000
57.9700 647.0000 1.0000
57.9800 631.0000 1.0000
57.9900 621.0000 1.0000
58.0000 623.0000 1.0000
58.0100 585.0000 1.0000
58.0200 624.0000 1.0000
58.0300 635.0000 1.0000
58.0400 621.0000 1.0000
58.0500 674.0000 1.0000
58.0600 645.0000 1.0000
58.0700 652.0000 1.0000
58.0800 604.0000 1.0000
58.0900 626.0000 1.0000
58.1000 637.0000 1.0000
58.1100 599.0000 1.0000
58.1200 614.0000 1.0000
58.1300 660.0000 1.0000
58.1400 642.0000 1.0000
58.1500 602.0000 1.0000
58.1600 629.0000 1.0000
58.1700 645.0000 1.0000
58.1800 643.0000 1.0000
58.1900 630.0000 1.0000
58.2000 654.0000 1.0000
58.2100 625.0000 1.0000
58.2200 624.0000 1.0000
58.2300 639.0000 1.0000
58.2400 664.0000 1.0000
58.2500 622.0000 1.0000
58.2600 591.0000 1.0000
58.2700 636.0000 1.0000
58.2800 670.0000 1.0000
58.2900 623.0000 1.0000
58.3000 610.0000 1.0000
58.3100 635.0000 1.0000
58.3200 666.0000 1.0000
58.3300 625.0000 1.0000
58.3400 628.0000 1.0000
58.3500 663.0000 1.0000
58.3600 643.0000 1.0000
58.3700 628.0000 1.0000
58.3800 647.0000 1.0000
58.3900 602.0000 1.0000
58.4000 621.0000 1.0000
58.4100 624.0000 1.0000
58.4200 631.0000 1.0000
58.4300 634.0000 1.0000
58.4400 672.0000 1.0000
58.4500 658.0000 1.0000
58.4600 644.0000 1.0000
58.4700 605.0000 1.0000
58.4800 605.0000 1.0000
58.4900 642.0000 1.0000
58.5000 644.0000 1.0000
58.5100 628.0000 1.0000
58.5200 616.0000 1.0000
58.5300 621.0000 1.0000
58.5400 646.0000 1.0000
58.5500 620.0000 1.0000
58.5600 650.0000 1.0000
58.5700 623.0000 1.0000
58.5800 616.0000 1.0000
58.5900 655.0000 1.0000
58.6000 643.0000 1.0000
58.6100 609.0000 1.0000
58.6200 627.0000 1.0000
58.6300 689.0000 1.0000
58.6400 640.0000 1.0000
58.6500 597.0000 1.0000
58.6600 642.0000 1.0000
58.6700 625.0000 1.0000
58.6800 608.0000 1.0000
58.6900 639.0000 1.0000
58.7000 613.0000 1.0000
58.7100 631.0000 1.0000
58.7200 630.0000 1.0000
58.7300 629.0000 1.0000
58.7400 675.0000 1.0000
58.7500 610.0000 1.0000
58.7600 613.0000 1.0000
58.7700 667.0000 1.0000
58.7800 598.0000 1.0000
58.7900 617.0000 1.0000
58.8000 612.0000 1.0000
58.8100 665.0000 1.0000
58.8200 636.0000 1.0000
58.8300 594.0000 1.0000
58.8400 634.0000 1.0000
58.8500 631.0000 1.0000
58.8600 610.0000 1.0000
58.8700 634.0000 1.0000
58.8800 634.0000 1.0000
58.8900 594.0000 1.0000
58.9000 614.0000 1.0000
58.9100 610.0000 1.0000
58.9200 609.0000 1.0000
58.9300 639.0000 1.0000
58.9400 623.0000 1.0000
58.9500 631.0000 1.0000
58.9600 652.0000 1.0000
58.9700 627.0000 1.0000
58.9800 627.0000 1.0000
58.9900 633.0000 1.0000
59.0000 592.0000 1.0000
59.0100 593.0000 1.0000
59.0200 628.0000 1.0000
59.0300 601.0000 1.0000
59.0400 641.0000 1.0000
59.0500 621.0000 1.0000
59.0600 631.0000 1.0000
59.0700 630.0000 1.0000
59.0800 618.0000 1.0000
59.0900 594.0000 1.0000
59.1000 626.0000 1.0000
59.1100 631.0000 1.0000
59.1200 660.0000 1.0000
59.1300 644.0000 1.0000
59.1400 635.0000 1.0000
59.1500 605.0000 1.0000
59.1600 648.0000 1.0000
59.1700 639.0000 1.0000
59.1800 634.0000 1.0000
59.1900 638.0000 1.0000
59.2000 647.0000 1.0000
59.2100 628.0000 1.0000
59.2200 641.0000 1.0000
59.2300 642.0000 1.0000
59.2400 642.0000 1.0000
59.2500 622.0000 1.0000
59.2600 615.0000 1.0000
59.2700 608.0000 1.0000
59.2800 628.0000 1.0000
59.2900 680.0000 1.0000
59.3000 640.0000 1.0000
59.3100 623.0000 1.0000
59.3200 643.0000 1.0000
59.3300 678.0000 1.0000
59.3400 604.0000 1.0000
59.3500 647.0000 1.0000
59.3600 638.0000 1.0000
59.3700 633.0000 1.0000
59.3800 590.0000 1.0000
59.3900 604.0000 1.0000
59.4000 672.0000 1.0000
59.4100 614.0000 1.0000
59.4200 625.0000 1.0000
59.4300 669.0000 1.0000
59.4400 614.0000 1.0000
59.4500 631.0000 1.0000
59.4600 621.0000 1.0000
59.4700 610.0000 1.0000
59.4800 585.0000 1.0000
59.4900 660.0000 1.0000
59.5000 596.0000 1.0000
59.5100 609.0000 1.0000
59.5200 606.0000 1.0000
59.5300 621.0000 1.0000
59.5400 633.0000 1.0000
59.5500 614.0000 1.0000
59.5600 651.0000 1.0000
59.5700 633.0000 1.0000
59.5800 659.0000 1.0000
59.5900 611.0000 1.0000
59.6000 642.0000 1.0000
59.6100 628.0000 1.0000
59.6200 640.0000 1.0000
59.6300 659.0000 1.0000
59.6400 648.0000 1.0000
59.6500 619.0000 1.0000
59.6600 586.0000 1.0000
59.6700 592.0000 1.0000
59.6800 623.0000 1.0000
59.6900 632.0000 1.0000
59.7000 636.0000 1.0000
59.7100 623.0000 1.0000
59.7200 641.0000 1.0000
59.7300 628.0000 1.0000
59.7400 641.0000 1.0000
59.7500 632.0000 1.0000
59.7600 635.0000 1.0000
59.7700 596.0000 1.0000
59.7800 647.0000 1.0000
59.7900 624.0000 1.0000
59.8000 607.0000 1.0000
59.8100 633.0000 1.0000
59.8200 636.0000 1.0000
59.8300 664.0000 1.0000
59.8400 629.0000 1.0000
59.8500 597.0000 1.0000
59.8600 637.0000 1.0000
59.8700 604.0000 1.0000
59.8800 605.0000 1.0000
59.8900 615.0000 1.0000
59.9000 633.0000 1.0000
59.9100 633.0000 1.0000
59.9200 611.0000 1.0000
59.9300 603.0000 1.0000
59.9400 602.0000 1.0000
59.9500 628.0000 1.0000
59.9600 592.0000 1.0000
59.9700 565.0000 1.0000
59.9800 628.0000 1.0000
59.9900 608.0000 1.0000
60.0000 618.0000 1.0000
60.0100 611.0000 1.0000
60.0200 581.0000 1.0000
60.0300 661.0000 1.0000
60.0400 616.0000 1.0000
60.0500 629.0000 1.0000
60.0600 581.0000 1.0000
60.0700 623.0000 1.0000
60.0800 647.0000 1.0000
60.0900 640.0000 1.0000
60.1000 636.0000 1.0000
60.1100 611.0000 1.0000
60.1200 641.0000 1.0000
60.1300 665.0000 1.0000
60.1400 665.0000 1.0000
60.1500 651.0000 1.0000
60.1600 654.0000 1.0000
60.1700 641.0000 1.0000
60.1800 625.0000 1.0000
60.1900 609.0000 1.0000
60.2000 642.0000 1.0000
60.2100 639.0000 1.0000
60.2200 603.0000 1.0000
60.2300 621.0000 1.0000
60.2400 635.0000 1.0000
60.2500 628.0000 1.0000
60.2600 631.0000 1.0000
60.2700 621.0000 1.0000
60.2800 591.0000 1.0000
60.2900 599.0000 1.0000
60.3000 606.0000 1.0000
60.3100 631.0000 1.0000
60.3200 594.0000 1.0000
60.3300 611.0000 1.0000
60.3400 588.0000 1.0000
60.3500 616.0000 1.0000
60.3600 632.0000 1.0000
60.3700 606.0000 1.0000
60.3800 599.0000 1.0000
60.3900 579.0000 1.0000
60.4000 652.0000 1.0000
60.4100 600.0000 1.0000
60.4200 643.0000 1.0000
60.4300 642.0000 1.0000
60.4400 645.0000 1.0000
60.4500 649.0000 1.0000
60.4600 594.0000 1.0000
60.4700 625.0000 1.0000
60.4800 623.0000 1.0000
60.4900 608.0000 1.0000
60.5000 644.0000 1.0000
60.5100 654.0000 1.0000
60.5200 622.0000 1.0000
60.5300 613.0000 1.0000
60.5400 625.0000 1.0000
60.5500 628.0000 1.0000
60.5600 657.0000 1.0000
60.5700 624.0000 1.0000
60.5800 652.0000 1.0000
60.5900 640.0000 1.0000
60.6000 637.0000 1.0000
60.6100 628.0000 1.0000
60.6200 664.0000 1.0000
60.6300 610.0000 1.0000
60.6400 608.0000 1.0000
60.6500 651.0000 1.0000
60.6600 618.0000 1.0000
60.6700 596.0000 1.0000
60.6800 639.0000 1.0000
60.6900 617.0000 1.0000
60.7000 627.0000 1.0000
60.7100 608.0000 1.0000
60.7200 609.0000 1.0000
60.7300 617.0000 1.0000
60.7400 610.0000 1.0000
60.7500 597.0000 1.0000
60.7600 598.0000 1.0000
60.7700 607.0000 1.0000
60.7800 638.0000 1.0000
60.7900 605.0000 1.0000
60.8000 601.0000 1.0000
60.8100 655.0000 1.0000
60.8200 649.0000 1.0000
60.8300 637.0000 1.0000
60.8400 619.0000 1.0000
60.8500 612.0000 1.0000
60.8600 621.0000 1.0000
60.8700 613.0000 1.0000
60.8800 644.0000 1.0000
60.8900 625.0000 1.0000
60.9000 624.0000 1.0000
60.9100 607.0000 1.0000
60.9200 579.0000 1.0000
60.9300 652.0000 1.0000
60.9400 658.0000 1.0000
60.9500 599.0000 1.0000
60.9600 641.0000 1.0000
60.9700 616.0000 1.0000
60.9800 620.0000 1.0000
60.9900 651.0000 1.0000
61.0000 663.0000 1.0000
61.0100 663.0000 1.0000
61.0200 650.0000 1.0000
61.0300 636.0000 1.0000
61.0400 634.0000 1.0000
61.0500 631.0000 1.0000
61.0600 619.0000 1.0000
61.0700 638.0000 1.0000
61.0800 621.0000 1.0000
61.0900 626.0000 1.0000
61.1000 589.0000 1.0000
61.1100 660.0000 1.0000
61.1200 572.0000 1.0000
61.1300 612.0000 1.0000
61.1400 623.0000 1.0000
61.1500 653.0000 1.0000
61.1600 629.0000 1.0000
61.1700 677.0000 1.0000
61.1800 644.0000 1.0000
61.1900 663.0000 1.0000
61.2000 614.0000 1.0000
61.2100 617.0000 1.0000
61.2200 631.0000 1.0000
61.2300 644.0000 1.0000
61.2400 627.0000 1.0000
61.2500 645.0000 1.0000
61.2600 630.0000 1.0000
61.2700 584.0000 1.0000
61.2800 620.0000 1.0000
61.2900 631.0000 1.0000
61.3000 640.0000 1.0000
61.3100 628.0000 1.0000
61.3200 598.0000 1.0000
61.3300 600.0000 1.0000
61.3400 641.0000 1.0000
61.3500 643.0000 1.0000
61.3600 602.0000 1.0000
61.3700 629.0000 1.0000
61.3800 676.0000 1.0000
61.3900 612.0000 1.0000
61.4000 625.0000 1.0000
61.4100 635.0000 1.0000
61.4200 637.0000 1.0000
61.4300 637.0000 1.0000
61.4400 587.0000 1.0000
61.4500 677.0000 1.0000
61.4600 663.0000 1.0000
61.4700 687.0000 1.0000
61.4800 654.0000 1.0000
61.4900 672.0000 1.0000
61.5000 646.0000 1.0000
61.5100 662.0000 1.0000
61.5200 662.0000 1.0000
61.5300 697.0000 1.0000
61.5400 611.0000 1.0000
61.5500 629.0000 1.0000
61.5600 595.0000 1.0000
61.5700 636.0000 1.0000
61.5800 665.0000 1.0000
61.5900 643.0000 1.0000
61.6000 635.0000 1.0000
61.6100 678.0000 1.0000
61.6200 679.0000 1.0000
61.6300 675.0000 1.0000
61.6400 672.0000 1.0000
61.6500 651.0000 1.0000
61.6600 636.0000 1.0000
61.6700 680.0000 1.0000
61.6800 655.0000 1.0000
61.6900 666.0000 1.0000
61.7000 662.0000 1.0000
61.7100 691.0000 1.0000
61.7200 685.0000 1.0000
61.7300 715.0000 1.0000
61.7400 682.0000 1.0000
61.7500 706.0000 1.0000
61.7600 690.0000 1.0000
61.7700 640.0000 1.0000
61.7800 642.0000 1.0000
61.7900 698.0000 1.0000
61.8000 741.0000 1.0000
61.8100 720.0000 1.0000
61.8200 727.0000 1.0000
61.8300 671.0000 1.0000
61.8400 708.0000 1.0000
61.8500 699.0000 1.0000
61.8600 723.0000 1.0000
61.8700 716.0000 1.0000
61.8800 743.0000 1.0000
61.8900 769.0000 1.0000
61.9000 773.0000 1.0000
61.9100 767.0000 1.0000
61.9200 780.0000 1.0000
61.9300 782.0000 1.0000
61.9400 796.0000 1.0000
61.9500 772.0000 1.0000
61.9600 856.0000 1.0000
61.9700 894.0000 1.0000
61.9800 891.0000 1.0000
61.9900 908.0000 1.0000
62.0000 911.0000 1.0000
62.0100 933.0000 1.0000
62.0200 945.0000 1.0000
62.0300 970.0000 1.0000
62.0400 994.0000 1.0000
62.0500 954.0000 1.0000
62.0600 1037.0000 1.0000
62.0700 1026.0000 1.0000
62.0800 1103.0000 1.0000
62.0900 1160.0000 1.0000
62.1000 1183.0000 1.0000
62.1100 1180.0000 1.0000
62.1200 1161.0000 1.0000
62.1300 1222.0000 1.0000
62.1400 1277.0000 1.0000
62.1500 1292.0000 1.0000
62.1600 1371.0000 1.0000
62.1700 1437.0000 1.0000
62.1800 1461.0000 1.0000
62.1900 1524.0000 1.0000
62.2000 1510.0000 1.0000
62.2100 1613.0000 1.0000
62.2200 1617.0000 1.0000
62.2300 1577.0000 1.0000
62.2400 1566.0000 1.0000
62.2500 1653.0000 1.0000
62.2600 1633.0000 1.0000
62.2700 1596.0000 1.0000
62.2800 1627.0000 1.0000
62.2900 1657.0000 1.0000
62.3000 1556.0000 1.0000
62.3100 1614.0000 1.0000
62.3200 1554.0000 1.0000
62.3300 1545.0000 1.0000
62.3400 1581.0000 1.0000
62.3500 1563.0000 1.0000
62.3600 1513.0000 1.0000
62.3700 1566.0000 1.0000
62.3800 1520.0000 1.0000
62.3900 1520.0000 1.0000
62.4000 1508.0000 1.0000
62.4100 1453.0000 1.0000
62.4200 1434.0000 1.0000
62.4300 1326.0000 1.0000
62.4400 1404.0000 1.0000
62.4500 1382.0000 1.0000
62.4600 1244.0000 1.0000
62.4700 1299.0000 1.0000
62.4800 1258.0000 1.0000
62.4900 1250.0000 1.0000
62.5000 1241.0000 1.0000
62.5100 1174.0000 1.0000
62.5200 1130.0000 1.0000
62.5300 1106.0000 1.0000
62.5400 1121.0000 1.0000
62.5500 1067.0000 1.0000
62.5600 1098.0000 1.0000
62.5700 1076.0000 1.0000
62.5800 1032.0000 1.0000
62.5900 958.0000 1.0000
62.6000 963.0000 1.0000
62.6100 928.0000 1.0000
62.6200 896.0000 1.0000
62.6300 885.0000 1.0000
62.6400 957.0000 1.0000
62.6500 850.0000 1.0000
62.6600 906.0000 1.0000
62.6700 907.0000 1.0000
62.6800 860.0000 1.0000
62.6900 805.0000 1.0000
62.7000 816.0000 1.0000
62.7100 793.0000 1.0000
62.7200 813.0000 1.0000
62.7300 836.0000 1.0000
62.7400 786.0000 1.0000
62.7500 782.0000 1.0000
62.7600 813.0000 1.0000
62.7700 773.0000 1.0000
62.7800 757.0000 1.0000
62.7900 710.0000 1.0000
62.8000 732.0000 1.0000
62.8100 763.0000 1.0000
62.8200 789.0000 1.0000
62.8300 765.0000 1.0000
62.8400 760.0000 1.0000
62.8500 729.0000 1.0000
62.8600 727.0000 1.0000
62.8700 649.0000 1.0000
62.8800 681.0000 1.0000
62.8900 702.0000 1.0000
62.9000 702.0000 1.0000
62.9100 702.0000 1.0000
62.9200 716.0000 1.0000
62.9300 721.0000 1.0000
62.9400 723.0000 1.0000
62.9500 716.0000 1.0000
62.9600 718.0000 1.0000
62.9700 718.0000 1.0000
62.9800 680.0000 1.0000
62.9900 705.0000 1.0000
63.0000 727.0000 1.0000
63.0100 684.0000 1.0000
63.0200 684.0000 1.0000
63.0300 686.0000 1.0000
63.0400 696.0000 1.0000
63.0500 704.0000 1.0000
63.0600 699.0000 1.0000
63.0700 707.0000 1.0000
63.0800 683.0000 1.0000
63.0900 676.0000 1.0000
63.1000 709.0000 1.0000
63.1100 650.0000 1.0000
63.1200 638.0000 1.0000
63.1300 679.0000 1.0000
63.1400 728.0000 1.0000
63.1500 685.0000 1.0000
63.1600 660.0000 1.0000
63.1700 637.0000 1.0000
63.1800 694.0000 1.0000
63.1900 635.0000 1.0000
63.2000 624.0000 1.0000
63.2100 709.0000 1.0000
63.2200 707.0000 1.0000
63.2300 716.0000 1.0000
63.2400 684.0000 1.0000
63.2500 680.0000 1.0000
63.2600 697.0000 1.0000
63.2700 661.0000 1.0000
63.2800 704.0000 1.0000
63.2900 674.0000 1.0000
63.3000 638.0000 1.0000
63.3100 648.0000 1.0000
63.3200 700.0000 1.0000
63.3300 664.0000 1.0000
63.3400 678.0000 1.0000
63.3500 697.0000 1.0000
63.3600 689.0000 1.0000
63.3700 644.0000 1.0000
63.3800 686.0000 1.0000
63.3900 642.0000 1.0000
63.4000 629.0000 1.0000
63.4100 670.0000 1.0000
63.4200 654.0000 1.0000
63.4300 670.0000 1.0000
63.4400 666.0000 1.0000
63.4500 642.0000 1.0000
63.4600 640.0000 1.0000
63.4700 650.0000 1.0000
63.4800 644.0000 1.0000
63.4900 654.0000 1.0000
63.5000 658.0000 1.0000
63.5100 658.0000 1.0000
63.5200 649.0000 1.0000
63.5300 645.0000 1.0000
63.5400 659.0000 1.0000
63.5500 640.0000 1.0000
63.5600 646.0000 1.0000
63.5700 625.0000 1.0000
63.5800 657.0000 1.0000
63.5900 625.0000 1.0000
63.6000 639.0000 1.0000
63.6100 693.0000 1.0000
63.6200 647.0000 1.0000
63.6300 605.0000 1.0000
63.6400 665.0000 1.0000
63.6500 672.0000 1.0000
63.6600 640.0000 1.0000
63.6700 665.0000 1.0000
63.6800 656.0000 1.0000
63.6900 621.0000 1.0000
63.7000 632.0000 1.0000
63.7100 663.0000 1.0000
63.7200 615.0000 1.0000
63.7300 646.0000 1.0000
63.7400 605.0000 1.0000
63.7500 629.0000 1.0000
63.7600 637.0000 1.0000
63.7700 621.0000 1.0000
63.7800 621.0000 1.0000
63.7900 646.0000 1.0000
63.8000 625.0000 1.0000
63.8100 637.0000 1.0000
63.8200 632.0000 1.0000
63.8300 642.0000 1.0000
63.8400 639.0000 1.0000
63.8500 587.0000 1.0000
63.8600 645.0000 1.0000
63.8700 630.0000 1.0000
63.8800 666.0000 1.0000
63.8900 625.0000 1.0000
63.9000 603.0000 1.0000
63.9100 616.0000 1.0000
63.9200 670.0000 1.0000
63.9300 613.0000 1.0000
63.9400 642.0000 1.0000
63.9500 645.0000 1.0000
63.9600 644.0000 1.0000
63.9700 636.0000 1.0000
63.9800 627.0000 1.0000
63.9900 632.0000 1.0000
64.0000 653.0000 1.0000
64.0100 608.0000 1.0000
64.0200 613.0000 1.0000
64.0300 634.0000 1.0000
64.0400 664.0000 1.0000
64.0500 632.0000 1.0000
64.0600 632.0000 1.0000
64.0700 664.0000 1.0000
64.0800 651.0000 1.0000
64.0900 628.0000 1.0000
64.1000 624.0000 1.0000
64.1100 648.0000 1.0000
64.1200 576.0000 1.0000
64.1300 609.0000 1.0000
64.1400 643.0000 1.0000
64.1500 658.0000 1.0000
64.1600 629.0000 1.0000
64.1700 636.0000 1.0000
64.1800 646.0000 1.0000
64.1900 649.0000 1.0000
64.2000 666.0000 1.0000
64.2100 687.0000 1.0000
64.2200 638.0000 1.0000
64.2300 704.0000 1.0000
64.2400 627.0000 1.0000
64.2500 634.0000 1.0000
64.2600 641.0000 1.0000
64.2700 608.0000 1.0000
64.2800 624.0000 1.0000
64.2900 679.0000 1.0000
64.3000 620.0000 1.0000
64.3100 683.0000 1.0000
64.3200 674.0000 1.0000
64.3300 639.0000 1.0000
64.3400 654.0000 1.0000
64.3500 663.0000 1.0000
64.3600 632.0000 1.0000
64.3700 642.0000 1.0000
64.3800 609.0000 1.0000
64.3900 674.0000 1.0000
64.4000 656.0000 1.0000
64.4100 656.0000 1.0000
64.4200 646.0000 1.0000
64.4300 660.0000 1.0000
64.4400 673.0000 1.0000
64.4500 671.0000 1.0000
64.4600 660.0000 1.0000
64.4700 678.0000 1.0000
64.4800 678.0000 1.0000
64.4900 689.0000 1.0000
64.5000 670.0000 1.0000
64.5100 710.0000 1.0000
64.5200 648.0000 1.0000
64.5300 670.0000 1.0000
64.5400 687.0000 1.0000
64.5500 698.0000 1.0000
64.5600 713.0000 1.0000
64.5700 736.0000 1.0000
64.5800 715.0000 1.0000
64.5900 718.0000 1.0000
64.6000 724.0000 1.0000
64.6100 687.0000 1.0000
64.6200 680.0000 1.0000
64.6300 681.0000 1.0000
64.6400 707.0000 1.0000
64.6500 728.0000 1.0000
64.6600 732.0000 1.0000
64.6700 743.0000 1.0000
64.6800 721.0000 1.0000
64.6900 688.0000 1.0000
64.7000 709.0000 1.0000
64.7100 730.0000 1.0000
64.7200 668.0000 1.0000
64.7300 686.0000 1.0000
64.7400 755.0000 1.0000
64.7500 699.0000 1.0000
64.7600 738.0000 1.0000
64.7700 729.0000 1.0000
64.7800 727.0000 1.0000
64.7900 691.0000 1.0000
64.8000 767.0000 1.0000
64.8100 723.0000 1.0000
64.8200 749.0000 1.0000
64.8300 719.0000 1.0000
64.8400 681.0000 1.0000
64.8500 695.0000 1.0000
64.8600 735.0000 1.0000
64.8700 701.0000 1.0000
64.8800 690.0000 1.0000
64.8900 745.0000 1.0000
64.9000 740.0000 1.0000
64.9100 710.0000 1.0000
64.9200 729.0000 1.0000
64.9300 683.0000 1.0000
64.9400 689.0000 1.0000
64.9500 709.0000 1.0000
64.9600 692.0000 1.0000
64.9700 660.0000 1.0000
64.9800 713.0000 1.0000
64.9900 715.0000 1.0000
65.0000 708.0000 1.0000
65.0100 723.0000 1.0000
65.0200 660.0000 1.0000
65.0300 682.0000 1.0000
65.0400 682.0000 1.0000
65.0500 697.0000 1.0000
65.0600 648.0000 1.0000
65.0700 683.0000 1.0000
65.0800 699.0000 1.0000
65.0900 666.0000 1.0000
65.1000 698.0000 1.0000
65.1100 684.0000 1.0000
65.1200 692.0000 1.0000
65.1300 713.0000 1.0000
65.1400 661.0000 1.0000
65.1500 664.0000 1.0000
65.1600 661.0000 1.0000
65.1700 708.0000 1.0000
65.1800 677.0000 1.0000
65.1900 698.0000 1.0000
65.2000 688.0000 1.0000
65.2100 666.0000 1.0000
65.2200 642.0000 1.0000
65.2300 670.0000 1.0000
65.2400 669.0000 1.0000
65.2500 664.0000 1.0000
65.2600 679.0000 1.0000
65.2700 676.0000 1.0000
65.2800 704.0000 1.0000
65.2900 666.0000 1.0000
65.3000 662.0000 1.0000
65.3100 627.0000 1.0000
65.3200 679.0000 1.0000
65.3300 696.0000 1.0000
65.3400 680.0000 1.0000
65.3500 708.0000 1.0000
65.3600 656.0000 1.0000
65.3700 693.0000 1.0000
65.3800 679.0000 1.0000
65.3900 644.0000 1.0000
65.4000 690.0000 1.0000
65.4100 678.0000 1.0000
65.4200 662.0000 1.0000
65.4300 675.0000 1.0000
65.4400 646.0000 1.0000
65.4500 704.0000 1.0000
65.4600 645.0000 1.0000
65.4700 664.0000 1.0000
65.4800 676.0000 1.0000
65.4900 682.0000 1.0000
65.5000 697.0000 1.0000
65.5100 670.0000 1.0000
65.5200 673.0000 1.0000
65.5300 669.0000 1.0000
65.5400 637.0000 1.0000
65.5500 719.0000 1.0000
65.5600 701.0000 1.0000
65.5700 683.0000 1.0000
65.5800 663.0000 1.0000
65.5900 665.0000 1.0000
65.6000 662.0000 1.0000
65.6100 730.0000 1.0000
65.6200 664.0000 1.0000
65.6300 720.0000 1.0000
65.6400 684.0000 1.0000
65.6500 688.0000 1.0000
65.6600 726.0000 1.0000
65.6700 677.0000 1.0000
65.6800 697.0000 1.0000
65.6900 711.0000 1.0000
65.7000 702.0000 1.0000
65.7100 657.0000 1.0000
65.7200 731.0000 1.0000
65.7300 772.0000 1.0000
65.7400 723.0000 1.0000
65.7500 704.0000 1.0000
65.7600 758.0000 1.0000
65.7700 738.0000 1.0000
65.7800 739.0000 1.0000
65.7900 776.0000 1.0000
65.8000 748.0000 1.0000
65.8100 733.0000 1.0000
65.8200 757.0000 1.0000
65.8300 768.0000 1.0000
65.8400 795.0000 1.0000
65.8500 807.0000 1.0000
65.8600 813.0000 1.0000
65.8700 857.0000 1.0000
65.8800 834.0000 1.0000
65.8900 829.0000 1.0000
65.9000 846.0000 1.0000
65.9100 898.0000 1.0000
65.9200 889.0000 1.0000
65.9300 931.0000 1.0000
65.9400 968.0000 1.0000
65.9500 945.0000 1.0000
65.9600 1015.0000 1.0000
65.9700 1016.0000 1.0000
65.9800 1020.0000 1.0000
65.9900 1057.0000 1.0000
66.0000 1113.0000 1.0000
66.0100 1108.0000 1.0000
66.0200 1225.0000 1.0000
66.0300 1266.0000 1.0000
66.0400 1247.0000 1.0000
66.0500 1350.0000 1.0000
66.0600 1372.0000 1.0000
66.0700 1486.0000 1.0000
66.0800 1544.0000 1.0000
66.0900 1619.0000 1.0000
66.1000 1698.0000 1.0000
66.1100 1799.0000 1.0000
66.1200 1920.0000 1.0000
66.1300 2077.0000 1.0000
66.1400 2148.0000 1.0000
66.1500 2307.0000 1.0000
66.1600 2317.0000 1.0000
66.1700 2413.0000 1.0000
66.1800 2498.0000 1.0000
66.1900 2531.0000 1.0000
66.2000 2547.0000 1.0000
66.2100 2656.0000 1.0000
66.2200 2672.0000 1.0000
66.2300 2617.0000 1.0000
66.2400 2604.0000 1.0000
66.2500 2526.0000 1.0000
66.2600 2534.0000 1.0000
66.2700 2528.0000 1.0000
66.2800 2505.0000 1.0000
66.2900 2388.0000 1.0000
66.3000 2377.0000 1.0000
66.3100 2246.0000 1.0000
66.3200 2285.0000 1.0000
66.3300 2259.0000 1.0000
66.3400 2272.0000 1.0000
66.3500 2220.0000 1.0000
66.3600 2257.0000 1.0000
66.3700 2123.0000 1.0000
66.3800 2175.0000 1.0000
66.3900 2181.0000 1.0000
66.4000 2048.0000 1.0000
66.4100 2051.0000 1.0000
66.4200 1977.0000 1.0000
66.4300 1863.0000 1.0000
66.4400 1837.0000 1.0000
66.4500 1791.0000 1.0000
66.4600 1691.0000 1.0000
66.4700 1621.0000 1.0000
66.4800 1538.0000 1.0000
66.4900 1505.0000 1.0000
66.5000 1459.0000 1.0000
66.5100 1425.0000 1.0000
66.5200 1410.0000 1.0000
66.5300 1303.0000 1.0000
66.5400 1282.0000 1.0000
66.5500 1204.0000 1.0000
66.5600 1116.0000 1.0000
66.5700 1089.0000 1.0000
66.5800 1055.0000 1.0000
66.5900 1031.0000 1.0000
66.6000 1044.0000 1.0000
66.6100 982.0000 1.0000
66.6200 975.0000 1.0000
66.6300 986.0000 1.0000
66.6400 959.0000 1.0000
66.6500 908.0000 1.0000
66.6600 904.0000 1.0000
66.6700 886.0000 1.0000
66.6800 862.0000 1.0000
66.6900 837.0000 1.0000
66.7000 817.0000 1.0000
66.7100 817.0000 1.0000
66.7200 773.0000 1.0000
66.7300 783.0000 1.0000
66.7400 824.0000 1.0000
66.7500 800.0000 1.0000
66.7600 757.0000 1.0000
66.7700 719.0000 1.0000
66.7800 792.0000 1.0000
66.7900 730.0000 1.0000
66.8000 717.0000 1.0000
66.8100 728.0000 1.0000
66.8200 712.0000 1.0000
66.8300 703.0000 1.0000
66.8400 692.0000 1.0000
66.8500 753.0000 1.0000
66.8600 719.0000 1.0000
66.8700 709.0000 1.0000
66.8800 656.0000 1.0000
66.8900 675.0000 1.0000
66.9000 701.0000 1.0000
66.9100 658.0000 1.0000
66.9200 714.0000 1.0000
66.9300 684.0000 1.0000
66.9400 675.0000 1.0000
66.9500 694.0000 1.0000
66.9600 660.0000 1.0000
66.9700 630.0000 1.0000
66.9800 678.0000 1.0000
66.9900 631.0000 1.0000
67.0000 626.0000 1.0000
67.0100 624.0000 1.0000
67.0200 643.0000 1.0000
67.0300 658.0000 1.0000
67.0400 639.0000 1.0000
67.0500 650.0000 1.0000
67.0600 678.0000 1.0000
67.0700 610.0000 1.0000
67.0800 623.0000 1.0000
67.0900 665.0000 1.0000
67.1000 636.0000 1.0000
67.1100 596.0000 1.0000
67.1200 607.0000 1.0000
67.1300 604.0000 1.0000
67.1400 617.0000 1.0000
67.1500 638.0000 1.0000
67.1600 620.0000 1.0000
67.1700 657.0000 1.0000
67.1800 589.0000 1.0000
67.1900 627.0000 1.0000
67.2000 650.0000 1.0000
67.2100 605.0000 1.0000
67.2200 635.0000 1.0000
67.2300 665.0000 1.0000
67.2400 642.0000 1.0000
67.2500 593.0000 1.0000
67.2600 638.0000 1.0000
67.2700 642.0000 1.0000
67.2800 642.0000 1.0000
67.2900 631.0000 1.0000
67.3000 640.0000 1.0000
67.3100 601.0000 1.0000
67.3200 634.0000 1.0000
67.3300 678.0000 1.0000
67.3400 649.0000 1.0000
67.3500 579.0000 1.0000
67.3600 603.0000 1.0000
67.3700 554.0000 1.0000
67.3800 555.0000 1.0000
67.3900 610.0000 1.0000
67.4000 631.0000 1.0000
67.4100 577.0000 1.0000
67.4200 591.0000 1.0000
67.4300 609.0000 1.0000
67.4400 582.0000 1.0000
67.4500 601.0000 1.0000
67.4600 601.0000 1.0000
67.4700 569.0000 1.0000
67.4800 624.0000 1.0000
67.4900 578.0000 1.0000
67.5000 580.0000 1.0000
67.5100 609.0000 1.0000
67.5200 547.0000 1.0000
67.5300 592.0000 1.0000
67.5400 598.0000 1.0000
67.5500 595.0000 1.0000
67.5600 591.0000 1.0000
67.5700 581.0000 1.0000
67.5800 566.0000 1.0000
67.5900 580.0000 1.0000
67.6000 633.0000 1.0000
67.6100 600.0000 1.0000
67.6200 638.0000 1.0000
67.6300 606.0000 1.0000
67.6400 588.0000 1.0000
67.6500 585.0000 1.0000
67.6600 619.0000 1.0000
67.6700 609.0000 1.0000
67.6800 621.0000 1.0000
67.6900 568.0000 1.0000
67.7000 617.0000 1.0000
67.7100 609.0000 1.0000
67.7200 571.0000 1.0000
67.7300 602.0000 1.0000
67.7400 612.0000 1.0000
67.7500 615.0000 1.0000
67.7600 588.0000 1.0000
67.7700 595.0000 1.0000
67.7800 583.0000 1.0000
67.7900 563.0000 1.0000
67.8000 570.0000 1.0000
67.8100 560.0000 1.0000
67.8200 577.0000 1.0000
67.8300 577.0000 1.0000
67.8400 568.0000 1.0000
67.8500 584.0000 1.0000
67.8600 585.0000 1.0000
67.8700 547.0000 1.0000
67.8800 568.0000 1.0000
67.8900 640.0000 1.0000
67.9000 576.0000 1.0000
67.9100 587.0000 1.0000
67.9200 583.0000 1.0000
67.9300 582.0000 1.0000
67.9400 577.0000 1.0000
67.9500 593.0000 1.0000
67.9600 570.0000 1.0000
67.9700 560.0000 1.0000
67.9800 607.0000 1.0000
67.9900 580.0000 1.0000
68.0000 588.0000 1.0000
68.0100 595.0000 1.0000
68.0200 578.0000 1.0000
68.0300 560.0000 1.0000
68.0400 593.0000 1.0000
68.0500 594.0000 1.0000
68.0600 584.0000 1.0000
68.0700 563.0000 1.0000
68.0800 619.0000 1.0000
68.0900 636.0000 1.0000
68.1000 607.0000 1.0000
68.1100 543.0000 1.0000
68.1200 587.0000 1.0000
68.1300 593.0000 1.0000
68.1400 575.0000 1.0000
68.1500 604.0000 1.0000
68.1600 555.0000 1.0000
68.1700 557.0000 1.0000
68.1800 583.0000 1.0000
68.1900 576.0000 1.0000
68.2000 596.0000 1.0000
68.2100 588.0000 1.0000
68.2200 597.0000 1.0000
68.2300 596.0000 1.0000
68.2400 606.0000 1.0000
68.2500 567.0000 1.0000
68.2600 564.0000 1.0000
68.2700 585.0000 1.0000
68.2800 579.0000 1.0000
68.2900 562.0000 1.0000
68.3000 573.0000 1.0000
68.3100 569.0000 1.0000
68.3200 554.0000 1.0000
68.3300 521.0000 1.0000
68.3400 562.0000 1.0000
68.3500 549.0000 1.0000
68.3600 592.0000 1.0000
68.3700 585.0000 1.0000
68.3800 583.0000 1.0000
68.3900 572.0000 1.0000
68.4000 623.0000 1.0000
68.4100 575.0000 1.0000
68.4200 568.0000 1.0000
68.4300 586.0000 1.0000
68.4400 579.0000 1.0000
68.4500 561.0000 1.0000
68.4600 545.0000 1.0000
68.4700 547.0000 1.0000
68.4800 549.0000 1.0000
68.4900 550.0000 1.0000
68.5000 578.0000 1.0000
68.5100 579.0000 1.0000
68.5200 590.0000 1.0000
68.5300 610.0000 1.0000
68.5400 583.0000 1.0000
68.5500 596.0000 1.0000
68.5600 577.0000 1.0000
68.5700 576.0000 1.0000
68.5800 573.0000 1.0000
68.5900 573.0000 1.0000
68.6000 624.0000 1.0000
68.6100 556.0000 1.0000
68.6200 577.0000 1.0000
68.6300 602.0000 1.0000
68.6400 546.0000 1.0000
68.6500 591.0000 1.0000
68.6600 568.0000 1.0000
68.6700 566.0000 1.0000
68.6800 557.0000 1.0000
68.6900 549.0000 1.0000
68.7000 565.0000 1.0000
68.7100 558.0000 1.0000
68.7200 544.0000 1.0000
68.7300 576.0000 1.0000
68.7400 582.0000 1.0000
68.7500 563.0000 1.0000
68.7600 558.0000 1.0000
68.7700 589.0000 1.0000
68.7800 602.0000 1.0000
68.7900 579.0000 1.0000
68.8000 562.0000 1.0000
68.8100 553.0000 1.0000
68.8200 564.0000 1.0000
68.8300 555.0000 1.0000
68.8400 556.0000 1.0000
68.8500 559.0000 1.0000
68.8600 571.0000 1.0000
68.8700 545.0000 1.0000
68.8800 556.0000 1.0000
68.8900 565.0000 1.0000
68.9000 576.0000 1.0000
68.9100 565.0000 1.0000
68.9200 560.0000 1.0000
68.9300 551.0000 1.0000
68.9400 555.0000 1.0000
68.9500 588.0000 1.0000
68.9600 560.0000 1.0000
68.9700 581.0000 1.0000
68.9800 586.0000 1.0000
68.9900 548.0000 1.0000
69.0000 563.0000 1.0000
69.0100 565.0000 1.0000
69.0200 579.0000 1.0000
69.0300 529.0000 1.0000
69.0400 571.0000 1.0000
69.0500 559.0000 1.0000
69.0600 545.0000 1.0000
69.0700 574.0000 1.0000
69.0800 561.0000 1.0000
69.0900 567.0000 1.0000
69.1000 557.0000 1.0000
69.1100 553.0000 1.0000
69.1200 536.0000 1.0000
69.1300 526.0000 1.0000
69.1400 564.0000 1.0000
69.1500 559.0000 1.0000
69.1600 576.0000 1.0000
69.1700 528.0000 1.0000
69.1800 552.0000 1.0000
69.1900 594.0000 1.0000
69.2000 612.0000 1.0000
69.2100 589.0000 1.0000
69.2200 574.0000 1.0000
69.2300 552.0000 1.0000
69.2400 563.0000 1.0000
69.2500 587.0000 1.0000
69.2600 577.0000 1.0000
69.2700 552.0000 1.0000
69.2800 574.0000 1.0000
69.2900 563.0000 1.0000
69.3000 586.0000 1.0000
69.3100 557.0000 1.0000
69.3200 551.0000 1.0000
69.3300 555.0000 1.0000
69.3400 503.0000 1.0000
69.3500 548.0000 1.0000
69.3600 555.0000 1.0000
69.3700 524.0000 1.0000
69.3800 558.0000 1.0000
69.3900 556.0000 1.0000
69.4000 543.0000 1.0000
69.4100 569.0000 1.0000
69.4200 563.0000 1.0000
69.4300 544.0000 1.0000
69.4400 589.0000 1.0000
69.4500 558.0000 1.0000
69.4600 593.0000 1.0000
69.4700 556.0000 1.0000
69.4800 610.0000 1.0000
69.4900 581.0000 1.0000
69.5000 551.0000 1.0000
69.5100 551.0000 1.0000
69.5200 599.0000 1.0000
69.5300 566.0000 1.0000
69.5400 567.0000 1.0000
69.5500 595.0000 1.0000
69.5600 558.0000 1.0000
69.5700 541.0000 1.0000
69.5800 584.0000 1.0000
69.5900 583.0000 1.0000
69.6000 566.0000 1.0000
69.6100 574.0000 1.0000
69.6200 588.0000 1.0000
69.6300 580.0000 1.0000
69.6400 548.0000 1.0000
69.6500 550.0000 1.0000
69.6600 530.0000 1.0000
69.6700 555.0000 1.0000
69.6800 536.0000 1.0000
69.6900 559.0000 1.0000
69.7000 557.0000 1.0000
69.7100 532.0000 1.0000
69.7200 522.0000 1.0000
69.7300 523.0000 1.0000
69.7400 563.0000 1.0000
69.7500 581.0000 1.0000
69.7600 581.0000 1.0000
69.7700 551.0000 1.0000
69.7800 531.0000 1.0000
69.7900 585.0000 1.0000
69.8000 572.0000 1.0000
69.8100 574.0000 1.0000
69.8200 546.0000 1.0000
69.8300 536.0000 1.0000
69.8400 545.0000 1.0000
69.8500 548.0000 1.0000
69.8600 568.0000 1.0000
69.8700 570.0000 1.0000
69.8800 549.0000 1.0000
69.8900 514.0000 1.0000
69.9000 530.0000 1.0000
69.9100 539.0000 1.0000
69.9200 581.0000 1.0000
69.9300 569.0000 1.0000
69.9400 580.0000 1.0000
69.9500 585.0000 1.0000
69.9600 560.0000 1.0000
69.9700 540.0000 1.0000
69.9800 589.0000 1.0000
69.9900 582.0000 1.0000
70.0000 574.0000 1.0000
*RAS_INT_END
*RAS_TEMPERATURE_START
*RAS_TEMPERATURE_END
*RAS_DATA_END
