*RAS_DATA_START
*RAS_HEADER_START
*DISP_FMT_X "%.2f"
*DISP_FMT_Y "%.0f"
*DISP_FULLSCALE "13104.0000000000"
*DISP_LINE_COLOR "255.0000000000"
*DISP_LINE_STYLE "0.0000000000"
*DISP_LINE_WIDTH "0.2500000000"
*DISP_NOTE "測定データ-7"
*DISP_OFFSET_Y "0.0000000000"
*DISP_PEAKSEARCH_UNIT_Y "cps"
*DISP_RANGE_BOTTOM "0.0000000000"
*DISP_RANGE_LEFT "20.0000000000"
*DISP_RANGE_LOGCUTOFF "0.0100000000"
*DISP_RANGE_RIGHT "70.0000000000"
*DISP_RANGE_TOP "13104.0000000000"
*DISP_SCALE_MODE_Y "0.0000000000"
*DISP_TAB_NAME "2θ/θ"
*DISP_TITLE_Y "強度"
*DISP_UNIT_Y "cps"
*DISP_WINDOW_NAME "MSG_MACROENGINE"
*FILE_COMMENT " "
*FILE_MD5 ""
*FILE_MEMO " "
*FILE_OPERATOR "Administrator"
*FILE_SAMPLE " "
*FILE_TYPE "RAS_RAW"
*FILE_USERGROUP "システムマネージャ"
*FILE_VERSION "1.0000000000"
*HW_ATTACHMENT_ID "ATT0025"
*HW_ATTACHMENT_NAME "標準|Standard"
*HW_COUNTER_ID-0 "CUT0025"
*HW_COUNTER_ID-1 "CUT0020"
*HW_COUNTER_ID-2 "CUT0020"
*HW_COUNTER_ID-3 "CSL0021"
*HW_COUNTER_ID-4 "CMC0021"
*HW_COUNTER_NAME-0 "D/teX Ultra|D/teX Ultra"
*HW_COUNTER_NAME-1 "None|None"
*HW_COUNTER_NAME-2 "None|None"
*HW_COUNTER_NAME-3 "BBM|BBM"
*HW_COUNTER_NAME-4 "検出器モノクロメータ|Detector monochromator"
*HW_COUNTER_SELECT_NAME "D/teX Ultra|D/teX Ultra"
*HW_GONIOMETER_ID "GON0023"
*HW_GONIOMETER_NAME "SmartLab|SmartLab"
*HW_GONIOMETER_RADIUS-0 "90.0"
*HW_GONIOMETER_RADIUS-1 "114.0"
*HW_GONIOMETER_RADIUS-2 "190.0"
*HW_GONIOMETER_RADIUS-3 "300.0"
*HW_GONIOMETER_RADIUS-4 "187.0"
*HW_GONIOMETER_RADIUS-5 "300.0"
*HW_GONIOMETER_RADIUS-6 "113.0"
*HW_GONIOMETER_RADIUS-7 "331.0"
*HW_I_OPT_ID-0 "CBO0021"
*HW_I_OPT_ID-1 "ICR0023"
*HW_I_OPT_ID-2 "ISL0021"
*HW_I_OPT_ID-3 "ISO0021"
*HW_I_OPT_ID-4 "IAD0021"
*HW_I_OPT_ID-5 "IPR0001"
*HW_I_OPT_NAME-0 "CBOユニット|CBO unit"
*HW_I_OPT_NAME-1 "標準入射光学ユニット|Standard incident optical unit"
*HW_I_OPT_NAME-2 "標準入射スリットボックス|Standard incident slit box"
*HW_I_OPT_NAME-3 "入射平行スリット|Incident parallel slit"
*HW_I_OPT_NAME-4 "長手制限スリット|Length limiting slit"
*HW_I_OPT_NAME-5 "None|None"
*HW_R_ATTENUATER_AUTOMODE "0"
*HW_R_OPT_ID-0 "RSS0021"
*HW_R_OPT_ID-1 "RCR0023"
*HW_R_OPT_ID-2 "RSO0021"
*HW_R_OPT_ID-3 "RRS0021"
*HW_R_OPT_ID-4 "ATN0021"
*HW_R_OPT_ID-5 "RFL0021"
*HW_R_OPT_ID-6 "RAD0021"
*HW_R_OPT_NAME-0 "標準受光スリットボックス1|Standard receiving slit box # 1"
*HW_R_OPT_NAME-1 "標準受光光学ユニット1|Standard receiving unit # 1"
*HW_R_OPT_NAME-2 "標準受光光学ユニット2|Standard receiving optical unit # 2"
*HW_R_OPT_NAME-3 "標準受光スリットボックス2|Standard receiving slit box # 2"
*HW_R_OPT_NAME-4 "標準アッテネータ|Standard Attenuator"
*HW_R_OPT_NAME-5 "Cu Kβ|Cu K-beta"
*HW_R_OPT_NAME-6 "調整用受光スリット|Alignment receiving slit"
*HW_SAMPLE_HOLDER_ID "SMP0023"
*HW_SAMPLE_HOLDER_NAME "標準Zステージ|Standard Z stage"
*HW_XG_CURRENT_MAX "50"
*HW_XG_CURRENT_MIN "2"
*HW_XG_CURRENT_RESOLUTION "1"
*HW_XG_CURRENT_UNIT "mA"
*HW_XG_FOCUS "1mm x 10mm"
*HW_XG_FOCUS_TYPE "Normal"
*HW_XG_ID ""
*HW_XG_NAME "3kW 封入管(ID:1200)|3kW Sealed tube(ID:1200)"
*HW_XG_TARGET_ATOMIC_NUMBER "29.0000000000"
*HW_XG_TARGET_NAME "Cu"
*HW_XG_TYPE "Hermetic"
*HW_XG_VOLTAGE_MAX "60"
*HW_XG_VOLTAGE_MIN "20"
*HW_XG_VOLTAGE_RESOLUTION "1"
*HW_XG_VOLTAGE_UNIT "kV"
*HW_XG_WATT_MAX "1.500"
*HW_XG_WATT_UNIT "kW"
*HW_XG_WAVE_LENGTH_ALPHA1 "1.540593"
*HW_XG_WAVE_LENGTH_ALPHA2 "1.544414"
*HW_XG_WAVE_LENGTH_BETA "1.392250"
*MEAS_COND_AXIS_NAME-0 "2θ/θ"
*MEAS_COND_AXIS_NAME-1 "2θ"
*MEAS_COND_AXIS_NAME-2 "ω"
*MEAS_COND_AXIS_NAME-3 "Z"
*MEAS_COND_AXIS_NAME-4 "2θ/ω"
*MEAS_COND_AXIS_NAME-5 "θs"
*MEAS_COND_AXIS_NAME-6 "θd"
*MEAS_COND_AXIS_NAME-7 "Ts"
*MEAS_COND_AXIS_NAME-8 "CBO選択スリット"
*MEAS_COND_AXIS_NAME-9 "M"
*MEAS_COND_AXIS_NAME-10 "入射平行スリット"
*MEAS_COND_AXIS_NAME-11 "入射スリット"
*MEAS_COND_AXIS_NAME-12 ""
*MEAS_COND_AXIS_NAME-13 "Zs"
*MEAS_COND_AXIS_NAME-14 "入射光学素子"
*MEAS_COND_AXIS_NAME-15 "長手制限スリット"
*MEAS_COND_AXIS_NAME-16 "センタースリット"
*MEAS_COND_AXIS_NAME-17 "フィルター"
*MEAS_COND_AXIS_NAME-18 "受光スリット1"
*MEAS_COND_AXIS_NAME-19 "受光スリット2"
*MEAS_COND_AXIS_NAME-20 "受光光学素子"
*MEAS_COND_AXIS_NAME-21 "受光平行スリット"
*MEAS_COND_AXIS_NAME-22 "調整用受光スリット"
*MEAS_COND_AXIS_NAME-23 ""
*MEAS_COND_AXIS_NAME-24 ""
*MEAS_COND_AXIS_NAME-25 "Zd"
*MEAS_COND_AXIS_NAME-26 "アッテネータ"
*MEAS_COND_AXIS_NAME-27 "検出器モノクロメータ"
*MEAS_COND_AXIS_NAME-28 "モノクロメータスリット"
*MEAS_COND_AXIS_NAME-29 "プライマリビーム"
*MEAS_COND_AXIS_NAME-30 "PHA"
*MEAS_COND_AXIS_NAME_INTERNAL-0 "TwoThetaTheta"
*MEAS_COND_AXIS_NAME_INTERNAL-1 "TwoTheta"
*MEAS_COND_AXIS_NAME_INTERNAL-2 "Omega"
*MEAS_COND_AXIS_NAME_INTERNAL-3 "Z"
*MEAS_COND_AXIS_NAME_INTERNAL-4 "TwoThetaOmega"
*MEAS_COND_AXIS_NAME_INTERNAL-5 "ThetaS"
*MEAS_COND_AXIS_NAME_INTERNAL-6 "ThetaD"
*MEAS_COND_AXIS_NAME_INTERNAL-7 "Ts"
*MEAS_COND_AXIS_NAME_INTERNAL-8 "CBO"
*MEAS_COND_AXIS_NAME_INTERNAL-9 "CBO-M"
*MEAS_COND_AXIS_NAME_INTERNAL-10 "IncidentSollerSlit"
*MEAS_COND_AXIS_NAME_INTERNAL-11 "IncidentSlitBox"
*MEAS_COND_AXIS_NAME_INTERNAL-12 "IncidentSlitBox-_Axis"
*MEAS_COND_AXIS_NAME_INTERNAL-13 "Zs"
*MEAS_COND_AXIS_NAME_INTERNAL-14 "IncidentMonochromator"
*MEAS_COND_AXIS_NAME_INTERNAL-15 "IncidentAxdSlit"
*MEAS_COND_AXIS_NAME_INTERNAL-16 "CenterSlit"
*MEAS_COND_AXIS_NAME_INTERNAL-17 "Filter"
*MEAS_COND_AXIS_NAME_INTERNAL-18 "ReceivingSlitBox1"
*MEAS_COND_AXIS_NAME_INTERNAL-19 "ReceivingSlitBox2"
*MEAS_COND_AXIS_NAME_INTERNAL-20 "ReceivingOptics"
*MEAS_COND_AXIS_NAME_INTERNAL-21 "ReceivingSollerSlit"
*MEAS_COND_AXIS_NAME_INTERNAL-22 "ReceivingAxdSlit"
*MEAS_COND_AXIS_NAME_INTERNAL-23 "ReceivingSlitBox1-_Axis"
*MEAS_COND_AXIS_NAME_INTERNAL-24 "ReceivingSlitBox2-_Axis"
*MEAS_COND_AXIS_NAME_INTERNAL-25 "ReceivingSlitBox2-Zd"
*MEAS_COND_AXIS_NAME_INTERNAL-26 "Attenuator"
*MEAS_COND_AXIS_NAME_INTERNAL-27 "CounterMonochromator"
*MEAS_COND_AXIS_NAME_INTERNAL-28 "CounterSlit"
*MEAS_COND_AXIS_NAME_INTERNAL-29 "IncidentPrimary"
*MEAS_COND_AXIS_NAME_INTERNAL-30 "PHA"
*MEAS_COND_AXIS_NAME_MAGICNO-0 "83951616.0000000000"
*MEAS_COND_AXIS_NAME_MAGICNO-1 "268632064.0000000000"
*MEAS_COND_AXIS_NAME_MAGICNO-2 "268500992.0000000000"
*MEAS_COND_AXIS_NAME_MAGICNO-3 "285278208.0000000000"
*MEAS_COND_AXIS_NAME_MAGICNO-4 "83951616.0000000000"
*MEAS_COND_AXIS_NAME_MAGICNO-5 "131072.0000000000"
*MEAS_COND_AXIS_NAME_MAGICNO-6 "131072.0000000000"
*MEAS_COND_AXIS_NAME_MAGICNO-7 "318898176.0000000000"
*MEAS_COND_AXIS_NAME_MAGICNO-8 "20971521.0000000000"
*MEAS_COND_AXIS_NAME_MAGICNO-9 "285343744.0000000000"
*MEAS_COND_AXIS_NAME_MAGICNO-10 "20971521.0000000000"
*MEAS_COND_AXIS_NAME_MAGICNO-11 "22020097.0000000000"
*MEAS_COND_AXIS_NAME_MAGICNO-12 "25165824.0000000000"
*MEAS_COND_AXIS_NAME_MAGICNO-13 "318898176.0000000000"
*MEAS_COND_AXIS_NAME_MAGICNO-14 "1.0000000000"
*MEAS_COND_AXIS_NAME_MAGICNO-15 "20971521.0000000000"
*MEAS_COND_AXIS_NAME_MAGICNO-16 "20971521.0000000000"
*MEAS_COND_AXIS_NAME_MAGICNO-17 "20971521.0000000000"
*MEAS_COND_AXIS_NAME_MAGICNO-18 "23068673.0000000000"
*MEAS_COND_AXIS_NAME_MAGICNO-19 "23068673.0000000000"
*MEAS_COND_AXIS_NAME_MAGICNO-20 "20971521.0000000000"
*MEAS_COND_AXIS_NAME_MAGICNO-21 "20971521.0000000000"
*MEAS_COND_AXIS_NAME_MAGICNO-22 "20971521.0000000000"
*MEAS_COND_AXIS_NAME_MAGICNO-23 "25165824.0000000000"
*MEAS_COND_AXIS_NAME_MAGICNO-24 "25165824.0000000000"
*MEAS_COND_AXIS_NAME_MAGICNO-25 "285343744.0000000000"
*MEAS_COND_AXIS_NAME_MAGICNO-26 "17301505.0000000000"
*MEAS_COND_AXIS_NAME_MAGICNO-27 "20971521.0000000000"
*MEAS_COND_AXIS_NAME_MAGICNO-28 "20971521.0000000000"
*MEAS_COND_AXIS_NAME_MAGICNO-29 "20971521.0000000000"
*MEAS_COND_AXIS_NAME_MAGICNO-30 "0.0000000000"
*MEAS_COND_AXIS_OFFSET-0 "-"
*MEAS_COND_AXIS_OFFSET-1 "-0.1081000000"
*MEAS_COND_AXIS_OFFSET-2 "0.3758000000"
*MEAS_COND_AXIS_OFFSET-3 "-"
*MEAS_COND_AXIS_OFFSET-4 "-"
*MEAS_COND_AXIS_OFFSET-5 "0.3758000000"
*MEAS_COND_AXIS_OFFSET-6 "-0.4839000000"
*MEAS_COND_AXIS_OFFSET-7 "-"
*MEAS_COND_AXIS_OFFSET-8 "-"
*MEAS_COND_AXIS_OFFSET-9 "-"
*MEAS_COND_AXIS_OFFSET-10 "-"
*MEAS_COND_AXIS_OFFSET-11 "-"
*MEAS_COND_AXIS_OFFSET-12 "-"
*MEAS_COND_AXIS_OFFSET-13 "-"
*MEAS_COND_AXIS_OFFSET-14 "-"
*MEAS_COND_AXIS_OFFSET-15 "-"
*MEAS_COND_AXIS_OFFSET-16 "-"
*MEAS_COND_AXIS_OFFSET-17 "-"
*MEAS_COND_AXIS_OFFSET-18 "-"
*MEAS_COND_AXIS_OFFSET-19 "-"
*MEAS_COND_AXIS_OFFSET-20 "-"
*MEAS_COND_AXIS_OFFSET-21 "-"
*MEAS_COND_AXIS_OFFSET-22 "-"
*MEAS_COND_AXIS_OFFSET-23 "-"
*MEAS_COND_AXIS_OFFSET-24 "-"
*MEAS_COND_AXIS_OFFSET-25 "-"
*MEAS_COND_AXIS_OFFSET-26 "-"
*MEAS_COND_AXIS_OFFSET-27 "-"
*MEAS_COND_AXIS_OFFSET-28 "-"
*MEAS_COND_AXIS_OFFSET-29 "-"
*MEAS_COND_AXIS_OFFSET-30 "-"
*MEAS_COND_AXIS_POSITION-0 "0.0000000000"
*MEAS_COND_AXIS_POSITION-1 "0.0000000000"
*MEAS_COND_AXIS_POSITION-2 "0.0000000000"
*MEAS_COND_AXIS_POSITION-3 "-0.5500000000"
*MEAS_COND_AXIS_POSITION-4 "0.0000000000"
*MEAS_COND_AXIS_POSITION-5 "0.0000000000"
*MEAS_COND_AXIS_POSITION-6 "0.0000000000"
*MEAS_COND_AXIS_POSITION-7 "-0.4278800000"
*MEAS_COND_AXIS_POSITION-8 "BB"
*MEAS_COND_AXIS_POSITION-9 "0.0000000000"
*MEAS_COND_AXIS_POSITION-10 "Soller_slit_5.0deg"
*MEAS_COND_AXIS_POSITION-11 "2/3deg"
*MEAS_COND_AXIS_POSITION-12 "2.2088000000"
*MEAS_COND_AXIS_POSITION-13 "-0.4140600000"
*MEAS_COND_AXIS_POSITION-14 "0.0000000000"
*MEAS_COND_AXIS_POSITION-15 "10.0mm"
*MEAS_COND_AXIS_POSITION-16 "None"
*MEAS_COND_AXIS_POSITION-17 "Cu_K-beta"
*MEAS_COND_AXIS_POSITION-18 "13.000mm"
*MEAS_COND_AXIS_POSITION-19 "13.000mm"
*MEAS_COND_AXIS_POSITION-20 "No_unit"
*MEAS_COND_AXIS_POSITION-21 "Soller_slit_5.0deg"
*MEAS_COND_AXIS_POSITION-22 "None"
*MEAS_COND_AXIS_POSITION-23 "13.0000000000"
*MEAS_COND_AXIS_POSITION-24 "13.0000000000"
*MEAS_COND_AXIS_POSITION-25 "0.0109400000"
*MEAS_COND_AXIS_POSITION-26 "Open"
*MEAS_COND_AXIS_POSITION-27 "None"
*MEAS_COND_AXIS_POSITION-28 "None"
*MEAS_COND_AXIS_POSITION-29 "None"
*MEAS_COND_AXIS_POSITION-30 "38.0000000000"
*MEAS_COND_AXIS_UNIT-0 "deg"
*MEAS_COND_AXIS_UNIT-1 "deg"
*MEAS_COND_AXIS_UNIT-2 "deg"
*MEAS_COND_AXIS_UNIT-3 "mm"
*MEAS_COND_AXIS_UNIT-4 "deg"
*MEAS_COND_AXIS_UNIT-5 "deg"
*MEAS_COND_AXIS_UNIT-6 "deg"
*MEAS_COND_AXIS_UNIT-7 "mm"
*MEAS_COND_AXIS_UNIT-8 ""
*MEAS_COND_AXIS_UNIT-9 "pulse"
*MEAS_COND_AXIS_UNIT-10 ""
*MEAS_COND_AXIS_UNIT-11 ""
*MEAS_COND_AXIS_UNIT-12 "mm"
*MEAS_COND_AXIS_UNIT-13 "mm"
*MEAS_COND_AXIS_UNIT-14 ""
*MEAS_COND_AXIS_UNIT-15 ""
*MEAS_COND_AXIS_UNIT-16 ""
*MEAS_COND_AXIS_UNIT-17 ""
*MEAS_COND_AXIS_UNIT-18 ""
*MEAS_COND_AXIS_UNIT-19 ""
*MEAS_COND_AXIS_UNIT-20 ""
*MEAS_COND_AXIS_UNIT-21 ""
*MEAS_COND_AXIS_UNIT-22 ""
*MEAS_COND_AXIS_UNIT-23 "mm"
*MEAS_COND_AXIS_UNIT-24 "mm"
*MEAS_COND_AXIS_UNIT-25 "mm"
*MEAS_COND_AXIS_UNIT-26 ""
*MEAS_COND_AXIS_UNIT-27 ""
*MEAS_COND_AXIS_UNIT-28 ""
*MEAS_COND_AXIS_UNIT-29 ""
*MEAS_COND_AXIS_UNIT-30 "div"
*MEAS_COND_COUNTER_CNTLOSS_CORR "0.0000000000"
*MEAS_COND_COUNTER_PHABASE "38.0000000000"
*MEAS_COND_COUNTER_PHAWINDOW "16.0000000000"
*MEAS_COND_COUNTER_PHA_UNIT "div"
*MEAS_COND_COUNTER_TAUDIFF "30.0000000000"
*MEAS_COND_COUNTER_TAUINT "0.0000000000"
*MEAS_COND_IRRADIATION_MODE "OFF"
*MEAS_COND_IRRADIATION_WIDTH ""
*MEAS_COND_OPT_ATTR "集中法"
*MEAS_COND_OPT_NAME "@集中法"
*MEAS_COND_UNSYMMETRIC_MODE "OFF"
*MEAS_COND_XG_CURRENT "30.0000000000"
*MEAS_COND_XG_VOLTAGE "40.0000000000"
*MEAS_COND_XG_WAVE_TYPE "Ka"
*MEAS_DATA_COUNT "5001.0000000000"
*MEAS_SCAN_AXIS_X "2θ/θ"
*MEAS_SCAN_AXIS_X_INTERNAL "TwoThetaTheta"
*MEAS_SCAN_END_TIME "07/14/21 17:40:52"
*MEAS_SCAN_MODE "CONTINUOUS"
*MEAS_SCAN_MONITOR "0"
*MEAS_SCAN_RESOLUTION_X "0.0002"
*MEAS_SCAN_SPEED "1.0"
*MEAS_SCAN_SPEED_UNIT "deg/min"
*MEAS_SCAN_START "20.0000000000"
*MEAS_SCAN_START_TIME "07/14/21 16:47:59"
*MEAS_SCAN_STEP "0.0100000000"
*MEAS_SCAN_STOP "70.0000000000"
*MEAS_SCAN_UNIT_X "deg"
*MEAS_SCAN_UNIT_Y "counts"
*RAS_HEADER_END
*RAS_INT_START
20.0000 1472.0000 1.0000
20.0100 1459.0000 1.0000
20.0200 1431.0000 1.0000
20.0300 1439.0000 1.0000
20.0400 1428.0000 1.0000
20.0500 1415.0000 1.0000
20.0600 1397.0000 1.0000
20.0700 1439.0000 1.0000
20.0800 1421.0000 1.0000
20.0900 1414.0000 1.0000
20.1000 1434.0000 1.0000
20.1100 1458.0000 1.0000
20.1200 1426.0000 1.0000
20.1300 1427.0000 1.0000
20.1400 1388.0000 1.0000
20.1500 1395.0000 1.0000
20.1600 1442.0000 1.0000
20.1700 1473.0000 1.0000
20.1800 1424.0000 1.0000
20.1900 1473.0000 1.0000
20.2000 1426.0000 1.0000
20.2100 1412.0000 1.0000
20.2200 1479.0000 1.0000
20.2300 1419.0000 1.0000
20.2400 1399.0000 1.0000
20.2500 1442.0000 1.0000
20.2600 1454.0000 1.0000
20.2700 1445.0000 1.0000
20.2800 1448.0000 1.0000
20.2900 1480.0000 1.0000
20.3000 1500.0000 1.0000
20.3100 1432.0000 1.0000
20.3200 1520.0000 1.0000
20.3300 1384.0000 1.0000
20.3400 1390.0000 1.0000
20.3500 1502.0000 1.0000
20.3600 1519.0000 1.0000
20.3700 1493.0000 1.0000
20.3800 1437.0000 1.0000
20.3900 1388.0000 1.0000
20.4000 1418.0000 1.0000
20.4100 1477.0000 1.0000
20.4200 1481.0000 1.0000
20.4300 1429.0000 1.0000
20.4400 1473.0000 1.0000
20.4500 1428.0000 1.0000
20.4600 1381.0000 1.0000
20.4700 1474.0000 1.0000
20.4800 1436.0000 1.0000
20.4900 1399.0000 1.0000
20.5000 1420.0000 1.0000
20.5100 1455.0000 1.0000
20.5200 1394.0000 1.0000
20.5300 1488.0000 1.0000
20.5400 1515.0000 1.0000
20.5500 1464.0000 1.0000
20.5600 1444.0000 1.0000
20.5700 1436.0000 1.0000
20.5800 1417.0000 1.0000
20.5900 1416.0000 1.0000
20.6000 1463.0000 1.0000
20.6100 1463.0000 1.0000
20.6200 1427.0000 1.0000
20.6300 1467.0000 1.0000
20.6400 1462.0000 1.0000
20.6500 1462.0000 1.0000
20.6600 1470.0000 1.0000
20.6700 1445.0000 1.0000
20.6800 1530.0000 1.0000
20.6900 1461.0000 1.0000
20.7000 1467.0000 1.0000
20.7100 1433.0000 1.0000
20.7200 1457.0000 1.0000
20.7300 1454.0000 1.0000
20.7400 1489.0000 1.0000
20.7500 1451.0000 1.0000
20.7600 1414.0000 1.0000
20.7700 1435.0000 1.0000
20.7800 1407.0000 1.0000
20.7900 1448.0000 1.0000
20.8000 1426.0000 1.0000
20.8100 1456.0000 1.0000
20.8200 1446.0000 1.0000
20.8300 1464.0000 1.0000
20.8400 1459.0000 1.0000
20.8500 1418.0000 1.0000
20.8600 1412.0000 1.0000
20.8700 1403.0000 1.0000
20.8800 1401.0000 1.0000
20.8900 1401.0000 1.0000
20.9000 1425.0000 1.0000
20.9100 1495.0000 1.0000
20.9200 1435.0000 1.0000
20.9300 1452.0000 1.0000
20.9400 1408.0000 1.0000
20.9500 1456.0000 1.0000
20.9600 1444.0000 1.0000
20.9700 1455.0000 1.0000
20.9800 1421.0000 1.0000
20.9900 1427.0000 1.0000
21.0000 1456.0000 1.0000
21.0100 1474.0000 1.0000
21.0200 1507.0000 1.0000
21.0300 1440.0000 1.0000
21.0400 1442.0000 1.0000
21.0500 1449.0000 1.0000
21.0600 1433.0000 1.0000
21.0700 1442.0000 1.0000
21.0800 1437.0000 1.0000
21.0900 1408.0000 1.0000
21.1000 1438.0000 1.0000
21.1100 1414.0000 1.0000
21.1200 1362.0000 1.0000
21.1300 1378.0000 1.0000
21.1400 1444.0000 1.0000
21.1500 1424.0000 1.0000
21.1600 1375.0000 1.0000
21.1700 1409.0000 1.0000
21.1800 1400.0000 1.0000
21.1900 1392.0000 1.0000
21.2000 1413.0000 1.0000
21.2100 1413.0000 1.0000
21.2200 1402.0000 1.0000
21.2300 1458.0000 1.0000
21.2400 1438.0000 1.0000
21.2500 1413.0000 1.0000
21.2600 1448.0000 1.0000
21.2700 1414.0000 1.0000
21.2800 1418.0000 1.0000
21.2900 1445.0000 1.0000
21.3000 1483.0000 1.0000
21.3100 1462.0000 1.0000
21.3200 1504.0000 1.0000
21.3300 1446.0000 1.0000
21.3400 1449.0000 1.0000
21.3500 1433.0000 1.0000
21.3600 1452.0000 1.0000
21.3700 1422.0000 1.0000
21.3800 1394.0000 1.0000
21.3900 1489.0000 1.0000
21.4000 1451.0000 1.0000
21.4100 1497.0000 1.0000
21.4200 1438.0000 1.0000
21.4300 1448.0000 1.0000
21.4400 1483.0000 1.0000
21.4500 1449.0000 1.0000
21.4600 1491.0000 1.0000
21.4700 1431.0000 1.0000
21.4800 1461.0000 1.0000
21.4900 1473.0000 1.0000
21.5000 1434.0000 1.0000
21.5100 1413.0000 1.0000
21.5200 1407.0000 1.0000
21.5300 1477.0000 1.0000
21.5400 1472.0000 1.0000
21.5500 1420.0000 1.0000
21.5600 1476.0000 1.0000
21.5700 1442.0000 1.0000
21.5800 1436.0000 1.0000
21.5900 1496.0000 1.0000
21.6000 1467.0000 1.0000
21.6100 1461.0000 1.0000
21.6200 1460.0000 1.0000
21.6300 1449.0000 1.0000
21.6400 1438.0000 1.0000
21.6500 1485.0000 1.0000
21.6600 1458.0000 1.0000
21.6700 1457.0000 1.0000
21.6800 1454.0000 1.0000
21.6900 1489.0000 1.0000
21.7000 1508.0000 1.0000
21.7100 1488.0000 1.0000
21.7200 1446.0000 1.0000
21.7300 1457.0000 1.0000
21.7400 1457.0000 1.0000
21.7500 1477.0000 1.0000
21.7600 1439.0000 1.0000
21.7700 1458.0000 1.0000
21.7800 1448.0000 1.0000
21.7900 1450.0000 1.0000
21.8000 1474.0000 1.0000
21.8100 1489.0000 1.0000
21.8200 1429.0000 1.0000
21.8300 1489.0000 1.0000
21.8400 1475.0000 1.0000
21.8500 1489.0000 1.0000
21.8600 1456.0000 1.0000
21.8700 1479.0000 1.0000
21.8800 1468.0000 1.0000
21.8900 1433.0000 1.0000
21.9000 1473.0000 1.0000
21.9100 1453.0000 1.0000
21.9200 1459.0000 1.0000
21.9300 1433.0000 1.0000
21.9400 1459.0000 1.0000
21.9500 1441.0000 1.0000
21.9600 1376.0000 1.0000
21.9700 1469.0000 1.0000
21.9800 1474.0000 1.0000
21.9900 1500.0000 1.0000
22.0000 1488.0000 1.0000
22.0100 1437.0000 1.0000
22.0200 1456.0000 1.0000
22.0300 1466.0000 1.0000
22.0400 1456.0000 1.0000
22.0500 1371.0000 1.0000
22.0600 1468.0000 1.0000
22.0700 1401.0000 1.0000
22.0800 1470.0000 1.0000
22.0900 1426.0000 1.0000
22.1000 1414.0000 1.0000
22.1100 1464.0000 1.0000
22.1200 1508.0000 1.0000
22.1300 1517.0000 1.0000
22.1400 1513.0000 1.0000
22.1500 1423.0000 1.0000
22.1600 1462.0000 1.0000
22.1700 1445.0000 1.0000
22.1800 1503.0000 1.0000
22.1900 1496.0000 1.0000
22.2000 1461.0000 1.0000
22.2100 1474.0000 1.0000
22.2200 1468.0000 1.0000
22.2300 1434.0000 1.0000
22.2400 1479.0000 1.0000
22.2500 1415.0000 1.0000
22.2600 1443.0000 1.0000
22.2700 1530.0000 1.0000
22.2800 1448.0000 1.0000
22.2900 1472.0000 1.0000
22.3000 1472.0000 1.0000
22.3100 1499.0000 1.0000
22.3200 1480.0000 1.0000
22.3300 1481.0000 1.0000
22.3400 1489.0000 1.0000
22.3500 1406.0000 1.0000
22.3600 1425.0000 1.0000
22.3700 1478.0000 1.0000
22.3800 1498.0000 1.0000
22.3900 1452.0000 1.0000
22.4000 1492.0000 1.0000
22.4100 1469.0000 1.0000
22.4200 1440.0000 1.0000
22.4300 1465.0000 1.0000
22.4400 1444.0000 1.0000
22.4500 1476.0000 1.0000
22.4600 1484.0000 1.0000
22.4700 1440.0000 1.0000
22.4800 1452.0000 1.0000
22.4900 1481.0000 1.0000
22.5000 1426.0000 1.0000
22.5100 1446.0000 1.0000
22.5200 1446.0000 1.0000
22.5300 1488.0000 1.0000
22.5400 1430.0000 1.0000
22.5500 1432.0000 1.0000
22.5600 1482.0000 1.0000
22.5700 1431.0000 1.0000
22.5800 1435.0000 1.0000
22.5900 1367.0000 1.0000
22.6000 1402.0000 1.0000
22.6100 1435.0000 1.0000
22.6200 1486.0000 1.0000
22.6300 1465.0000 1.0000
22.6400 1473.0000 1.0000
22.6500 1453.0000 1.0000
22.6600 1427.0000 1.0000
22.6700 1485.0000 1.0000
22.6800 1475.0000 1.0000
22.6900 1467.0000 1.0000
22.7000 1411.0000 1.0000
22.7100 1468.0000 1.0000
22.7200 1488.0000 1.0000
22.7300 1467.0000 1.0000
22.7400 1498.0000 1.0000
22.7500 1476.0000 1.0000
22.7600 1444.0000 1.0000
22.7700 1448.0000 1.0000
22.7800 1499.0000 1.0000
22.7900 1472.0000 1.0000
22.8000 1485.0000 1.0000
22.8100 1493.0000 1.0000
22.8200 1495.0000 1.0000
22.8300 1461.0000 1.0000
22.8400 1432.0000 1.0000
22.8500 1484.0000 1.0000
22.8600 1553.0000 1.0000
22.8700 1492.0000 1.0000
22.8800 1465.0000 1.0000
22.8900 1489.0000 1.0000
22.9000 1495.0000 1.0000
22.9100 1438.0000 1.0000
22.9200 1503.0000 1.0000
22.9300 1544.0000 1.0000
22.9400 1489.0000 1.0000
22.9500 1409.0000 1.0000
22.9600 1474.0000 1.0000
22.9700 1541.0000 1.0000
22.9800 1533.0000 1.0000
22.9900 1551.0000 1.0000
23.0000 1506.0000 1.0000
23.0100 1492.0000 1.0000
23.0200 1536.0000 1.0000
23.0300 1480.0000 1.0000
23.0400 1465.0000 1.0000
23.0500 1457.0000 1.0000
23.0600 1424.0000 1.0000
23.0700 1454.0000 1.0000
23.0800 1505.0000 1.0000
23.0900 1425.0000 1.0000
23.1000 1467.0000 1.0000
23.1100 1467.0000 1.0000
23.1200 1479.0000 1.0000
23.1300 1451.0000 1.0000
23.1400 1484.0000 1.0000
23.1500 1495.0000 1.0000
23.1600 1490.0000 1.0000
23.1700 1475.0000 1.0000
23.1800 1459.0000 1.0000
23.1900 1455.0000 1.0000
23.2000 1504.0000 1.0000
23.2100 1462.0000 1.0000
23.2200 1457.0000 1.0000
23.2300 1458.0000 1.0000
23.2400 1497.0000 1.0000
23.2500 1427.0000 1.0000
23.2600 1479.0000 1.0000
23.2700 1535.0000 1.0000
23.2800 1413.0000 1.0000
23.2900 1446.0000 1.0000
23.3000 1422.0000 1.0000
23.3100 1454.0000 1.0000
23.3200 1502.0000 1.0000
23.3300 1535.0000 1.0000
23.3400 1494.0000 1.0000
23.3500 1447.0000 1.0000
23.3600 1442.0000 1.0000
23.3700 1472.0000 1.0000
23.3800 1488.0000 1.0000
23.3900 1518.0000 1.0000
23.4000 1470.0000 1.0000
23.4100 1507.0000 1.0000
23.4200 1434.0000 1.0000
23.4300 1478.0000 1.0000
23.4400 1493.0000 1.0000
23.4500 1487.0000 1.0000
23.4600 1466.0000 1.0000
23.4700 1447.0000 1.0000
23.4800 1490.0000 1.0000
23.4900 1560.0000 1.0000
23.5000 1512.0000 1.0000
23.5100 1506.0000 1.0000
23.5200 1477.0000 1.0000
23.5300 1384.0000 1.0000
23.5400 1465.0000 1.0000
23.5500 1532.0000 1.0000
23.5600 1486.0000 1.0000
23.5700 1534.0000 1.0000
23.5800 1486.0000 1.0000
23.5900 1531.0000 1.0000
23.6000 1516.0000 1.0000
23.6100 1497.0000 1.0000
23.6200 1546.0000 1.0000
23.6300 1519.0000 1.0000
23.6400 1490.0000 1.0000
23.6500 1488.0000 1.0000
23.6600 1426.0000 1.0000
23.6700 1511.0000 1.0000
23.6800 1489.0000 1.0000
23.6900 1451.0000 1.0000
23.7000 1548.0000 1.0000
23.7100 1526.0000 1.0000
23.7200 1494.0000 1.0000
23.7300 1566.0000 1.0000
23.7400 1525.0000 1.0000
23.7500 1505.0000 1.0000
23.7600 1536.0000 1.0000
23.7700 1543.0000 1.0000
23.7800 1482.0000 1.0000
23.7900 1451.0000 1.0000
23.8000 1430.0000 1.0000
23.8100 1505.0000 1.0000
23.8200 1464.0000 1.0000
23.8300 1495.0000 1.0000
23.8400 1546.0000 1.0000
23.8500 1493.0000 1.0000
23.8600 1482.0000 1.0000
23.8700 1468.0000 1.0000
23.8800 1482.0000 1.0000
23.8900 1476.0000 1.0000
23.9000 1514.0000 1.0000
23.9100 1550.0000 1.0000
23.9200 1459.0000 1.0000
23.9300 1535.0000 1.0000
23.9400 1480.0000 1.0000
23.9500 1462.0000 1.0000
23.9600 1508.0000 1.0000
23.9700 1485.0000 1.0000
23.9800 1470.0000 1.0000
23.9900 1452.0000 1.0000
24.0000 1505.0000 1.0000
24.0100 1464.0000 1.0000
24.0200 1529.0000 1.0000
24.0300 1479.0000 1.0000
24.0400 1491.0000 1.0000
24.0500 1514.0000 1.0000
24.0600 1529.0000 1.0000
24.0700 1535.0000 1.0000
24.0800 1509.0000 1.0000
24.0900 1504.0000 1.0000
24.1000 1459.0000 1.0000
24.1100 1537.0000 1.0000
24.1200 1486.0000 1.0000
24.1300 1516.0000 1.0000
24.1400 1495.0000 1.0000
24.1500 1527.0000 1.0000
24.1600 1556.0000 1.0000
24.1700 1516.0000 1.0000
24.1800 1500.0000 1.0000
24.1900 1471.0000 1.0000
24.2000 1442.0000 1.0000
24.2100 1485.0000 1.0000
24.2200 1536.0000 1.0000
24.2300 1496.0000 1.0000
24.2400 1518.0000 1.0000
24.2500 1515.0000 1.0000
24.2600 1483.0000 1.0000
24.2700 1459.0000 1.0000
24.2800 1530.0000 1.0000
24.2900 1486.0000 1.0000
24.3000 1562.0000 1.0000
24.3100 1567.0000 1.0000
24.3200 1506.0000 1.0000
24.3300 1494.0000 1.0000
24.3400 1541.0000 1.0000
24.3500 1547.0000 1.0000
24.3600 1549.0000 1.0000
24.3700 1501.0000 1.0000
24.3800 1508.0000 1.0000
24.3900 1492.0000 1.0000
24.4000 1541.0000 1.0000
24.4100 1515.0000 1.0000
24.4200 1491.0000 1.0000
24.4300 1573.0000 1.0000
24.4400 1511.0000 1.0000
24.4500 1476.0000 1.0000
24.4600 1486.0000 1.0000
24.4700 1529.0000 1.0000
24.4800 1530.0000 1.0000
24.4900 1532.0000 1.0000
24.5000 1515.0000 1.0000
24.5100 1535.0000 1.0000
24.5200 1519.0000 1.0000
24.5300 1477.0000 1.0000
24.5400 1533.0000 1.0000
24.5500 1562.0000 1.0000
24.5600 1541.0000 1.0000
24.5700 1490.0000 1.0000
24.5800 1580.0000 1.0000
24.5900 1485.0000 1.0000
24.6000 1505.0000 1.0000
24.6100 1512.0000 1.0000
24.6200 1592.0000 1.0000
24.6300 1584.0000 1.0000
24.6400 1582.0000 1.0000
24.6500 1488.0000 1.0000
24.6600 1531.0000 1.0000
24.6700 1527.0000 1.0000
24.6800 1580.0000 1.0000
24.6900 1513.0000 1.0000
24.7000 1520.0000 1.0000
24.7100 1537.0000 1.0000
24.7200 1533.0000 1.0000
24.7300 1498.0000 1.0000
24.7400 1510.0000 1.0000
24.7500 1544.0000 1.0000
24.7600 1522.0000 1.0000
24.7700 1510.0000 1.0000
24.7800 1517.0000 1.0000
24.7900 1544.0000 1.0000
24.8000 1581.0000 1.0000
24.8100 1530.0000 1.0000
24.8200 1510.0000 1.0000
24.8300 1491.0000 1.0000
24.8400 1481.0000 1.0000
24.8500 1518.0000 1.0000
24.8600 1501.0000 1.0000
24.8700 1542.0000 1.0000
24.8800 1536.0000 1.0000
24.8900 1483.0000 1.0000
24.9000 1502.0000 1.0000
24.9100 1489.0000 1.0000
24.9200 1517.0000 1.0000
24.9300 1513.0000 1.0000
24.9400 1501.0000 1.0000
24.9500 1554.0000 1.0000
24.9600 1598.0000 1.0000
24.9700 1614.0000 1.0000
24.9800 1522.0000 1.0000
24.9900 1556.0000 1.0000
25.0000 1519.0000 1.0000
25.0100 1522.0000 1.0000
25.0200 1565.0000 1.0000
25.0300 1532.0000 1.0000
25.0400 1565.0000 1.0000
25.0500 1537.0000 1.0000
25.0600 1542.0000 1.0000
25.0700 1558.0000 1.0000
25.0800 1615.0000 1.0000
25.0900 1530.0000 1.0000
25.1000 1505.0000 1.0000
25.1100 1549.0000 1.0000
25.1200 1590.0000 1.0000
25.1300 1517.0000 1.0000
25.1400 1578.0000 1.0000
25.1500 1531.0000 1.0000
25.1600 1486.0000 1.0000
25.1700 1569.0000 1.0000
25.1800 1567.0000 1.0000
25.1900 1567.0000 1.0000
25.2000 1563.0000 1.0000
25.2100 1579.0000 1.0000
25.2200 1576.0000 1.0000
25.2300 1581.0000 1.0000
25.2400 1542.0000 1.0000
25.2500 1579.0000 1.0000
25.2600 1532.0000 1.0000
25.2700 1548.0000 1.0000
25.2800 1548.0000 1.0000
25.2900 1580.0000 1.0000
25.3000 1565.0000 1.0000
25.3100 1586.0000 1.0000
25.3200 1539.0000 1.0000
25.3300 1561.0000 1.0000
25.3400 1524.0000 1.0000
25.3500 1565.0000 1.0000
25.3600 1593.0000 1.0000
25.3700 1499.0000 1.0000
25.3800 1531.0000 1.0000
25.3900 1572.0000 1.0000
25.4000 1573.0000 1.0000
25.4100 1568.0000 1.0000
25.4200 1531.0000 1.0000
25.4300 1518.0000 1.0000
25.4400 1539.0000 1.0000
25.4500 1534.0000 1.0000
25.4600 1562.0000 1.0000
25.4700 1600.0000 1.0000
25.4800 1532.0000 1.0000
25.4900 1496.0000 1.0000
25.5000 1589.0000 1.0000
25.5100 1492.0000 1.0000
25.5200 1557.0000 1.0000
25.5300 1524.0000 1.0000
25.5400 1555.0000 1.0000
25.5500 1511.0000 1.0000
25.5600 1511.0000 1.0000
25.5700 1536.0000 1.0000
25.5800 1570.0000 1.0000
25.5900 1609.0000 1.0000
25.6000 1549.0000 1.0000
25.6100 1485.0000 1.0000
25.6200 1484.0000 1.0000
25.6300 1593.0000 1.0000
25.6400 1529.0000 1.0000
25.6500 1571.0000 1.0000
25.6600 1564.0000 1.0000
25.6700 1566.0000 1.0000
25.6800 1555.0000 1.0000
25.6900 1499.0000 1.0000
25.7000 1513.0000 1.0000
25.7100 1495.0000 1.0000
25.7200 1462.0000 1.0000
25.7300 1512.0000 1.0000
25.7400 1600.0000 1.0000
25.7500 1548.0000 1.0000
25.7600 1576.0000 1.0000
25.7700 1533.0000 1.0000
25.7800 1534.0000 1.0000
25.7900 1555.0000 1.0000
25.8000 1510.0000 1.0000
25.8100 1526.0000 1.0000
25.8200 1552.0000 1.0000
25.8300 1551.0000 1.0000
25.8400 1490.0000 1.0000
25.8500 1529.0000 1.0000
25.8600 1522.0000 1.0000
25.8700 1574.0000 1.0000
25.8800 1570.0000 1.0000
25.8900 1562.0000 1.0000
25.9000 1582.0000 1.0000
25.9100 1529.0000 1.0000
25.9200 1562.0000 1.0000
25.9300 1530.0000 1.0000
25.9400 1557.0000 1.0000
25.9500 1583.0000 1.0000
25.9600 1503.0000 1.0000
25.9700 1563.0000 1.0000
25.9800 1514.0000 1.0000
25.9900 1543.0000 1.0000
26.0000 1609.0000 1.0000
26.0100 1550.0000 1.0000
26.0200 1630.0000 1.0000
26.0300 1549.0000 1.0000
26.0400 1477.0000 1.0000
26.0500 1549.0000 1.0000
26.0600 1530.0000 1.0000
26.0700 1517.0000 1.0000
26.0800 1586.0000 1.0000
26.0900 1576.0000 1.0000
26.1000 1549.0000 1.0000
26.1100 1549.0000 1.0000
26.1200 1519.0000 1.0000
26.1300 1583.0000 1.0000
26.1400 1533.0000 1.0000
26.1500 1565.0000 1.0000
26.1600 1590.0000 1.0000
26.1700 1529.0000 1.0000
26.1800 1501.0000 1.0000
26.1900 1558.0000 1.0000
26.2000 1628.0000 1.0000
26.2100 1590.0000 1.0000
26.2200 1547.0000 1.0000
26.2300 1572.0000 1.0000
26.2400 1498.0000 1.0000
26.2500 1575.0000 1.0000
26.2600 1565.0000 1.0000
26.2700 1540.0000 1.0000
26.2800 1563.0000 1.0000
26.2900 1595.0000 1.0000
26.3000 1572.0000 1.0000
26.3100 1544.0000 1.0000
26.3200 1623.0000 1.0000
26.3300 1637.0000 1.0000
26.3400 1647.0000 1.0000
26.3500 1578.0000 1.0000
26.3600 1511.0000 1.0000
26.3700 1592.0000 1.0000
26.3800 1548.0000 1.0000
26.3900 1555.0000 1.0000
26.4000 1569.0000 1.0000
26.4100 1611.0000 1.0000
26.4200 1672.0000 1.0000
26.4300 1666.0000 1.0000
26.4400 1608.0000 1.0000
26.4500 1636.0000 1.0000
26.4600 1563.0000 1.0000
26.4700 1608.0000 1.0000
26.4800 1629.0000 1.0000
26.4900 1602.0000 1.0000
26.5000 1652.0000 1.0000
26.5100 1594.0000 1.0000
26.5200 1651.0000 1.0000
26.5300 1635.0000 1.0000
26.5400 1628.0000 1.0000
26.5500 1669.0000 1.0000
26.5600 1648.0000 1.0000
26.5700 1550.0000 1.0000
26.5800 1590.0000 1.0000
26.5900 1618.0000 1.0000
26.6000 1606.0000 1.0000
26.6100 1622.0000 1.0000
26.6200 1662.0000 1.0000
26.6300 1600.0000 1.0000
26.6400 1687.0000 1.0000
26.6500 1644.0000 1.0000
26.6600 1652.0000 1.0000
26.6700 1754.0000 1.0000
26.6800 1637.0000 1.0000
26.6900 1711.0000 1.0000
26.7000 1630.0000 1.0000
26.7100 1655.0000 1.0000
26.7200 1710.0000 1.0000
26.7300 1687.0000 1.0000
26.7400 1720.0000 1.0000
26.7500 1759.0000 1.0000
26.7600 1768.0000 1.0000
26.7700 1700.0000 1.0000
26.7800 1739.0000 1.0000
26.7900 1749.0000 1.0000
26.8000 1653.0000 1.0000
26.8100 1691.0000 1.0000
26.8200 1770.0000 1.0000
26.8300 1811.0000 1.0000
26.8400 1811.0000 1.0000
26.8500 1736.0000 1.0000
26.8600 1795.0000 1.0000
26.8700 1772.0000 1.0000
26.8800 1781.0000 1.0000
26.8900 1932.0000 1.0000
26.9000 1867.0000 1.0000
26.9100 1883.0000 1.0000
26.9200 1915.0000 1.0000
26.9300 1938.0000 1.0000
26.9400 1900.0000 1.0000
26.9500 1913.0000 1.0000
26.9600 2040.0000 1.0000
26.9700 2028.0000 1.0000
26.9800 2031.0000 1.0000
26.9900 2095.0000 1.0000
27.0000 2154.0000 1.0000
27.0100 2202.0000 1.0000
27.0200 2304.0000 1.0000
27.0300 2297.0000 1.0000
27.0400 2321.0000 1.0000
27.0500 2402.0000 1.0000
27.0600 2405.0000 1.0000
27.0700 2396.0000 1.0000
27.0800 2547.0000 1.0000
27.0900 2690.0000 1.0000
27.1000 2804.0000 1.0000
27.1100 2898.0000 1.0000
27.1200 2888.0000 1.0000
27.1300 3099.0000 1.0000
27.1400 3270.0000 1.0000
27.1500 3363.0000 1.0000
27.1600 3487.0000 1.0000
27.1700 3710.0000 1.0000
27.1800 3803.0000 1.0000
27.1900 4085.0000 1.0000
27.2000 4293.0000 1.0000
27.2100 4600.0000 1.0000
27.2200 4893.0000 1.0000
27.2300 5011.0000 1.0000
27.2400 5282.0000 1.0000
27.2500 5617.0000 1.0000
27.2600 5877.0000 1.0000
27.2700 6093.0000 1.0000
27.2800 6249.0000 1.0000
27.2900 6497.0000 1.0000
27.3000 6552.0000 1.0000
27.3100 6545.0000 1.0000
27.3200 6450.0000 1.0000
27.3300 6285.0000 1.0000
27.3400 6036.0000 1.0000
27.3500 5917.0000 1.0000
27.3600 5767.0000 1.0000
27.3700 5554.0000 1.0000
27.3800 5331.0000 1.0000
27.3900 4916.0000 1.0000
27.4000 4726.0000 1.0000
27.4100 4482.0000 1.0000
27.4200 4169.0000 1.0000
27.4300 3955.0000 1.0000
27.4400 3858.0000 1.0000
27.4500 3646.0000 1.0000
27.4600 3495.0000 1.0000
27.4700 3281.0000 1.0000
27.4800 3198.0000 1.0000
27.4900 3051.0000 1.0000
27.5000 2838.0000 1.0000
27.5100 2806.0000 1.0000
27.5200 2648.0000 1.0000
27.5300 2587.0000 1.0000
27.5400 2606.0000 1.0000
27.5500 2480.0000 1.0000
27.5600 2421.0000 1.0000
27.5700 2393.0000 1.0000
27.5800 2329.0000 1.0000
27.5900 2301.0000 1.0000
27.6000 2272.0000 1.0000
27.6100 2062.0000 1.0000
27.6200 2104.0000 1.0000
27.6300 2081.0000 1.0000
27.6400 2009.0000 1.0000
27.6500 1971.0000 1.0000
27.6600 1948.0000 1.0000
27.6700 1945.0000 1.0000
27.6800 1884.0000 1.0000
27.6900 1938.0000 1.0000
27.7000 1799.0000 1.0000
27.7100 1854.0000 1.0000
27.7200 1893.0000 1.0000
27.7300 1901.0000 1.0000
27.7400 1863.0000 1.0000
27.7500 1805.0000 1.0000
27.7600 1764.0000 1.0000
27.7700 1792.0000 1.0000
27.7800 1794.0000 1.0000
27.7900 1771.0000 1.0000
27.8000 1727.0000 1.0000
27.8100 1738.0000 1.0000
27.8200 1763.0000 1.0000
27.8300 1686.0000 1.0000
27.8400 1712.0000 1.0000
27.8500 1709.0000 1.0000
27.8600 1710.0000 1.0000
27.8700 1705.0000 1.0000
27.8800 1703.0000 1.0000
27.8900 1638.0000 1.0000
27.9000 1645.0000 1.0000
27.9100 1595.0000 1.0000
27.9200 1651.0000 1.0000
27.9300 1653.0000 1.0000
27.9400 1686.0000 1.0000
27.9500 1619.0000 1.0000
27.9600 1640.0000 1.0000
27.9700 1614.0000 1.0000
27.9800 1681.0000 1.0000
27.9900 1613.0000 1.0000
28.0000 1656.0000 1.0000
28.0100 1619.0000 1.0000
28.0200 1594.0000 1.0000
28.0300 1592.0000 1.0000
28.0400 1614.0000 1.0000
28.0500 1618.0000 1.0000
28.0600 1603.0000 1.0000
28.0700 1604.0000 1.0000
28.0800 1586.0000 1.0000
28.0900 1586.0000 1.0000
28.1000 1654.0000 1.0000
28.1100 1618.0000 1.0000
28.1200 1627.0000 1.0000
28.1300 1533.0000 1.0000
28.1400 1599.0000 1.0000
28.1500 1609.0000 1.0000
28.1600 1608.0000 1.0000
28.1700 1603.0000 1.0000
28.1800 1577.0000 1.0000
28.1900 1548.0000 1.0000
28.2000 1608.0000 1.0000
28.2100 1579.0000 1.0000
28.2200 1606.0000 1.0000
28.2300 1541.0000 1.0000
28.2400 1552.0000 1.0000
28.2500 1531.0000 1.0000
28.2600 1585.0000 1.0000
28.2700 1486.0000 1.0000
28.2800 1520.0000 1.0000
28.2900 1519.0000 1.0000
28.3000 1513.0000 1.0000
28.3100 1567.0000 1.0000
28.3200 1547.0000 1.0000
28.3300 1524.0000 1.0000
28.3400 1520.0000 1.0000
28.3500 1531.0000 1.0000
28.3600 1490.0000 1.0000
28.3700 1518.0000 1.0000
28.3800 1553.0000 1.0000
28.3900 1485.0000 1.0000
28.4000 1572.0000 1.0000
28.4100 1512.0000 1.0000
28.4200 1496.0000 1.0000
28.4300 1569.0000 1.0000
28.4400 1565.0000 1.0000
28.4500 1524.0000 1.0000
28.4600 1531.0000 1.0000
28.4700 1516.0000 1.0000
28.4800 1528.0000 1.0000
28.4900 1501.0000 1.0000
28.5000 1531.0000 1.0000
28.5100 1506.0000 1.0000
28.5200 1568.0000 1.0000
28.5300 1487.0000 1.0000
28.5400 1516.0000 1.0000
28.5500 1550.0000 1.0000
28.5600 1519.0000 1.0000
28.5700 1534.0000 1.0000
28.5800 1490.0000 1.0000
28.5900 1558.0000 1.0000
28.6000 1504.0000 1.0000
28.6100 1510.0000 1.0000
28.6200 1496.0000 1.0000
28.6300 1504.0000 1.0000
28.6400 1485.0000 1.0000
28.6500 1467.0000 1.0000
28.6600 1500.0000 1.0000
28.6700 1512.0000 1.0000
28.6800 1477.0000 1.0000
28.6900 1517.0000 1.0000
28.7000 1523.0000 1.0000
28.7100 1523.0000 1.0000
28.7200 1481.0000 1.0000
28.7300 1492.0000 1.0000
28.7400 1453.0000 1.0000
28.7500 1504.0000 1.0000
28.7600 1464.0000 1.0000
28.7700 1528.0000 1.0000
28.7800 1528.0000 1.0000
28.7900 1546.0000 1.0000
28.8000 1523.0000 1.0000
28.8100 1528.0000 1.0000
28.8200 1549.0000 1.0000
28.8300 1481.0000 1.0000
28.8400 1593.0000 1.0000
28.8500 1499.0000 1.0000
28.8600 1481.0000 1.0000
28.8700 1497.0000 1.0000
28.8800 1513.0000 1.0000
28.8900 1490.0000 1.0000
28.9000 1541.0000 1.0000
28.9100 1474.0000 1.0000
28.9200 1533.0000 1.0000
28.9300 1491.0000 1.0000
28.9400 1490.0000 1.0000
28.9500 1511.0000 1.0000
28.9600 1475.0000 1.0000
28.9700 1473.0000 1.0000
28.9800 1465.0000 1.0000
28.9900 1456.0000 1.0000
29.0000 1467.0000 1.0000
29.0100 1444.0000 1.0000
29.0200 1433.0000 1.0000
29.0300 1504.0000 1.0000
29.0400 1465.0000 1.0000
29.0500 1506.0000 1.0000
29.0600 1498.0000 1.0000
29.0700 1457.0000 1.0000
29.0800 1448.0000 1.0000
29.0900 1524.0000 1.0000
29.1000 1486.0000 1.0000
29.1100 1452.0000 1.0000
29.1200 1444.0000 1.0000
29.1300 1488.0000 1.0000
29.1400 1448.0000 1.0000
29.1500 1445.0000 1.0000
29.1600 1441.0000 1.0000
29.1700 1527.0000 1.0000
29.1800 1435.0000 1.0000
29.1900 1419.0000 1.0000
29.2000 1449.0000 1.0000
29.2100 1442.0000 1.0000
29.2200 1480.0000 1.0000
29.2300 1498.0000 1.0000
29.2400 1422.0000 1.0000
29.2500 1416.0000 1.0000
29.2600 1463.0000 1.0000
29.2700 1446.0000 1.0000
29.2800 1441.0000 1.0000
29.2900 1522.0000 1.0000
29.3000 1470.0000 1.0000
29.3100 1431.0000 1.0000
29.3200 1448.0000 1.0000
29.3300 1449.0000 1.0000
29.3400 1481.0000 1.0000
29.3500 1500.0000 1.0000
29.3600 1454.0000 1.0000
29.3700 1494.0000 1.0000
29.3800 1449.0000 1.0000
29.3900 1466.0000 1.0000
29.4000 1377.0000 1.0000
29.4100 1419.0000 1.0000
29.4200 1425.0000 1.0000
29.4300 1409.0000 1.0000
29.4400 1441.0000 1.0000
29.4500 1464.0000 1.0000
29.4600 1435.0000 1.0000
29.4700 1439.0000 1.0000
29.4800 1433.0000 1.0000
29.4900 1470.0000 1.0000
29.5000 1423.0000 1.0000
29.5100 1437.0000 1.0000
29.5200 1414.0000 1.0000
29.5300 1466.0000 1.0000
29.5400 1467.0000 1.0000
29.5500 1411.0000 1.0000
29.5600 1470.0000 1.0000
29.5700 1483.0000 1.0000
29.5800 1420.0000 1.0000
29.5900 1504.0000 1.0000
29.6000 1471.0000 1.0000
29.6100 1421.0000 1.0000
29.6200 1447.0000 1.0000
29.6300 1448.0000 1.0000
29.6400 1517.0000 1.0000
29.6500 1482.0000 1.0000
29.6600 1457.0000 1.0000
29.6700 1429.0000 1.0000
29.6800 1470.0000 1.0000
29.6900 1477.0000 1.0000
29.7000 1457.0000 1.0000
29.7100 1402.0000 1.0000
29.7200 1453.0000 1.0000
29.7300 1481.0000 1.0000
29.7400 1448.0000 1.0000
29.7500 1452.0000 1.0000
29.7600 1421.0000 1.0000
29.7700 1394.0000 1.0000
29.7800 1416.0000 1.0000
29.7900 1387.0000 1.0000
29.8000 1461.0000 1.0000
29.8100 1443.0000 1.0000
29.8200 1482.0000 1.0000
29.8300 1464.0000 1.0000
29.8400 1445.0000 1.0000
29.8500 1397.0000 1.0000
29.8600 1407.0000 1.0000
29.8700 1426.0000 1.0000
29.8800 1433.0000 1.0000
29.8900 1401.0000 1.0000
29.9000 1417.0000 1.0000
29.9100 1433.0000 1.0000
29.9200 1466.0000 1.0000
29.9300 1420.0000 1.0000
29.9400 1371.0000 1.0000
29.9500 1444.0000 1.0000
29.9600 1432.0000 1.0000
29.9700 1420.0000 1.0000
29.9800 1415.0000 1.0000
29.9900 1407.0000 1.0000
30.0000 1497.0000 1.0000
30.0100 1438.0000 1.0000
30.0200 1426.0000 1.0000
30.0300 1427.0000 1.0000
30.0400 1381.0000 1.0000
30.0500 1425.0000 1.0000
30.0600 1446.0000 1.0000
30.0700 1492.0000 1.0000
30.0800 1426.0000 1.0000
30.0900 1395.0000 1.0000
30.1000 1465.0000 1.0000
30.1100 1489.0000 1.0000
30.1200 1410.0000 1.0000
30.1300 1390.0000 1.0000
30.1400 1418.0000 1.0000
30.1500 1390.0000 1.0000
30.1600 1428.0000 1.0000
30.1700 1373.0000 1.0000
30.1800 1376.0000 1.0000
30.1900 1401.0000 1.0000
30.2000 1382.0000 1.0000
30.2100 1421.0000 1.0000
30.2200 1397.0000 1.0000
30.2300 1401.0000 1.0000
30.2400 1436.0000 1.0000
30.2500 1377.0000 1.0000
30.2600 1414.0000 1.0000
30.2700 1312.0000 1.0000
30.2800 1375.0000 1.0000
30.2900 1434.0000 1.0000
30.3000 1397.0000 1.0000
30.3100 1423.0000 1.0000
30.3200 1424.0000 1.0000
30.3300 1441.0000 1.0000
30.3400 1435.0000 1.0000
30.3500 1372.0000 1.0000
30.3600 1444.0000 1.0000
30.3700 1350.0000 1.0000
30.3800 1348.0000 1.0000
30.3900 1409.0000 1.0000
30.4000 1399.0000 1.0000
30.4100 1400.0000 1.0000
30.4200 1430.0000 1.0000
30.4300 1366.0000 1.0000
30.4400 1339.0000 1.0000
30.4500 1359.0000 1.0000
30.4600 1378.0000 1.0000
30.4700 1420.0000 1.0000
30.4800 1389.0000 1.0000
30.4900 1424.0000 1.0000
30.5000 1383.0000 1.0000
30.5100 1381.0000 1.0000
30.5200 1379.0000 1.0000
30.5300 1394.0000 1.0000
30.5400 1388.0000 1.0000
30.5500 1424.0000 1.0000
30.5600 1426.0000 1.0000
30.5700 1438.0000 1.0000
30.5800 1430.0000 1.0000
30.5900 1384.0000 1.0000
30.6000 1372.0000 1.0000
30.6100 1336.0000 1.0000
30.6200 1391.0000 1.0000
30.6300 1344.0000 1.0000
30.6400 1355.0000 1.0000
30.6500 1388.0000 1.0000
30.6600 1373.0000 1.0000
30.6700 1379.0000 1.0000
30.6800 1428.0000 1.0000
30.6900 1364.0000 1.0000
30.7000 1381.0000 1.0000
30.7100 1404.0000 1.0000
30.7200 1381.0000 1.0000
30.7300 1372.0000 1.0000
30.7400 1365.0000 1.0000
30.7500 1441.0000 1.0000
30.7600 1378.0000 1.0000
30.7700 1372.0000 1.0000
30.7800 1349.0000 1.0000
30.7900 1428.0000 1.0000
30.8000 1397.0000 1.0000
30.8100 1422.0000 1.0000
30.8200 1378.0000 1.0000
30.8300 1381.0000 1.0000
30.8400 1355.0000 1.0000
30.8500 1331.0000 1.0000
30.8600 1366.0000 1.0000
30.8700 1342.0000 1.0000
30.8800 1342.0000 1.0000
30.8900 1346.0000 1.0000
30.9000 1367.0000 1.0000
30.9100 1345.0000 1.0000
30.9200 1350.0000 1.0000
30.9300 1349.0000 1.0000
30.9400 1369.0000 1.0000
30.9500 1355.0000 1.0000
30.9600 1369.0000 1.0000
30.9700 1375.0000 1.0000
30.9800 1372.0000 1.0000
30.9900 1368.0000 1.0000
31.0000 1367.0000 1.0000
31.0100 1409.0000 1.0000
31.0200 1357.0000 1.0000
31.0300 1413.0000 1.0000
31.0400 1375.0000 1.0000
31.0500 1328.0000 1.0000
31.0600 1370.0000 1.0000
31.0700 1395.0000 1.0000
31.0800 1366.0000 1.0000
31.0900 1324.0000 1.0000
31.1000 1379.0000 1.0000
31.1100 1381.0000 1.0000
31.1200 1378.0000 1.0000
31.1300 1381.0000 1.0000
31.1400 1384.0000 1.0000
31.1500 1350.0000 1.0000
31.1600 1380.0000 1.0000
31.1700 1366.0000 1.0000
31.1800 1385.0000 1.0000
31.1900 1357.0000 1.0000
31.2000 1354.0000 1.0000
31.2100 1408.0000 1.0000
31.2200 1342.0000 1.0000
31.2300 1366.0000 1.0000
31.2400 1379.0000 1.0000
31.2500 1352.0000 1.0000
31.2600 1389.0000 1.0000
31.2700 1400.0000 1.0000
31.2800 1327.0000 1.0000
31.2900 1337.0000 1.0000
31.3000 1391.0000 1.0000
31.3100 1331.0000 1.0000
31.3200 1381.0000 1.0000
31.3300 1356.0000 1.0000
31.3400 1322.0000 1.0000
31.3500 1351.0000 1.0000
31.3600 1373.0000 1.0000
31.3700 1392.0000 1.0000
31.3800 1355.0000 1.0000
31.3900 1360.0000 1.0000
31.4000 1341.0000 1.0000
31.4100 1314.0000 1.0000
31.4200 1308.0000 1.0000
31.4300 1334.0000 1.0000
31.4400 1362.0000 1.0000
31.4500 1325.0000 1.0000
31.4600 1442.0000 1.0000
31.4700 1313.0000 1.0000
31.4800 1296.0000 1.0000
31.4900 1366.0000 1.0000
31.5000 1302.0000 1.0000
31.5100 1367.0000 1.0000
31.5200 1372.0000 1.0000
31.5300 1340.0000 1.0000
31.5400 1293.0000 1.0000
31.5500 1317.0000 1.0000
31.5600 1325.0000 1.0000
31.5700 1311.0000 1.0000
31.5800 1328.0000 1.0000
31.5900 1270.0000 1.0000
31.6000 1360.0000 1.0000
31.6100 1307.0000 1.0000
31.6200 1289.0000 1.0000
31.6300 1309.0000 1.0000
31.6400 1306.0000 1.0000
31.6500 1232.0000 1.0000
31.6600 1251.0000 1.0000
31.6700 1342.0000 1.0000
31.6800 1323.0000 1.0000
31.6900 1321.0000 1.0000
31.7000 1325.0000 1.0000
31.7100 1339.0000 1.0000
31.7200 1359.0000 1.0000
31.7300 1327.0000 1.0000
31.7400 1384.0000 1.0000
31.7500 1320.0000 1.0000
31.7600 1344.0000 1.0000
31.7700 1356.0000 1.0000
31.7800 1233.0000 1.0000
31.7900 1306.0000 1.0000
31.8000 1381.0000 1.0000
31.8100 1303.0000 1.0000
31.8200 1320.0000 1.0000
31.8300 1312.0000 1.0000
31.8400 1340.0000 1.0000
31.8500 1368.0000 1.0000
31.8600 1359.0000 1.0000
31.8700 1295.0000 1.0000
31.8800 1315.0000 1.0000
31.8900 1340.0000 1.0000
31.9000 1398.0000 1.0000
31.9100 1356.0000 1.0000
31.9200 1345.0000 1.0000
31.9300 1355.0000 1.0000
31.9400 1407.0000 1.0000
31.9500 1385.0000 1.0000
31.9600 1420.0000 1.0000
31.9700 1413.0000 1.0000
31.9800 1423.0000 1.0000
31.9900 1371.0000 1.0000
32.0000 1320.0000 1.0000
32.0100 1380.0000 1.0000
32.0200 1393.0000 1.0000
32.0300 1285.0000 1.0000
32.0400 1277.0000 1.0000
32.0500 1337.0000 1.0000
32.0600 1367.0000 1.0000
32.0700 1342.0000 1.0000
32.0800 1390.0000 1.0000
32.0900 1337.0000 1.0000
32.1000 1334.0000 1.0000
32.1100 1348.0000 1.0000
32.1200 1394.0000 1.0000
32.1300 1317.0000 1.0000
32.1400 1349.0000 1.0000
32.1500 1323.0000 1.0000
32.1600 1331.0000 1.0000
32.1700 1293.0000 1.0000
32.1800 1326.0000 1.0000
32.1900 1294.0000 1.0000
32.2000 1291.0000 1.0000
32.2100 1264.0000 1.0000
32.2200 1295.0000 1.0000
32.2300 1335.0000 1.0000
32.2400 1296.0000 1.0000
32.2500 1329.0000 1.0000
32.2600 1308.0000 1.0000
32.2700 1277.0000 1.0000
32.2800 1287.0000 1.0000
32.2900 1302.0000 1.0000
32.3000 1278.0000 1.0000
32.3100 1338.0000 1.0000
32.3200 1336.0000 1.0000
32.3300 1295.0000 1.0000
32.3400 1313.0000 1.0000
32.3500 1287.0000 1.0000
32.3600 1331.0000 1.0000
32.3700 1266.0000 1.0000
32.3800 1319.0000 1.0000
32.3900 1338.0000 1.0000
32.4000 1283.0000 1.0000
32.4100 1261.0000 1.0000
32.4200 1282.0000 1.0000
32.4300 1336.0000 1.0000
32.4400 1296.0000 1.0000
32.4500 1319.0000 1.0000
32.4600 1305.0000 1.0000
32.4700 1348.0000 1.0000
32.4800 1253.0000 1.0000
32.4900 1333.0000 1.0000
32.5000 1296.0000 1.0000
32.5100 1229.0000 1.0000
32.5200 1267.0000 1.0000
32.5300 1279.0000 1.0000
32.5400 1252.0000 1.0000
32.5500 1284.0000 1.0000
32.5600 1252.0000 1.0000
32.5700 1305.0000 1.0000
32.5800 1279.0000 1.0000
32.5900 1363.0000 1.0000
32.6000 1275.0000 1.0000
32.6100 1311.0000 1.0000
32.6200 1268.0000 1.0000
32.6300 1250.0000 1.0000
32.6400 1268.0000 1.0000
32.6500 1305.0000 1.0000
32.6600 1199.0000 1.0000
32.6700 1290.0000 1.0000
32.6800 1228.0000 1.0000
32.6900 1347.0000 1.0000
32.7000 1243.0000 1.0000
32.7100 1246.0000 1.0000
32.7200 1247.0000 1.0000
32.7300 1230.0000 1.0000
32.7400 1216.0000 1.0000
32.7500 1279.0000 1.0000
32.7600 1274.0000 1.0000
32.7700 1268.0000 1.0000
32.7800 1220.0000 1.0000
32.7900 1194.0000 1.0000
32.8000 1244.0000 1.0000
32.8100 1278.0000 1.0000
32.8200 1274.0000 1.0000
32.8300 1254.0000 1.0000
32.8400 1283.0000 1.0000
32.8500 1267.0000 1.0000
32.8600 1241.0000 1.0000
32.8700 1257.0000 1.0000
32.8800 1296.0000 1.0000
32.8900 1267.0000 1.0000
32.9000 1219.0000 1.0000
32.9100 1155.0000 1.0000
32.9200 1272.0000 1.0000
32.9300 1263.0000 1.0000
32.9400 1280.0000 1.0000
32.9500 1289.0000 1.0000
32.9600 1240.0000 1.0000
32.9700 1278.0000 1.0000
32.9800 1263.0000 1.0000
32.9900 1213.0000 1.0000
33.0000 1275.0000 1.0000
33.0100 1248.0000 1.0000
33.0200 1266.0000 1.0000
33.0300 1258.0000 1.0000
33.0400 1242.0000 1.0000
33.0500 1210.0000 1.0000
33.0600 1204.0000 1.0000
33.0700 1231.0000 1.0000
33.0800 1215.0000 1.0000
33.0900 1244.0000 1.0000
33.1000 1219.0000 1.0000
33.1100 1207.0000 1.0000
33.1200 1254.0000 1.0000
33.1300 1231.0000 1.0000
33.1400 1217.0000 1.0000
33.1500 1197.0000 1.0000
33.1600 1295.0000 1.0000
33.1700 1289.0000 1.0000
33.1800 1292.0000 1.0000
33.1900 1276.0000 1.0000
33.2000 1197.0000 1.0000
33.2100 1237.0000 1.0000
33.2200 1221.0000 1.0000
33.2300 1260.0000 1.0000
33.2400 1187.0000 1.0000
33.2500 1247.0000 1.0000
33.2600 1257.0000 1.0000
33.2700 1236.0000 1.0000
33.2800 1230.0000 1.0000
33.2900 1248.0000 1.0000
33.3000 1282.0000 1.0000
33.3100 1215.0000 1.0000
33.3200 1283.0000 1.0000
33.3300 1235.0000 1.0000
33.3400 1207.0000 1.0000
33.3500 1260.0000 1.0000
33.3600 1234.0000 1.0000
33.3700 1296.0000 1.0000
33.3800 1232.0000 1.0000
33.3900 1210.0000 1.0000
33.4000 1267.0000 1.0000
33.4100 1257.0000 1.0000
33.4200 1262.0000 1.0000
33.4300 1226.0000 1.0000
33.4400 1275.0000 1.0000
33.4500 1312.0000 1.0000
33.4600 1253.0000 1.0000
33.4700 1255.0000 1.0000
33.4800 1252.0000 1.0000
33.4900 1202.0000 1.0000
33.5000 1275.0000 1.0000
33.5100 1278.0000 1.0000
33.5200 1259.0000 1.0000
33.5300 1305.0000 1.0000
33.5400 1283.0000 1.0000
33.5500 1264.0000 1.0000
33.5600 1279.0000 1.0000
33.5700 1255.0000 1.0000
33.5800 1230.0000 1.0000
33.5900 1287.0000 1.0000
33.6000 1256.0000 1.0000
33.6100 1231.0000 1.0000
33.6200 1269.0000 1.0000
33.6300 1255.0000 1.0000
33.6400 1221.0000 1.0000
33.6500 1239.0000 1.0000
33.6600 1290.0000 1.0000
33.6700 1324.0000 1.0000
33.6800 1272.0000 1.0000
33.6900 1306.0000 1.0000
33.7000 1287.0000 1.0000
33.7100 1242.0000 1.0000
33.7200 1264.0000 1.0000
33.7300 1233.0000 1.0000
33.7400 1308.0000 1.0000
33.7500 1286.0000 1.0000
33.7600 1300.0000 1.0000
33.7700 1364.0000 1.0000
33.7800 1347.0000 1.0000
33.7900 1321.0000 1.0000
33.8000 1350.0000 1.0000
33.8100 1361.0000 1.0000
33.8200 1320.0000 1.0000
33.8300 1324.0000 1.0000
33.8400 1336.0000 1.0000
33.8500 1368.0000 1.0000
33.8600 1325.0000 1.0000
33.8700 1338.0000 1.0000
33.8800 1299.0000 1.0000
33.8900 1353.0000 1.0000
33.9000 1279.0000 1.0000
33.9100 1396.0000 1.0000
33.9200 1413.0000 1.0000
33.9300 1291.0000 1.0000
33.9400 1325.0000 1.0000
33.9500 1347.0000 1.0000
33.9600 1299.0000 1.0000
33.9700 1377.0000 1.0000
33.9800 1399.0000 1.0000
33.9900 1378.0000 1.0000
34.0000 1392.0000 1.0000
34.0100 1402.0000 1.0000
34.0200 1367.0000 1.0000
34.0300 1422.0000 1.0000
34.0400 1403.0000 1.0000
34.0500 1447.0000 1.0000
34.0600 1440.0000 1.0000
34.0700 1395.0000 1.0000
34.0800 1388.0000 1.0000
34.0900 1367.0000 1.0000
34.1000 1424.0000 1.0000
34.1100 1460.0000 1.0000
34.1200 1470.0000 1.0000
34.1300 1392.0000 1.0000
34.1400 1442.0000 1.0000
34.1500 1447.0000 1.0000
34.1600 1414.0000 1.0000
34.1700 1471.0000 1.0000
34.1800 1518.0000 1.0000
34.1900 1511.0000 1.0000
34.2000 1482.0000 1.0000
34.2100 1540.0000 1.0000
34.2200 1546.0000 1.0000
34.2300 1549.0000 1.0000
34.2400 1612.0000 1.0000
34.2500 1702.0000 1.0000
34.2600 1667.0000 1.0000
34.2700 1726.0000 1.0000
34.2800 1738.0000 1.0000
34.2900 1795.0000 1.0000
34.3000 1898.0000 1.0000
34.3100 1883.0000 1.0000
34.3200 1921.0000 1.0000
34.3300 1922.0000 1.0000
34.3400 2050.0000 1.0000
34.3500 2109.0000 1.0000
34.3600 2178.0000 1.0000
34.3700 2291.0000 1.0000
34.3800 2379.0000 1.0000
34.3900 2470.0000 1.0000
34.4000 2640.0000 1.0000
34.4100 2752.0000 1.0000
34.4200 2848.0000 1.0000
34.4300 2961.0000 1.0000
34.4400 3133.0000 1.0000
34.4500 3187.0000 1.0000
34.4600 3305.0000 1.0000
34.4700 3343.0000 1.0000
34.4800 3473.0000 1.0000
34.4900 3511.0000 1.0000
34.5000 3447.0000 1.0000
34.5100 3565.0000 1.0000
34.5200 3412.0000 1.0000
34.5300 3367.0000 1.0000
34.5400 3324.0000 1.0000
34.5500 3216.0000 1.0000
34.5600 3144.0000 1.0000
34.5700 3041.0000 1.0000
34.5800 2902.0000 1.0000
34.5900 2869.0000 1.0000
34.6000 2651.0000 1.0000
34.6100 2592.0000 1.0000
34.6200 2512.0000 1.0000
34.6300 2449.0000 1.0000
34.6400 2339.0000 1.0000
34.6500 2172.0000 1.0000
34.6600 2099.0000 1.0000
34.6700 2020.0000 1.0000
34.6800 1921.0000 1.0000
34.6900 1879.0000 1.0000
34.7000 1842.0000 1.0000
34.7100 1748.0000 1.0000
34.7200 1757.0000 1.0000
34.7300 1686.0000 1.0000
34.7400 1678.0000 1.0000
34.7500 1681.0000 1.0000
34.7600 1590.0000 1.0000
34.7700 1596.0000 1.0000
34.7800 1601.0000 1.0000
34.7900 1526.0000 1.0000
34.8000 1477.0000 1.0000
34.8100 1452.0000 1.0000
34.8200 1383.0000 1.0000
34.8300 1383.0000 1.0000
34.8400 1389.0000 1.0000
34.8500 1345.0000 1.0000
34.8600 1382.0000 1.0000
34.8700 1349.0000 1.0000
34.8800 1355.0000 1.0000
34.8900 1306.0000 1.0000
34.9000 1359.0000 1.0000
34.9100 1314.0000 1.0000
34.9200 1301.0000 1.0000
34.9300 1269.0000 1.0000
34.9400 1287.0000 1.0000
34.9500 1246.0000 1.0000
34.9600 1351.0000 1.0000
34.9700 1291.0000 1.0000
34.9800 1288.0000 1.0000
34.9900 1227.0000 1.0000
35.0000 1222.0000 1.0000
35.0100 1273.0000 1.0000
35.0200 1148.0000 1.0000
35.0300 1240.0000 1.0000
35.0400 1248.0000 1.0000
35.0500 1221.0000 1.0000
35.0600 1152.0000 1.0000
35.0700 1179.0000 1.0000
35.0800 1201.0000 1.0000
35.0900 1194.0000 1.0000
35.1000 1161.0000 1.0000
35.1100 1171.0000 1.0000
35.1200 1147.0000 1.0000
35.1300 1139.0000 1.0000
35.1400 1152.0000 1.0000
35.1500 1142.0000 1.0000
35.1600 1193.0000 1.0000
35.1700 1157.0000 1.0000
35.1800 1161.0000 1.0000
35.1900 1184.0000 1.0000
35.2000 1178.0000 1.0000
35.2100 1174.0000 1.0000
35.2200 1150.0000 1.0000
35.2300 1120.0000 1.0000
35.2400 1129.0000 1.0000
35.2500 1151.0000 1.0000
35.2600 1142.0000 1.0000
35.2700 1186.0000 1.0000
35.2800 1134.0000 1.0000
35.2900 1141.0000 1.0000
35.3000 1154.0000 1.0000
35.3100 1113.0000 1.0000
35.3200 1110.0000 1.0000
35.3300 1153.0000 1.0000
35.3400 1131.0000 1.0000
35.3500 1154.0000 1.0000
35.3600 1055.0000 1.0000
35.3700 1139.0000 1.0000
35.3800 1121.0000 1.0000
35.3900 1089.0000 1.0000
35.4000 1095.0000 1.0000
35.4100 1106.0000 1.0000
35.4200 1106.0000 1.0000
35.4300 1047.0000 1.0000
35.4400 1145.0000 1.0000
35.4500 1139.0000 1.0000
35.4600 1101.0000 1.0000
35.4700 1063.0000 1.0000
35.4800 1079.0000 1.0000
35.4900 1082.0000 1.0000
35.5000 1105.0000 1.0000
35.5100 1069.0000 1.0000
35.5200 1120.0000 1.0000
35.5300 1041.0000 1.0000
35.5400 1085.0000 1.0000
35.5500 1066.0000 1.0000
35.5600 1084.0000 1.0000
35.5700 1109.0000 1.0000
35.5800 1095.0000 1.0000
35.5900 1075.0000 1.0000
35.6000 1042.0000 1.0000
35.6100 1072.0000 1.0000
35.6200 1060.0000 1.0000
35.6300 1068.0000 1.0000
35.6400 1078.0000 1.0000
35.6500 1072.0000 1.0000
35.6600 1046.0000 1.0000
35.6700 1028.0000 1.0000
35.6800 1043.0000 1.0000
35.6900 1038.0000 1.0000
35.7000 1032.0000 1.0000
35.7100 1090.0000 1.0000
35.7200 1093.0000 1.0000
35.7300 1044.0000 1.0000
35.7400 1094.0000 1.0000
35.7500 1108.0000 1.0000
35.7600 1070.0000 1.0000
35.7700 1068.0000 1.0000
35.7800 1068.0000 1.0000
35.7900 1106.0000 1.0000
35.8000 1066.0000 1.0000
35.8100 1105.0000 1.0000
35.8200 1034.0000 1.0000
35.8300 1092.0000 1.0000
35.8400 1071.0000 1.0000
35.8500 1061.0000 1.0000
35.8600 1005.0000 1.0000
35.8700 1004.0000 1.0000
35.8800 1023.0000 1.0000
35.8900 1002.0000 1.0000
35.9000 1049.0000 1.0000
35.9100 1039.0000 1.0000
35.9200 1042.0000 1.0000
35.9300 1045.0000 1.0000
35.9400 1043.0000 1.0000
35.9500 1073.0000 1.0000
35.9600 1075.0000 1.0000
35.9700 1050.0000 1.0000
35.9800 1057.0000 1.0000
35.9900 1025.0000 1.0000
36.0000 1091.0000 1.0000
36.0100 1044.0000 1.0000
36.0200 1081.0000 1.0000
36.0300 1095.0000 1.0000
36.0400 1051.0000 1.0000
36.0500 1048.0000 1.0000
36.0600 1073.0000 1.0000
36.0700 1065.0000 1.0000
36.0800 1106.0000 1.0000
36.0900 1085.0000 1.0000
36.1000 1036.0000 1.0000
36.1100 1092.0000 1.0000
36.1200 1052.0000 1.0000
36.1300 1055.0000 1.0000
36.1400 1073.0000 1.0000
36.1500 1068.0000 1.0000
36.1600 1070.0000 1.0000
36.1700 1072.0000 1.0000
36.1800 1065.0000 1.0000
36.1900 1064.0000 1.0000
36.2000 1096.0000 1.0000
36.2100 1110.0000 1.0000
36.2200 1115.0000 1.0000
36.2300 1094.0000 1.0000
36.2400 1082.0000 1.0000
36.2500 1128.0000 1.0000
36.2600 1105.0000 1.0000
36.2700 1137.0000 1.0000
36.2800 1145.0000 1.0000
36.2900 1108.0000 1.0000
36.3000 1130.0000 1.0000
36.3100 1109.0000 1.0000
36.3200 1135.0000 1.0000
36.3300 1201.0000 1.0000
36.3400 1117.0000 1.0000
36.3500 1212.0000 1.0000
36.3600 1229.0000 1.0000
36.3700 1150.0000 1.0000
36.3800 1151.0000 1.0000
36.3900 1224.0000 1.0000
36.4000 1209.0000 1.0000
36.4100 1212.0000 1.0000
36.4200 1207.0000 1.0000
36.4300 1186.0000 1.0000
36.4400 1213.0000 1.0000
36.4500 1173.0000 1.0000
36.4600 1202.0000 1.0000
36.4700 1148.0000 1.0000
36.4800 1132.0000 1.0000
36.4900 1097.0000 1.0000
36.5000 1175.0000 1.0000
36.5100 1177.0000 1.0000
36.5200 1174.0000 1.0000
36.5300 1152.0000 1.0000
36.5400 1163.0000 1.0000
36.5500 1064.0000 1.0000
36.5600 1086.0000 1.0000
36.5700 1117.0000 1.0000
36.5800 1069.0000 1.0000
36.5900 1114.0000 1.0000
36.6000 1115.0000 1.0000
36.6100 1088.0000 1.0000
36.6200 1013.0000 1.0000
36.6300 1088.0000 1.0000
36.6400 1040.0000 1.0000
36.6500 1035.0000 1.0000
36.6600 1130.0000 1.0000
36.6700 1037.0000 1.0000
36.6800 1007.0000 1.0000
36.6900 1035.0000 1.0000
36.7000 988.0000 1.0000
36.7100 1019.0000 1.0000
36.7200 1074.0000 1.0000
36.7300 1060.0000 1.0000
36.7400 1024.0000 1.0000
36.7500 1017.0000 1.0000
36.7600 983.0000 1.0000
36.7700 987.0000 1.0000
36.7800 1010.0000 1.0000
36.7900 1030.0000 1.0000
36.8000 980.0000 1.0000
36.8100 996.0000 1.0000
36.8200 934.0000 1.0000
36.8300 967.0000 1.0000
36.8400 996.0000 1.0000
36.8500 980.0000 1.0000
36.8600 982.0000 1.0000
36.8700 960.0000 1.0000
36.8800 990.0000 1.0000
36.8900 988.0000 1.0000
36.9000 945.0000 1.0000
36.9100 975.0000 1.0000
36.9200 971.0000 1.0000
36.9300 948.0000 1.0000
36.9400 978.0000 1.0000
36.9500 1016.0000 1.0000
36.9600 1041.0000 1.0000
36.9700 985.0000 1.0000
36.9800 999.0000 1.0000
36.9900 1014.0000 1.0000
37.0000 975.0000 1.0000
37.0100 957.0000 1.0000
37.0200 965.0000 1.0000
37.0300 1023.0000 1.0000
37.0400 948.0000 1.0000
37.0500 971.0000 1.0000
37.0600 1011.0000 1.0000
37.0700 967.0000 1.0000
37.0800 997.0000 1.0000
37.0900 991.0000 1.0000
37.1000 999.0000 1.0000
37.1100 983.0000 1.0000
37.1200 1018.0000 1.0000
37.1300 981.0000 1.0000
37.1400 962.0000 1.0000
37.1500 1012.0000 1.0000
37.1600 929.0000 1.0000
37.1700 952.0000 1.0000
37.1800 968.0000 1.0000
37.1900 930.0000 1.0000
37.2000 921.0000 1.0000
37.2100 949.0000 1.0000
37.2200 994.0000 1.0000
37.2300 988.0000 1.0000
37.2400 946.0000 1.0000
37.2500 958.0000 1.0000
37.2600 958.0000 1.0000
37.2700 958.0000 1.0000
37.2800 984.0000 1.0000
37.2900 1003.0000 1.0000
37.3000 946.0000 1.0000
37.3100 965.0000 1.0000
37.3200 959.0000 1.0000
37.3300 1002.0000 1.0000
37.3400 946.0000 1.0000
37.3500 982.0000 1.0000
37.3600 933.0000 1.0000
37.3700 954.0000 1.0000
37.3800 964.0000 1.0000
37.3900 960.0000 1.0000
37.4000 981.0000 1.0000
37.4100 960.0000 1.0000
37.4200 956.0000 1.0000
37.4300 967.0000 1.0000
37.4400 959.0000 1.0000
37.4500 975.0000 1.0000
37.4600 988.0000 1.0000
37.4700 993.0000 1.0000
37.4800 963.0000 1.0000
37.4900 947.0000 1.0000
37.5000 941.0000 1.0000
37.5100 940.0000 1.0000
37.5200 993.0000 1.0000
37.5300 953.0000 1.0000
37.5400 978.0000 1.0000
37.5500 979.0000 1.0000
37.5600 934.0000 1.0000
37.5700 991.0000 1.0000
37.5800 1003.0000 1.0000
37.5900 940.0000 1.0000
37.6000 965.0000 1.0000
37.6100 975.0000 1.0000
37.6200 965.0000 1.0000
37.6300 985.0000 1.0000
37.6400 978.0000 1.0000
37.6500 944.0000 1.0000
37.6600 942.0000 1.0000
37.6700 922.0000 1.0000
37.6800 950.0000 1.0000
37.6900 984.0000 1.0000
37.7000 986.0000 1.0000
37.7100 965.0000 1.0000
37.7200 990.0000 1.0000
37.7300 960.0000 1.0000
37.7400 938.0000 1.0000
37.7500 991.0000 1.0000
37.7600 1009.0000 1.0000
37.7700 985.0000 1.0000
37.7800 1003.0000 1.0000
37.7900 1012.0000 1.0000
37.8000 1002.0000 1.0000
37.8100 940.0000 1.0000
37.8200 936.0000 1.0000
37.8300 978.0000 1.0000
37.8400 1016.0000 1.0000
37.8500 996.0000 1.0000
37.8600 1045.0000 1.0000
37.8700 1029.0000 1.0000
37.8800 1020.0000 1.0000
37.8900 949.0000 1.0000
37.9000 998.0000 1.0000
37.9100 1014.0000 1.0000
37.9200 985.0000 1.0000
37.9300 961.0000 1.0000
37.9400 1035.0000 1.0000
37.9500 991.0000 1.0000
37.9600 998.0000 1.0000
37.9700 1010.0000 1.0000
37.9800 988.0000 1.0000
37.9900 950.0000 1.0000
38.0000 1095.0000 1.0000
38.0100 1074.0000 1.0000
38.0200 1052.0000 1.0000
38.0300 1018.0000 1.0000
38.0400 1060.0000 1.0000
38.0500 1038.0000 1.0000
38.0600 1043.0000 1.0000
38.0700 1045.0000 1.0000
38.0800 1105.0000 1.0000
38.0900 1116.0000 1.0000
38.1000 1093.0000 1.0000
38.1100 1087.0000 1.0000
38.1200 1151.0000 1.0000
38.1300 1147.0000 1.0000
38.1400 1203.0000 1.0000
38.1500 1304.0000 1.0000
38.1600 1214.0000 1.0000
38.1700 1264.0000 1.0000
38.1800 1301.0000 1.0000
38.1900 1280.0000 1.0000
38.2000 1366.0000 1.0000
38.2100 1351.0000 1.0000
38.2200 1374.0000 1.0000
38.2300 1398.0000 1.0000
38.2400 1435.0000 1.0000
38.2500 1540.0000 1.0000
38.2600 1611.0000 1.0000
38.2700 1661.0000 1.0000
38.2800 1669.0000 1.0000
38.2900 1787.0000 1.0000
38.3000 1821.0000 1.0000
38.3100 1946.0000 1.0000
38.3200 1986.0000 1.0000
38.3300 2098.0000 1.0000
38.3400 2249.0000 1.0000
38.3500 2324.0000 1.0000
38.3600 2447.0000 1.0000
38.3700 2617.0000 1.0000
38.3800 2807.0000 1.0000
38.3900 3027.0000 1.0000
38.4000 3212.0000 1.0000
38.4100 3429.0000 1.0000
38.4200 3712.0000 1.0000
38.4300 3894.0000 1.0000
38.4400 4293.0000 1.0000
38.4500 4573.0000 1.0000
38.4600 4922.0000 1.0000
38.4700 5169.0000 1.0000
38.4800 5469.0000 1.0000
38.4900 5787.0000 1.0000
38.5000 5920.0000 1.0000
38.5100 6052.0000 1.0000
38.5200 6229.0000 1.0000
38.5300 6217.0000 1.0000
38.5400 6262.0000 1.0000
38.5500 6149.0000 1.0000
38.5600 6113.0000 1.0000
38.5700 5999.0000 1.0000
38.5800 5812.0000 1.0000
38.5900 5558.0000 1.0000
38.6000 5533.0000 1.0000
38.6100 5132.0000 1.0000
38.6200 5041.0000 1.0000
38.6300 4764.0000 1.0000
38.6400 4522.0000 1.0000
38.6500 4127.0000 1.0000
38.6600 4045.0000 1.0000
38.6700 3768.0000 1.0000
38.6800 3577.0000 1.0000
38.6900 3279.0000 1.0000
38.7000 3062.0000 1.0000
38.7100 2896.0000 1.0000
38.7200 2674.0000 1.0000
38.7300 2516.0000 1.0000
38.7400 2351.0000 1.0000
38.7500 2207.0000 1.0000
38.7600 2104.0000 1.0000
38.7700 2027.0000 1.0000
38.7800 1902.0000 1.0000
38.7900 1729.0000 1.0000
38.8000 1693.0000 1.0000
38.8100 1658.0000 1.0000
38.8200 1574.0000 1.0000
38.8300 1560.0000 1.0000
38.8400 1459.0000 1.0000
38.8500 1384.0000 1.0000
38.8600 1428.0000 1.0000
38.8700 1296.0000 1.0000
38.8800 1338.0000 1.0000
38.8900 1242.0000 1.0000
38.9000 1283.0000 1.0000
38.9100 1222.0000 1.0000
38.9200 1160.0000 1.0000
38.9300 1091.0000 1.0000
38.9400 1078.0000 1.0000
38.9500 1090.0000 1.0000
38.9600 1089.0000 1.0000
38.9700 1059.0000 1.0000
38.9800 1093.0000 1.0000
38.9900 1036.0000 1.0000
39.0000 1040.0000 1.0000
39.0100 1043.0000 1.0000
39.0200 985.0000 1.0000
39.0300 1005.0000 1.0000
39.0400 998.0000 1.0000
39.0500 921.0000 1.0000
39.0600 965.0000 1.0000
39.0700 983.0000 1.0000
39.0800 983.0000 1.0000
39.0900 951.0000 1.0000
39.1000 938.0000 1.0000
39.1100 925.0000 1.0000
39.1200 929.0000 1.0000
39.1300 954.0000 1.0000
39.1400 980.0000 1.0000
39.1500 968.0000 1.0000
39.1600 958.0000 1.0000
39.1700 925.0000 1.0000
39.1800 883.0000 1.0000
39.1900 893.0000 1.0000
39.2000 927.0000 1.0000
39.2100 904.0000 1.0000
39.2200 887.0000 1.0000
39.2300 937.0000 1.0000
39.2400 906.0000 1.0000
39.2500 828.0000 1.0000
39.2600 882.0000 1.0000
39.2700 966.0000 1.0000
39.2800 868.0000 1.0000
39.2900 898.0000 1.0000
39.3000 923.0000 1.0000
39.3100 917.0000 1.0000
39.3200 879.0000 1.0000
39.3300 888.0000 1.0000
39.3400 840.0000 1.0000
39.3500 850.0000 1.0000
39.3600 930.0000 1.0000
39.3700 883.0000 1.0000
39.3800 899.0000 1.0000
39.3900 913.0000 1.0000
39.4000 908.0000 1.0000
39.4100 894.0000 1.0000
39.4200 890.0000 1.0000
39.4300 843.0000 1.0000
39.4400 863.0000 1.0000
39.4500 877.0000 1.0000
39.4600 897.0000 1.0000
39.4700 874.0000 1.0000
39.4800 917.0000 1.0000
39.4900 897.0000 1.0000
39.5000 858.0000 1.0000
39.5100 923.0000 1.0000
39.5200 958.0000 1.0000
39.5300 894.0000 1.0000
39.5400 868.0000 1.0000
39.5500 910.0000 1.0000
39.5600 919.0000 1.0000
39.5700 944.0000 1.0000
39.5800 954.0000 1.0000
39.5900 935.0000 1.0000
39.6000 858.0000 1.0000
39.6100 936.0000 1.0000
39.6200 915.0000 1.0000
39.6300 935.0000 1.0000
39.6400 899.0000 1.0000
39.6500 911.0000 1.0000
39.6600 916.0000 1.0000
39.6700 944.0000 1.0000
39.6800 910.0000 1.0000
39.6900 894.0000 1.0000
39.7000 896.0000 1.0000
39.7100 875.0000 1.0000
39.7200 863.0000 1.0000
39.7300 842.0000 1.0000
39.7400 857.0000 1.0000
39.7500 874.0000 1.0000
39.7600 824.0000 1.0000
39.7700 860.0000 1.0000
39.7800 886.0000 1.0000
39.7900 878.0000 1.0000
39.8000 842.0000 1.0000
39.8100 809.0000 1.0000
39.8200 851.0000 1.0000
39.8300 823.0000 1.0000
39.8400 905.0000 1.0000
39.8500 828.0000 1.0000
39.8600 876.0000 1.0000
39.8700 825.0000 1.0000
39.8800 834.0000 1.0000
39.8900 869.0000 1.0000
39.9000 874.0000 1.0000
39.9100 825.0000 1.0000
39.9200 840.0000 1.0000
39.9300 881.0000 1.0000
39.9400 882.0000 1.0000
39.9500 854.0000 1.0000
39.9600 884.0000 1.0000
39.9700 876.0000 1.0000
39.9800 843.0000 1.0000
39.9900 825.0000 1.0000
40.0000 799.0000 1.0000
40.0100 848.0000 1.0000
40.0200 849.0000 1.0000
40.0300 816.0000 1.0000
40.0400 817.0000 1.0000
40.0500 813.0000 1.0000
40.0600 809.0000 1.0000
40.0700 811.0000 1.0000
40.0800 824.0000 1.0000
40.0900 828.0000 1.0000
40.1000 791.0000 1.0000
40.1100 807.0000 1.0000
40.1200 816.0000 1.0000
40.1300 834.0000 1.0000
40.1400 827.0000 1.0000
40.1500 808.0000 1.0000
40.1600 808.0000 1.0000
40.1700 814.0000 1.0000
40.1800 786.0000 1.0000
40.1900 830.0000 1.0000
40.2000 816.0000 1.0000
40.2100 854.0000 1.0000
40.2200 803.0000 1.0000
40.2300 801.0000 1.0000
40.2400 794.0000 1.0000
40.2500 811.0000 1.0000
40.2600 878.0000 1.0000
40.2700 819.0000 1.0000
40.2800 793.0000 1.0000
40.2900 810.0000 1.0000
40.3000 806.0000 1.0000
40.3100 782.0000 1.0000
40.3200 805.0000 1.0000
40.3300 800.0000 1.0000
40.3400 753.0000 1.0000
40.3500 788.0000 1.0000
40.3600 819.0000 1.0000
40.3700 827.0000 1.0000
40.3800 790.0000 1.0000
40.3900 833.0000 1.0000
40.4000 832.0000 1.0000
40.4100 743.0000 1.0000
40.4200 803.0000 1.0000
40.4300 784.0000 1.0000
40.4400 801.0000 1.0000
40.4500 825.0000 1.0000
40.4600 817.0000 1.0000
40.4700 805.0000 1.0000
40.4800 794.0000 1.0000
40.4900 822.0000 1.0000
40.5000 868.0000 1.0000
40.5100 795.0000 1.0000
40.5200 783.0000 1.0000
40.5300 817.0000 1.0000
40.5400 793.0000 1.0000
40.5500 836.0000 1.0000
40.5600 785.0000 1.0000
40.5700 838.0000 1.0000
40.5800 791.0000 1.0000
40.5900 766.0000 1.0000
40.6000 786.0000 1.0000
40.6100 790.0000 1.0000
40.6200 785.0000 1.0000
40.6300 760.0000 1.0000
40.6400 754.0000 1.0000
40.6500 832.0000 1.0000
40.6600 809.0000 1.0000
40.6700 777.0000 1.0000
40.6800 813.0000 1.0000
40.6900 800.0000 1.0000
40.7000 771.0000 1.0000
40.7100 773.0000 1.0000
40.7200 825.0000 1.0000
40.7300 790.0000 1.0000
40.7400 742.0000 1.0000
40.7500 730.0000 1.0000
40.7600 785.0000 1.0000
40.7700 798.0000 1.0000
40.7800 808.0000 1.0000
40.7900 755.0000 1.0000
40.8000 777.0000 1.0000
40.8100 804.0000 1.0000
40.8200 750.0000 1.0000
40.8300 781.0000 1.0000
40.8400 843.0000 1.0000
40.8500 802.0000 1.0000
40.8600 759.0000 1.0000
40.8700 786.0000 1.0000
40.8800 762.0000 1.0000
40.8900 774.0000 1.0000
40.9000 768.0000 1.0000
40.9100 744.0000 1.0000
40.9200 810.0000 1.0000
40.9300 787.0000 1.0000
40.9400 787.0000 1.0000
40.9500 806.0000 1.0000
40.9600 776.0000 1.0000
40.9700 786.0000 1.0000
40.9800 758.0000 1.0000
40.9900 773.0000 1.0000
41.0000 769.0000 1.0000
41.0100 769.0000 1.0000
41.0200 773.0000 1.0000
41.0300 751.0000 1.0000
41.0400 780.0000 1.0000
41.0500 758.0000 1.0000
41.0600 784.0000 1.0000
41.0700 825.0000 1.0000
41.0800 758.0000 1.0000
41.0900 743.0000 1.0000
41.1000 789.0000 1.0000
41.1100 784.0000 1.0000
41.1200 813.0000 1.0000
41.1300 804.0000 1.0000
41.1400 792.0000 1.0000
41.1500 739.0000 1.0000
41.1600 710.0000 1.0000
41.1700 772.0000 1.0000
41.1800 801.0000 1.0000
41.1900 795.0000 1.0000
41.2000 780.0000 1.0000
41.2100 812.0000 1.0000
41.2200 816.0000 1.0000
41.2300 787.0000 1.0000
41.2400 789.0000 1.0000
41.2500 808.0000 1.0000
41.2600 842.0000 1.0000
41.2700 756.0000 1.0000
41.2800 744.0000 1.0000
41.2900 794.0000 1.0000
41.3000 796.0000 1.0000
41.3100 817.0000 1.0000
41.3200 784.0000 1.0000
41.3300 790.0000 1.0000
41.3400 769.0000 1.0000
41.3500 807.0000 1.0000
41.3600 768.0000 1.0000
41.3700 780.0000 1.0000
41.3800 781.0000 1.0000
41.3900 823.0000 1.0000
41.4000 802.0000 1.0000
41.4100 813.0000 1.0000
41.4200 785.0000 1.0000
41.4300 752.0000 1.0000
41.4400 772.0000 1.0000
41.4500 755.0000 1.0000
41.4600 807.0000 1.0000
41.4700 765.0000 1.0000
41.4800 813.0000 1.0000
41.4900 800.0000 1.0000
41.5000 763.0000 1.0000
41.5100 767.0000 1.0000
41.5200 772.0000 1.0000
41.5300 804.0000 1.0000
41.5400 830.0000 1.0000
41.5500 798.0000 1.0000
41.5600 798.0000 1.0000
41.5700 801.0000 1.0000
41.5800 817.0000 1.0000
41.5900 835.0000 1.0000
41.6000 825.0000 1.0000
41.6100 781.0000 1.0000
41.6200 822.0000 1.0000
41.6300 746.0000 1.0000
41.6400 781.0000 1.0000
41.6500 775.0000 1.0000
41.6600 751.0000 1.0000
41.6700 739.0000 1.0000
41.6800 737.0000 1.0000
41.6900 763.0000 1.0000
41.7000 776.0000 1.0000
41.7100 785.0000 1.0000
41.7200 800.0000 1.0000
41.7300 812.0000 1.0000
41.7400 761.0000 1.0000
41.7500 776.0000 1.0000
41.7600 753.0000 1.0000
41.7700 772.0000 1.0000
41.7800 733.0000 1.0000
41.7900 776.0000 1.0000
41.8000 785.0000 1.0000
41.8100 803.0000 1.0000
41.8200 787.0000 1.0000
41.8300 798.0000 1.0000
41.8400 760.0000 1.0000
41.8500 701.0000 1.0000
41.8600 763.0000 1.0000
41.8700 762.0000 1.0000
41.8800 790.0000 1.0000
41.8900 767.0000 1.0000
41.9000 762.0000 1.0000
41.9100 740.0000 1.0000
41.9200 805.0000 1.0000
41.9300 805.0000 1.0000
41.9400 766.0000 1.0000
41.9500 746.0000 1.0000
41.9600 798.0000 1.0000
41.9700 747.0000 1.0000
41.9800 764.0000 1.0000
41.9900 790.0000 1.0000
42.0000 784.0000 1.0000
42.0100 758.0000 1.0000
42.0200 757.0000 1.0000
42.0300 736.0000 1.0000
42.0400 771.0000 1.0000
42.0500 812.0000 1.0000
42.0600 788.0000 1.0000
42.0700 802.0000 1.0000
42.0800 773.0000 1.0000
42.0900 772.0000 1.0000
42.1000 754.0000 1.0000
42.1100 819.0000 1.0000
42.1200 731.0000 1.0000
42.1300 735.0000 1.0000
42.1400 765.0000 1.0000
42.1500 770.0000 1.0000
42.1600 820.0000 1.0000
42.1700 748.0000 1.0000
42.1800 748.0000 1.0000
42.1900 762.0000 1.0000
42.2000 761.0000 1.0000
42.2100 751.0000 1.0000
42.2200 798.0000 1.0000
42.2300 835.0000 1.0000
42.2400 779.0000 1.0000
42.2500 755.0000 1.0000
42.2600 710.0000 1.0000
42.2700 720.0000 1.0000
42.2800 729.0000 1.0000
42.2900 744.0000 1.0000
42.3000 755.0000 1.0000
42.3100 751.0000 1.0000
42.3200 815.0000 1.0000
42.3300 782.0000 1.0000
42.3400 771.0000 1.0000
42.3500 782.0000 1.0000
42.3600 781.0000 1.0000
42.3700 771.0000 1.0000
42.3800 776.0000 1.0000
42.3900 774.0000 1.0000
42.4000 784.0000 1.0000
42.4100 767.0000 1.0000
42.4200 767.0000 1.0000
42.4300 758.0000 1.0000
42.4400 797.0000 1.0000
42.4500 762.0000 1.0000
42.4600 757.0000 1.0000
42.4700 760.0000 1.0000
42.4800 761.0000 1.0000
42.4900 726.0000 1.0000
42.5000 752.0000 1.0000
42.5100 775.0000 1.0000
42.5200 712.0000 1.0000
42.5300 761.0000 1.0000
42.5400 768.0000 1.0000
42.5500 759.0000 1.0000
42.5600 748.0000 1.0000
42.5700 737.0000 1.0000
42.5800 752.0000 1.0000
42.5900 748.0000 1.0000
42.6000 758.0000 1.0000
42.6100 747.0000 1.0000
42.6200 767.0000 1.0000
42.6300 701.0000 1.0000
42.6400 751.0000 1.0000
42.6500 732.0000 1.0000
42.6600 784.0000 1.0000
42.6700 802.0000 1.0000
42.6800 817.0000 1.0000
42.6900 756.0000 1.0000
42.7000 739.0000 1.0000
42.7100 743.0000 1.0000
42.7200 765.0000 1.0000
42.7300 755.0000 1.0000
42.7400 761.0000 1.0000
42.7500 764.0000 1.0000
42.7600 749.0000 1.0000
42.7700 779.0000 1.0000
42.7800 760.0000 1.0000
42.7900 800.0000 1.0000
42.8000 793.0000 1.0000
42.8100 766.0000 1.0000
42.8200 770.0000 1.0000
42.8300 781.0000 1.0000
42.8400 773.0000 1.0000
42.8500 766.0000 1.0000
42.8600 774.0000 1.0000
42.8700 795.0000 1.0000
42.8800 784.0000 1.0000
42.8900 755.0000 1.0000
42.9000 763.0000 1.0000
42.9100 779.0000 1.0000
42.9200 770.0000 1.0000
42.9300 778.0000 1.0000
42.9400 753.0000 1.0000
42.9500 761.0000 1.0000
42.9600 765.0000 1.0000
42.9700 768.0000 1.0000
42.9800 759.0000 1.0000
42.9900 817.0000 1.0000
43.0000 837.0000 1.0000
43.0100 801.0000 1.0000
43.0200 778.0000 1.0000
43.0300 718.0000 1.0000
43.0400 750.0000 1.0000
43.0500 739.0000 1.0000
43.0600 749.0000 1.0000
43.0700 790.0000 1.0000
43.0800 785.0000 1.0000
43.0900 776.0000 1.0000
43.1000 834.0000 1.0000
43.1100 808.0000 1.0000
43.1200 789.0000 1.0000
43.1300 811.0000 1.0000
43.1400 849.0000 1.0000
43.1500 844.0000 1.0000
43.1600 842.0000 1.0000
43.1700 833.0000 1.0000
43.1800 844.0000 1.0000
43.1900 839.0000 1.0000
43.2000 821.0000 1.0000
43.2100 862.0000 1.0000
43.2200 888.0000 1.0000
43.2300 867.0000 1.0000
43.2400 855.0000 1.0000
43.2500 860.0000 1.0000
43.2600 843.0000 1.0000
43.2700 866.0000 1.0000
43.2800 841.0000 1.0000
43.2900 819.0000 1.0000
43.3000 823.0000 1.0000
43.3100 835.0000 1.0000
43.3200 860.0000 1.0000
43.3300 842.0000 1.0000
43.3400 840.0000 1.0000
43.3500 807.0000 1.0000
43.3600 834.0000 1.0000
43.3700 780.0000 1.0000
43.3800 850.0000 1.0000
43.3900 800.0000 1.0000
43.4000 763.0000 1.0000
43.4100 784.0000 1.0000
43.4200 835.0000 1.0000
43.4300 818.0000 1.0000
43.4400 795.0000 1.0000
43.4500 785.0000 1.0000
43.4600 746.0000 1.0000
43.4700 809.0000 1.0000
43.4800 790.0000 1.0000
43.4900 776.0000 1.0000
43.5000 771.0000 1.0000
43.5100 753.0000 1.0000
43.5200 744.0000 1.0000
43.5300 755.0000 1.0000
43.5400 753.0000 1.0000
43.5500 753.0000 1.0000
43.5600 724.0000 1.0000
43.5700 763.0000 1.0000
43.5800 764.0000 1.0000
43.5900 721.0000 1.0000
43.6000 723.0000 1.0000
43.6100 790.0000 1.0000
43.6200 763.0000 1.0000
43.6300 783.0000 1.0000
43.6400 802.0000 1.0000
43.6500 766.0000 1.0000
43.6600 707.0000 1.0000
43.6700 758.0000 1.0000
43.6800 753.0000 1.0000
43.6900 790.0000 1.0000
43.7000 755.0000 1.0000
43.7100 787.0000 1.0000
43.7200 779.0000 1.0000
43.7300 711.0000 1.0000
43.7400 748.0000 1.0000
43.7500 749.0000 1.0000
43.7600 729.0000 1.0000
43.7700 747.0000 1.0000
43.7800 747.0000 1.0000
43.7900 757.0000 1.0000
43.8000 781.0000 1.0000
43.8100 748.0000 1.0000
43.8200 771.0000 1.0000
43.8300 749.0000 1.0000
43.8400 723.0000 1.0000
43.8500 731.0000 1.0000
43.8600 716.0000 1.0000
43.8700 729.0000 1.0000
43.8800 758.0000 1.0000
43.8900 711.0000 1.0000
43.9000 763.0000 1.0000
43.9100 738.0000 1.0000
43.9200 772.0000 1.0000
43.9300 724.0000 1.0000
43.9400 757.0000 1.0000
43.9500 719.0000 1.0000
43.9600 725.0000 1.0000
43.9700 737.0000 1.0000
43.9800 734.0000 1.0000
43.9900 744.0000 1.0000
44.0000 751.0000 1.0000
44.0100 712.0000 1.0000
44.0200 757.0000 1.0000
44.0300 781.0000 1.0000
44.0400 747.0000 1.0000
44.0500 698.0000 1.0000
44.0600 719.0000 1.0000
44.0700 709.0000 1.0000
44.0800 773.0000 1.0000
44.0900 764.0000 1.0000
44.1000 750.0000 1.0000
44.1100 766.0000 1.0000
44.1200 750.0000 1.0000
44.1300 769.0000 1.0000
44.1400 762.0000 1.0000
44.1500 748.0000 1.0000
44.1600 734.0000 1.0000
44.1700 738.0000 1.0000
44.1800 748.0000 1.0000
44.1900 753.0000 1.0000
44.2000 727.0000 1.0000
44.2100 759.0000 1.0000
44.2200 710.0000 1.0000
44.2300 781.0000 1.0000
44.2400 772.0000 1.0000
44.2500 733.0000 1.0000
44.2600 758.0000 1.0000
44.2700 756.0000 1.0000
44.2800 771.0000 1.0000
44.2900 709.0000 1.0000
44.3000 737.0000 1.0000
44.3100 770.0000 1.0000
44.3200 722.0000 1.0000
44.3300 717.0000 1.0000
44.3400 719.0000 1.0000
44.3500 757.0000 1.0000
44.3600 752.0000 1.0000
44.3700 745.0000 1.0000
44.3800 750.0000 1.0000
44.3900 739.0000 1.0000
44.4000 745.0000 1.0000
44.4100 715.0000 1.0000
44.4200 773.0000 1.0000
44.4300 731.0000 1.0000
44.4400 731.0000 1.0000
44.4500 740.0000 1.0000
44.4600 721.0000 1.0000
44.4700 718.0000 1.0000
44.4800 805.0000 1.0000
44.4900 771.0000 1.0000
44.5000 738.0000 1.0000
44.5100 744.0000 1.0000
44.5200 726.0000 1.0000
44.5300 744.0000 1.0000
44.5400 747.0000 1.0000
44.5500 697.0000 1.0000
44.5600 741.0000 1.0000
44.5700 758.0000 1.0000
44.5800 728.0000 1.0000
44.5900 724.0000 1.0000
44.6000 726.0000 1.0000
44.6100 749.0000 1.0000
44.6200 742.0000 1.0000
44.6300 722.0000 1.0000
44.6400 706.0000 1.0000
44.6500 713.0000 1.0000
44.6600 761.0000 1.0000
44.6700 734.0000 1.0000
44.6800 757.0000 1.0000
44.6900 736.0000 1.0000
44.7000 754.0000 1.0000
44.7100 755.0000 1.0000
44.7200 734.0000 1.0000
44.7300 726.0000 1.0000
44.7400 712.0000 1.0000
44.7500 721.0000 1.0000
44.7600 723.0000 1.0000
44.7700 735.0000 1.0000
44.7800 713.0000 1.0000
44.7900 709.0000 1.0000
44.8000 720.0000 1.0000
44.8100 723.0000 1.0000
44.8200 731.0000 1.0000
44.8300 682.0000 1.0000
44.8400 743.0000 1.0000
44.8500 763.0000 1.0000
44.8600 741.0000 1.0000
44.8700 746.0000 1.0000
44.8800 727.0000 1.0000
44.8900 706.0000 1.0000
44.9000 703.0000 1.0000
44.9100 688.0000 1.0000
44.9200 737.0000 1.0000
44.9300 743.0000 1.0000
44.9400 759.0000 1.0000
44.9500 745.0000 1.0000
44.9600 700.0000 1.0000
44.9700 690.0000 1.0000
44.9800 728.0000 1.0000
44.9900 714.0000 1.0000
45.0000 748.0000 1.0000
45.0100 699.0000 1.0000
45.0200 718.0000 1.0000
45.0300 704.0000 1.0000
45.0400 685.0000 1.0000
45.0500 703.0000 1.0000
45.0600 725.0000 1.0000
45.0700 728.0000 1.0000
45.0800 718.0000 1.0000
45.0900 726.0000 1.0000
45.1000 712.0000 1.0000
45.1100 683.0000 1.0000
45.1200 710.0000 1.0000
45.1300 727.0000 1.0000
45.1400 695.0000 1.0000
45.1500 711.0000 1.0000
45.1600 734.0000 1.0000
45.1700 725.0000 1.0000
45.1800 696.0000 1.0000
45.1900 713.0000 1.0000
45.2000 716.0000 1.0000
45.2100 740.0000 1.0000
45.2200 677.0000 1.0000
45.2300 714.0000 1.0000
45.2400 714.0000 1.0000
45.2500 730.0000 1.0000
45.2600 741.0000 1.0000
45.2700 715.0000 1.0000
45.2800 703.0000 1.0000
45.2900 711.0000 1.0000
45.3000 714.0000 1.0000
45.3100 719.0000 1.0000
45.3200 701.0000 1.0000
45.3300 730.0000 1.0000
45.3400 739.0000 1.0000
45.3500 741.0000 1.0000
45.3600 702.0000 1.0000
45.3700 667.0000 1.0000
45.3800 728.0000 1.0000
45.3900 759.0000 1.0000
45.4000 705.0000 1.0000
45.4100 711.0000 1.0000
45.4200 735.0000 1.0000
45.4300 681.0000 1.0000
45.4400 716.0000 1.0000
45.4500 732.0000 1.0000
45.4600 712.0000 1.0000
45.4700 763.0000 1.0000
45.4800 712.0000 1.0000
45.4900 692.0000 1.0000
45.5000 685.0000 1.0000
45.5100 718.0000 1.0000
45.5200 675.0000 1.0000
45.5300 709.0000 1.0000
45.5400 683.0000 1.0000
45.5500 719.0000 1.0000
45.5600 699.0000 1.0000
45.5700 717.0000 1.0000
45.5800 732.0000 1.0000
45.5900 739.0000 1.0000
45.6000 670.0000 1.0000
45.6100 730.0000 1.0000
45.6200 694.0000 1.0000
45.6300 733.0000 1.0000
45.6400 735.0000 1.0000
45.6500 752.0000 1.0000
45.6600 713.0000 1.0000
45.6700 726.0000 1.0000
45.6800 702.0000 1.0000
45.6900 667.0000 1.0000
45.7000 692.0000 1.0000
45.7100 726.0000 1.0000
45.7200 690.0000 1.0000
45.7300 698.0000 1.0000
45.7400 696.0000 1.0000
45.7500 688.0000 1.0000
45.7600 698.0000 1.0000
45.7700 745.0000 1.0000
45.7800 718.0000 1.0000
45.7900 683.0000 1.0000
45.8000 664.0000 1.0000
45.8100 738.0000 1.0000
45.8200 751.0000 1.0000
45.8300 709.0000 1.0000
45.8400 708.0000 1.0000
45.8500 731.0000 1.0000
45.8600 685.0000 1.0000
45.8700 672.0000 1.0000
45.8800 703.0000 1.0000
45.8900 688.0000 1.0000
45.9000 753.0000 1.0000
45.9100 731.0000 1.0000
45.9200 734.0000 1.0000
45.9300 726.0000 1.0000
45.9400 755.0000 1.0000
45.9500 701.0000 1.0000
45.9600 709.0000 1.0000
45.9700 712.0000 1.0000
45.9800 718.0000 1.0000
45.9900 700.0000 1.0000
46.0000 701.0000 1.0000
46.0100 738.0000 1.0000
46.0200 684.0000 1.0000
46.0300 731.0000 1.0000
46.0400 713.0000 1.0000
46.0500 685.0000 1.0000
46.0600 667.0000 1.0000
46.0700 701.0000 1.0000
46.0800 681.0000 1.0000
46.0900 708.0000 1.0000
46.1000 736.0000 1.0000
46.1100 708.0000 1.0000
46.1200 653.0000 1.0000
46.1300 713.0000 1.0000
46.1400 703.0000 1.0000
46.1500 721.0000 1.0000
46.1600 670.0000 1.0000
46.1700 734.0000 1.0000
46.1800 719.0000 1.0000
46.1900 703.0000 1.0000
46.2000 714.0000 1.0000
46.2100 739.0000 1.0000
46.2200 679.0000 1.0000
46.2300 703.0000 1.0000
46.2400 701.0000 1.0000
46.2500 710.0000 1.0000
46.2600 703.0000 1.0000
46.2700 725.0000 1.0000
46.2800 704.0000 1.0000
46.2900 698.0000 1.0000
46.3000 723.0000 1.0000
46.3100 725.0000 1.0000
46.3200 678.0000 1.0000
46.3300 659.0000 1.0000
46.3400 707.0000 1.0000
46.3500 716.0000 1.0000
46.3600 690.0000 1.0000
46.3700 635.0000 1.0000
46.3800 680.0000 1.0000
46.3900 710.0000 1.0000
46.4000 689.0000 1.0000
46.4100 686.0000 1.0000
46.4200 731.0000 1.0000
46.4300 710.0000 1.0000
46.4400 727.0000 1.0000
46.4500 736.0000 1.0000
46.4600 695.0000 1.0000
46.4700 710.0000 1.0000
46.4800 696.0000 1.0000
46.4900 687.0000 1.0000
46.5000 725.0000 1.0000
46.5100 683.0000 1.0000
46.5200 727.0000 1.0000
46.5300 712.0000 1.0000
46.5400 708.0000 1.0000
46.5500 677.0000 1.0000
46.5600 708.0000 1.0000
46.5700 666.0000 1.0000
46.5800 717.0000 1.0000
46.5900 708.0000 1.0000
46.6000 686.0000 1.0000
46.6100 709.0000 1.0000
46.6200 671.0000 1.0000
46.6300 745.0000 1.0000
46.6400 718.0000 1.0000
46.6500 714.0000 1.0000
46.6600 678.0000 1.0000
46.6700 682.0000 1.0000
46.6800 668.0000 1.0000
46.6900 685.0000 1.0000
46.7000 661.0000 1.0000
46.7100 649.0000 1.0000
46.7200 705.0000 1.0000
46.7300 692.0000 1.0000
46.7400 680.0000 1.0000
46.7500 708.0000 1.0000
46.7600 726.0000 1.0000
46.7700 706.0000 1.0000
46.7800 703.0000 1.0000
46.7900 671.0000 1.0000
46.8000 695.0000 1.0000
46.8100 672.0000 1.0000
46.8200 682.0000 1.0000
46.8300 714.0000 1.0000
46.8400 702.0000 1.0000
46.8500 701.0000 1.0000
46.8600 725.0000 1.0000
46.8700 711.0000 1.0000
46.8800 677.0000 1.0000
46.8900 735.0000 1.0000
46.9000 701.0000 1.0000
46.9100 709.0000 1.0000
46.9200 729.0000 1.0000
46.9300 714.0000 1.0000
46.9400 644.0000 1.0000
46.9500 730.0000 1.0000
46.9600 712.0000 1.0000
46.9700 709.0000 1.0000
46.9800 727.0000 1.0000
46.9900 714.0000 1.0000
47.0000 727.0000 1.0000
47.0100 761.0000 1.0000
47.0200 731.0000 1.0000
47.0300 722.0000 1.0000
47.0400 681.0000 1.0000
47.0500 762.0000 1.0000
47.0600 735.0000 1.0000
47.0700 703.0000 1.0000
47.0800 707.0000 1.0000
47.0900 679.0000 1.0000
47.1000 629.0000 1.0000
47.1100 675.0000 1.0000
47.1200 703.0000 1.0000
47.1300 695.0000 1.0000
47.1400 713.0000 1.0000
47.1500 742.0000 1.0000
47.1600 701.0000 1.0000
47.1700 674.0000 1.0000
47.1800 695.0000 1.0000
47.1900 666.0000 1.0000
47.2000 681.0000 1.0000
47.2100 685.0000 1.0000
47.2200 730.0000 1.0000
47.2300 693.0000 1.0000
47.2400 691.0000 1.0000
47.2500 681.0000 1.0000
47.2600 747.0000 1.0000
47.2700 740.0000 1.0000
47.2800 738.0000 1.0000
47.2900 663.0000 1.0000
47.3000 689.0000 1.0000
47.3100 686.0000 1.0000
47.3200 688.0000 1.0000
47.3300 621.0000 1.0000
47.3400 661.0000 1.0000
47.3500 657.0000 1.0000
47.3600 664.0000 1.0000
47.3700 679.0000 1.0000
47.3800 671.0000 1.0000
47.3900 720.0000 1.0000
47.4000 691.0000 1.0000
47.4100 650.0000 1.0000
47.4200 645.0000 1.0000
47.4300 669.0000 1.0000
47.4400 689.0000 1.0000
47.4500 712.0000 1.0000
47.4600 665.0000 1.0000
47.4700 712.0000 1.0000
47.4800 734.0000 1.0000
47.4900 653.0000 1.0000
47.5000 673.0000 1.0000
47.5100 699.0000 1.0000
47.5200 665.0000 1.0000
47.5300 665.0000 1.0000
47.5400 734.0000 1.0000
47.5500 693.0000 1.0000
47.5600 686.0000 1.0000
47.5700 661.0000 1.0000
47.5800 705.0000 1.0000
47.5900 668.0000 1.0000
47.6000 734.0000 1.0000
47.6100 699.0000 1.0000
47.6200 697.0000 1.0000
47.6300 703.0000 1.0000
47.6400 637.0000 1.0000
47.6500 682.0000 1.0000
47.6600 657.0000 1.0000
47.6700 656.0000 1.0000
47.6800 646.0000 1.0000
47.6900 629.0000 1.0000
47.7000 688.0000 1.0000
47.7100 688.0000 1.0000
47.7200 668.0000 1.0000
47.7300 634.0000 1.0000
47.7400 646.0000 1.0000
47.7500 662.0000 1.0000
47.7600 663.0000 1.0000
47.7700 715.0000 1.0000
47.7800 698.0000 1.0000
47.7900 670.0000 1.0000
47.8000 676.0000 1.0000
47.8100 722.0000 1.0000
47.8200 650.0000 1.0000
47.8300 685.0000 1.0000
47.8400 674.0000 1.0000
47.8500 677.0000 1.0000
47.8600 678.0000 1.0000
47.8700 690.0000 1.0000
47.8800 678.0000 1.0000
47.8900 635.0000 1.0000
47.9000 635.0000 1.0000
47.9100 646.0000 1.0000
47.9200 647.0000 1.0000
47.9300 658.0000 1.0000
47.9400 646.0000 1.0000
47.9500 649.0000 1.0000
47.9600 680.0000 1.0000
47.9700 678.0000 1.0000
47.9800 654.0000 1.0000
47.9900 706.0000 1.0000
48.0000 677.0000 1.0000
48.0100 692.0000 1.0000
48.0200 656.0000 1.0000
48.0300 699.0000 1.0000
48.0400 614.0000 1.0000
48.0500 677.0000 1.0000
48.0600 682.0000 1.0000
48.0700 633.0000 1.0000
48.0800 664.0000 1.0000
48.0900 688.0000 1.0000
48.1000 656.0000 1.0000
48.1100 646.0000 1.0000
48.1200 675.0000 1.0000
48.1300 675.0000 1.0000
48.1400 702.0000 1.0000
48.1500 688.0000 1.0000
48.1600 644.0000 1.0000
48.1700 687.0000 1.0000
48.1800 704.0000 1.0000
48.1900 680.0000 1.0000
48.2000 649.0000 1.0000
48.2100 643.0000 1.0000
48.2200 653.0000 1.0000
48.2300 644.0000 1.0000
48.2400 664.0000 1.0000
48.2500 658.0000 1.0000
48.2600 638.0000 1.0000
48.2700 656.0000 1.0000
48.2800 623.0000 1.0000
48.2900 656.0000 1.0000
48.3000 655.0000 1.0000
48.3100 630.0000 1.0000
48.3200 653.0000 1.0000
48.3300 705.0000 1.0000
48.3400 623.0000 1.0000
48.3500 648.0000 1.0000
48.3600 664.0000 1.0000
48.3700 652.0000 1.0000
48.3800 630.0000 1.0000
48.3900 668.0000 1.0000
48.4000 645.0000 1.0000
48.4100 673.0000 1.0000
48.4200 664.0000 1.0000
48.4300 673.0000 1.0000
48.4400 701.0000 1.0000
48.4500 700.0000 1.0000
48.4600 658.0000 1.0000
48.4700 680.0000 1.0000
48.4800 673.0000 1.0000
48.4900 642.0000 1.0000
48.5000 715.0000 1.0000
48.5100 646.0000 1.0000
48.5200 655.0000 1.0000
48.5300 662.0000 1.0000
48.5400 670.0000 1.0000
48.5500 672.0000 1.0000
48.5600 679.0000 1.0000
48.5700 659.0000 1.0000
48.5800 664.0000 1.0000
48.5900 677.0000 1.0000
48.6000 667.0000 1.0000
48.6100 666.0000 1.0000
48.6200 679.0000 1.0000
48.6300 678.0000 1.0000
48.6400 638.0000 1.0000
48.6500 648.0000 1.0000
48.6600 672.0000 1.0000
48.6700 637.0000 1.0000
48.6800 645.0000 1.0000
48.6900 668.0000 1.0000
48.7000 637.0000 1.0000
48.7100 668.0000 1.0000
48.7200 648.0000 1.0000
48.7300 663.0000 1.0000
48.7400 645.0000 1.0000
48.7500 648.0000 1.0000
48.7600 664.0000 1.0000
48.7700 671.0000 1.0000
48.7800 600.0000 1.0000
48.7900 644.0000 1.0000
48.8000 640.0000 1.0000
48.8100 663.0000 1.0000
48.8200 655.0000 1.0000
48.8300 626.0000 1.0000
48.8400 633.0000 1.0000
48.8500 686.0000 1.0000
48.8600 651.0000 1.0000
48.8700 631.0000 1.0000
48.8800 684.0000 1.0000
48.8900 665.0000 1.0000
48.9000 622.0000 1.0000
48.9100 663.0000 1.0000
48.9200 644.0000 1.0000
48.9300 641.0000 1.0000
48.9400 645.0000 1.0000
48.9500 686.0000 1.0000
48.9600 672.0000 1.0000
48.9700 680.0000 1.0000
48.9800 707.0000 1.0000
48.9900 668.0000 1.0000
49.0000 651.0000 1.0000
49.0100 691.0000 1.0000
49.0200 622.0000 1.0000
49.0300 622.0000 1.0000
49.0400 645.0000 1.0000
49.0500 650.0000 1.0000
49.0600 659.0000 1.0000
49.0700 657.0000 1.0000
49.0800 647.0000 1.0000
49.0900 681.0000 1.0000
49.1000 615.0000 1.0000
49.1100 648.0000 1.0000
49.1200 657.0000 1.0000
49.1300 677.0000 1.0000
49.1400 690.0000 1.0000
49.1500 649.0000 1.0000
49.1600 693.0000 1.0000
49.1700 669.0000 1.0000
49.1800 643.0000 1.0000
49.1900 608.0000 1.0000
49.2000 653.0000 1.0000
49.2100 688.0000 1.0000
49.2200 681.0000 1.0000
49.2300 641.0000 1.0000
49.2400 669.0000 1.0000
49.2500 672.0000 1.0000
49.2600 663.0000 1.0000
49.2700 662.0000 1.0000
49.2800 631.0000 1.0000
49.2900 633.0000 1.0000
49.3000 592.0000 1.0000
49.3100 657.0000 1.0000
49.3200 657.0000 1.0000
49.3300 655.0000 1.0000
49.3400 663.0000 1.0000
49.3500 609.0000 1.0000
49.3600 673.0000 1.0000
49.3700 617.0000 1.0000
49.3800 573.0000 1.0000
49.3900 638.0000 1.0000
49.4000 651.0000 1.0000
49.4100 648.0000 1.0000
49.4200 626.0000 1.0000
49.4300 629.0000 1.0000
49.4400 652.0000 1.0000
49.4500 680.0000 1.0000
49.4600 632.0000 1.0000
49.4700 653.0000 1.0000
49.4800 625.0000 1.0000
49.4900 671.0000 1.0000
49.5000 681.0000 1.0000
49.5100 657.0000 1.0000
49.5200 626.0000 1.0000
49.5300 636.0000 1.0000
49.5400 631.0000 1.0000
49.5500 632.0000 1.0000
49.5600 617.0000 1.0000
49.5700 659.0000 1.0000
49.5800 642.0000 1.0000
49.5900 635.0000 1.0000
49.6000 649.0000 1.0000
49.6100 632.0000 1.0000
49.6200 616.0000 1.0000
49.6300 642.0000 1.0000
49.6400 637.0000 1.0000
49.6500 627.0000 1.0000
49.6600 613.0000 1.0000
49.6700 668.0000 1.0000
49.6800 608.0000 1.0000
49.6900 589.0000 1.0000
49.7000 607.0000 1.0000
49.7100 635.0000 1.0000
49.7200 634.0000 1.0000
49.7300 653.0000 1.0000
49.7400 674.0000 1.0000
49.7500 685.0000 1.0000
49.7600 670.0000 1.0000
49.7700 620.0000 1.0000
49.7800 641.0000 1.0000
49.7900 639.0000 1.0000
49.8000 657.0000 1.0000
49.8100 643.0000 1.0000
49.8200 614.0000 1.0000
49.8300 678.0000 1.0000
49.8400 698.0000 1.0000
49.8500 681.0000 1.0000
49.8600 664.0000 1.0000
49.8700 669.0000 1.0000
49.8800 645.0000 1.0000
49.8900 643.0000 1.0000
49.9000 630.0000 1.0000
49.9100 598.0000 1.0000
49.9200 679.0000 1.0000
49.9300 626.0000 1.0000
49.9400 657.0000 1.0000
49.9500 660.0000 1.0000
49.9600 678.0000 1.0000
49.9700 642.0000 1.0000
49.9800 664.0000 1.0000
49.9900 658.0000 1.0000
50.0000 678.0000 1.0000
50.0100 652.0000 1.0000
50.0200 631.0000 1.0000
50.0300 617.0000 1.0000
50.0400 629.0000 1.0000
50.0500 635.0000 1.0000
50.0600 662.0000 1.0000
50.0700 651.0000 1.0000
50.0800 657.0000 1.0000
50.0900 665.0000 1.0000
50.1000 634.0000 1.0000
50.1100 693.0000 1.0000
50.1200 636.0000 1.0000
50.1300 688.0000 1.0000
50.1400 654.0000 1.0000
50.1500 656.0000 1.0000
50.1600 624.0000 1.0000
50.1700 666.0000 1.0000
50.1800 624.0000 1.0000
50.1900 649.0000 1.0000
50.2000 655.0000 1.0000
50.2100 645.0000 1.0000
50.2200 630.0000 1.0000
50.2300 690.0000 1.0000
50.2400 683.0000 1.0000
50.2500 673.0000 1.0000
50.2600 681.0000 1.0000
50.2700 688.0000 1.0000
50.2800 674.0000 1.0000
50.2900 666.0000 1.0000
50.3000 644.0000 1.0000
50.3100 616.0000 1.0000
50.3200 650.0000 1.0000
50.3300 654.0000 1.0000
50.3400 673.0000 1.0000
50.3500 641.0000 1.0000
50.3600 676.0000 1.0000
50.3700 700.0000 1.0000
50.3800 668.0000 1.0000
50.3900 676.0000 1.0000
50.4000 697.0000 1.0000
50.4100 679.0000 1.0000
50.4200 668.0000 1.0000
50.4300 644.0000 1.0000
50.4400 686.0000 1.0000
50.4500 657.0000 1.0000
50.4600 681.0000 1.0000
50.4700 639.0000 1.0000
50.4800 699.0000 1.0000
50.4900 647.0000 1.0000
50.5000 664.0000 1.0000
50.5100 686.0000 1.0000
50.5200 703.0000 1.0000
50.5300 681.0000 1.0000
50.5400 655.0000 1.0000
50.5500 631.0000 1.0000
50.5600 630.0000 1.0000
50.5700 682.0000 1.0000
50.5800 643.0000 1.0000
50.5900 693.0000 1.0000
50.6000 690.0000 1.0000
50.6100 660.0000 1.0000
50.6200 670.0000 1.0000
50.6300 687.0000 1.0000
50.6400 679.0000 1.0000
50.6500 651.0000 1.0000
50.6600 688.0000 1.0000
50.6700 662.0000 1.0000
50.6800 704.0000 1.0000
50.6900 684.0000 1.0000
50.7000 659.0000 1.0000
50.7100 683.0000 1.0000
50.7200 671.0000 1.0000
50.7300 689.0000 1.0000
50.7400 673.0000 1.0000
50.7500 694.0000 1.0000
50.7600 674.0000 1.0000
50.7700 648.0000 1.0000
50.7800 627.0000 1.0000
50.7900 715.0000 1.0000
50.8000 698.0000 1.0000
50.8100 644.0000 1.0000
50.8200 648.0000 1.0000
50.8300 655.0000 1.0000
50.8400 642.0000 1.0000
50.8500 652.0000 1.0000
50.8600 671.0000 1.0000
50.8700 662.0000 1.0000
50.8800 722.0000 1.0000
50.8900 683.0000 1.0000
50.9000 638.0000 1.0000
50.9100 679.0000 1.0000
50.9200 688.0000 1.0000
50.9300 685.0000 1.0000
50.9400 685.0000 1.0000
50.9500 612.0000 1.0000
50.9600 670.0000 1.0000
50.9700 663.0000 1.0000
50.9800 652.0000 1.0000
50.9900 666.0000 1.0000
51.0000 699.0000 1.0000
51.0100 688.0000 1.0000
51.0200 657.0000 1.0000
51.0300 618.0000 1.0000
51.0400 666.0000 1.0000
51.0500 689.0000 1.0000
51.0600 676.0000 1.0000
51.0700 661.0000 1.0000
51.0800 620.0000 1.0000
51.0900 653.0000 1.0000
51.1000 668.0000 1.0000
51.1100 655.0000 1.0000
51.1200 677.0000 1.0000
51.1300 684.0000 1.0000
51.1400 670.0000 1.0000
51.1500 636.0000 1.0000
51.1600 637.0000 1.0000
51.1700 671.0000 1.0000
51.1800 701.0000 1.0000
51.1900 680.0000 1.0000
51.2000 682.0000 1.0000
51.2100 690.0000 1.0000
51.2200 661.0000 1.0000
51.2300 607.0000 1.0000
51.2400 667.0000 1.0000
51.2500 665.0000 1.0000
51.2600 686.0000 1.0000
51.2700 664.0000 1.0000
51.2800 677.0000 1.0000
51.2900 676.0000 1.0000
51.3000 684.0000 1.0000
51.3100 695.0000 1.0000
51.3200 675.0000 1.0000
51.3300 667.0000 1.0000
51.3400 679.0000 1.0000
51.3500 690.0000 1.0000
51.3600 703.0000 1.0000
51.3700 720.0000 1.0000
51.3800 676.0000 1.0000
51.3900 656.0000 1.0000
51.4000 636.0000 1.0000
51.4100 681.0000 1.0000
51.4200 677.0000 1.0000
51.4300 703.0000 1.0000
51.4400 651.0000 1.0000
51.4500 686.0000 1.0000
51.4600 690.0000 1.0000
51.4700 659.0000 1.0000
51.4800 678.0000 1.0000
51.4900 684.0000 1.0000
51.5000 709.0000 1.0000
51.5100 729.0000 1.0000
51.5200 701.0000 1.0000
51.5300 659.0000 1.0000
51.5400 719.0000 1.0000
51.5500 714.0000 1.0000
51.5600 731.0000 1.0000
51.5700 700.0000 1.0000
51.5800 691.0000 1.0000
51.5900 655.0000 1.0000
51.6000 716.0000 1.0000
51.6100 683.0000 1.0000
51.6200 658.0000 1.0000
51.6300 676.0000 1.0000
51.6400 652.0000 1.0000
51.6500 691.0000 1.0000
51.6600 668.0000 1.0000
51.6700 722.0000 1.0000
51.6800 722.0000 1.0000
51.6900 735.0000 1.0000
51.7000 741.0000 1.0000
51.7100 724.0000 1.0000
51.7200 709.0000 1.0000
51.7300 729.0000 1.0000
51.7400 720.0000 1.0000
51.7500 742.0000 1.0000
51.7600 770.0000 1.0000
51.7700 753.0000 1.0000
51.7800 740.0000 1.0000
51.7900 735.0000 1.0000
51.8000 773.0000 1.0000
51.8100 741.0000 1.0000
51.8200 749.0000 1.0000
51.8300 755.0000 1.0000
51.8400 793.0000 1.0000
51.8500 794.0000 1.0000
51.8600 776.0000 1.0000
51.8700 791.0000 1.0000
51.8800 876.0000 1.0000
51.8900 840.0000 1.0000
51.9000 843.0000 1.0000
51.9100 888.0000 1.0000
51.9200 934.0000 1.0000
51.9300 951.0000 1.0000
51.9400 938.0000 1.0000
51.9500 1021.0000 1.0000
51.9600 1034.0000 1.0000
51.9700 1043.0000 1.0000
51.9800 1039.0000 1.0000
51.9900 1090.0000 1.0000
52.0000 1149.0000 1.0000
52.0100 1174.0000 1.0000
52.0200 1273.0000 1.0000
52.0300 1349.0000 1.0000
52.0400 1316.0000 1.0000
52.0500 1396.0000 1.0000
52.0600 1484.0000 1.0000
52.0700 1553.0000 1.0000
52.0800 1649.0000 1.0000
52.0900 1652.0000 1.0000
52.1000 1806.0000 1.0000
52.1100 1842.0000 1.0000
52.1200 2029.0000 1.0000
52.1300 2281.0000 1.0000
52.1400 2459.0000 1.0000
52.1500 2661.0000 1.0000
52.1600 2920.0000 1.0000
52.1700 3100.0000 1.0000
52.1800 3507.0000 1.0000
52.1900 3770.0000 1.0000
52.2000 4047.0000 1.0000
52.2100 4474.0000 1.0000
52.2200 4765.0000 1.0000
52.2300 5047.0000 1.0000
52.2400 5355.0000 1.0000
52.2500 5514.0000 1.0000
52.2600 5577.0000 1.0000
52.2700 5793.0000 1.0000
52.2800 5790.0000 1.0000
52.2900 5604.0000 1.0000
52.3000 5399.0000 1.0000
52.3100 5262.0000 1.0000
52.3200 5082.0000 1.0000
52.3300 4972.0000 1.0000
52.3400 4728.0000 1.0000
52.3500 4607.0000 1.0000
52.3600 4510.0000 1.0000
52.3700 4509.0000 1.0000
52.3800 4332.0000 1.0000
52.3900 4241.0000 1.0000
52.4000 4207.0000 1.0000
52.4100 3988.0000 1.0000
52.4200 3862.0000 1.0000
52.4300 3636.0000 1.0000
52.4400 3270.0000 1.0000
52.4500 3150.0000 1.0000
52.4600 2835.0000 1.0000
52.4700 2709.0000 1.0000
52.4800 2504.0000 1.0000
52.4900 2231.0000 1.0000
52.5000 2119.0000 1.0000
52.5100 1933.0000 1.0000
52.5200 1842.0000 1.0000
52.5300 1731.0000 1.0000
52.5400 1684.0000 1.0000
52.5500 1528.0000 1.0000
52.5600 1438.0000 1.0000
52.5700 1399.0000 1.0000
52.5800 1352.0000 1.0000
52.5900 1238.0000 1.0000
52.6000 1251.0000 1.0000
52.6100 1211.0000 1.0000
52.6200 1182.0000 1.0000
52.6300 1139.0000 1.0000
52.6400 1032.0000 1.0000
52.6500 1016.0000 1.0000
52.6600 1003.0000 1.0000
52.6700 983.0000 1.0000
52.6800 989.0000 1.0000
52.6900 954.0000 1.0000
52.7000 934.0000 1.0000
52.7100 894.0000 1.0000
52.7200 894.0000 1.0000
52.7300 834.0000 1.0000
52.7400 841.0000 1.0000
52.7500 869.0000 1.0000
52.7600 828.0000 1.0000
52.7700 824.0000 1.0000
52.7800 800.0000 1.0000
52.7900 811.0000 1.0000
52.8000 802.0000 1.0000
52.8100 799.0000 1.0000
52.8200 807.0000 1.0000
52.8300 801.0000 1.0000
52.8400 780.0000 1.0000
52.8500 775.0000 1.0000
52.8600 743.0000 1.0000
52.8700 748.0000 1.0000
52.8800 769.0000 1.0000
52.8900 808.0000 1.0000
52.9000 753.0000 1.0000
52.9100 796.0000 1.0000
52.9200 728.0000 1.0000
52.9300 751.0000 1.0000
52.9400 728.0000 1.0000
52.9500 670.0000 1.0000
52.9600 748.0000 1.0000
52.9700 748.0000 1.0000
52.9800 707.0000 1.0000
52.9900 716.0000 1.0000
53.0000 715.0000 1.0000
53.0100 743.0000 1.0000
53.0200 724.0000 1.0000
53.0300 710.0000 1.0000
53.0400 662.0000 1.0000
53.0500 684.0000 1.0000
53.0600 689.0000 1.0000
53.0700 648.0000 1.0000
53.0800 679.0000 1.0000
53.0900 688.0000 1.0000
53.1000 685.0000 1.0000
53.1100 673.0000 1.0000
53.1200 668.0000 1.0000
53.1300 684.0000 1.0000
53.1400 684.0000 1.0000
53.1500 712.0000 1.0000
53.1600 684.0000 1.0000
53.1700 662.0000 1.0000
53.1800 673.0000 1.0000
53.1900 682.0000 1.0000
53.2000 639.0000 1.0000
53.2100 641.0000 1.0000
53.2200 645.0000 1.0000
53.2300 652.0000 1.0000
53.2400 672.0000 1.0000
53.2500 681.0000 1.0000
53.2600 695.0000 1.0000
53.2700 668.0000 1.0000
53.2800 666.0000 1.0000
53.2900 645.0000 1.0000
53.3000 673.0000 1.0000
53.3100 679.0000 1.0000
53.3200 656.0000 1.0000
53.3300 662.0000 1.0000
53.3400 691.0000 1.0000
53.3500 690.0000 1.0000
53.3600 694.0000 1.0000
53.3700 686.0000 1.0000
53.3800 668.0000 1.0000
53.3900 628.0000 1.0000
53.4000 656.0000 1.0000
53.4100 647.0000 1.0000
53.4200 661.0000 1.0000
53.4300 669.0000 1.0000
53.4400 659.0000 1.0000
53.4500 644.0000 1.0000
53.4600 660.0000 1.0000
53.4700 677.0000 1.0000
53.4800 717.0000 1.0000
53.4900 679.0000 1.0000
53.5000 660.0000 1.0000
53.5100 631.0000 1.0000
53.5200 636.0000 1.0000
53.5300 660.0000 1.0000
53.5400 653.0000 1.0000
53.5500 648.0000 1.0000
53.5600 614.0000 1.0000
53.5700 666.0000 1.0000
53.5800 602.0000 1.0000
53.5900 635.0000 1.0000
53.6000 637.0000 1.0000
53.6100 624.0000 1.0000
53.6200 664.0000 1.0000
53.6300 621.0000 1.0000
53.6400 626.0000 1.0000
53.6500 645.0000 1.0000
53.6600 632.0000 1.0000
53.6700 666.0000 1.0000
53.6800 673.0000 1.0000
53.6900 659.0000 1.0000
53.7000 619.0000 1.0000
53.7100 630.0000 1.0000
53.7200 657.0000 1.0000
53.7300 624.0000 1.0000
53.7400 638.0000 1.0000
53.7500 650.0000 1.0000
53.7600 673.0000 1.0000
53.7700 652.0000 1.0000
53.7800 621.0000 1.0000
53.7900 651.0000 1.0000
53.8000 636.0000 1.0000
53.8100 646.0000 1.0000
53.8200 613.0000 1.0000
53.8300 649.0000 1.0000
53.8400 633.0000 1.0000
53.8500 656.0000 1.0000
53.8600 668.0000 1.0000
53.8700 632.0000 1.0000
53.8800 628.0000 1.0000
53.8900 630.0000 1.0000
53.9000 657.0000 1.0000
53.9100 633.0000 1.0000
53.9200 655.0000 1.0000
53.9300 644.0000 1.0000
53.9400 612.0000 1.0000
53.9500 664.0000 1.0000
53.9600 609.0000 1.0000
53.9700 622.0000 1.0000
53.9800 624.0000 1.0000
53.9900 650.0000 1.0000
54.0000 631.0000 1.0000
54.0100 608.0000 1.0000
54.0200 630.0000 1.0000
54.0300 659.0000 1.0000
54.0400 656.0000 1.0000
54.0500 633.0000 1.0000
54.0600 617.0000 1.0000
54.0700 632.0000 1.0000
54.0800 617.0000 1.0000
54.0900 615.0000 1.0000
54.1000 670.0000 1.0000
54.1100 623.0000 1.0000
54.1200 652.0000 1.0000
54.1300 639.0000 1.0000
54.1400 659.0000 1.0000
54.1500 686.0000 1.0000
54.1600 702.0000 1.0000
54.1700 661.0000 1.0000
54.1800 707.0000 1.0000
54.1900 617.0000 1.0000
54.2000 629.0000 1.0000
54.2100 630.0000 1.0000
54.2200 685.0000 1.0000
54.2300 660.0000 1.0000
54.2400 691.0000 1.0000
54.2500 645.0000 1.0000
54.2600 631.0000 1.0000
54.2700 620.0000 1.0000
54.2800 614.0000 1.0000
54.2900 644.0000 1.0000
54.3000 669.0000 1.0000
54.3100 621.0000 1.0000
54.3200 659.0000 1.0000
54.3300 669.0000 1.0000
54.3400 607.0000 1.0000
54.3500 644.0000 1.0000
54.3600 656.0000 1.0000
54.3700 629.0000 1.0000
54.3800 640.0000 1.0000
54.3900 663.0000 1.0000
54.4000 663.0000 1.0000
54.4100 655.0000 1.0000
54.4200 643.0000 1.0000
54.4300 670.0000 1.0000
54.4400 663.0000 1.0000
54.4500 649.0000 1.0000
54.4600 710.0000 1.0000
54.4700 633.0000 1.0000
54.4800 643.0000 1.0000
54.4900 640.0000 1.0000
54.5000 644.0000 1.0000
54.5100 634.0000 1.0000
54.5200 638.0000 1.0000
54.5300 660.0000 1.0000
54.5400 611.0000 1.0000
54.5500 622.0000 1.0000
54.5600 671.0000 1.0000
54.5700 648.0000 1.0000
54.5800 648.0000 1.0000
54.5900 632.0000 1.0000
54.6000 660.0000 1.0000
54.6100 646.0000 1.0000
54.6200 584.0000 1.0000
54.6300 658.0000 1.0000
54.6400 637.0000 1.0000
54.6500 684.0000 1.0000
54.6600 681.0000 1.0000
54.6700 661.0000 1.0000
54.6800 665.0000 1.0000
54.6900 642.0000 1.0000
54.7000 655.0000 1.0000
54.7100 647.0000 1.0000
54.7200 667.0000 1.0000
54.7300 662.0000 1.0000
54.7400 675.0000 1.0000
54.7500 684.0000 1.0000
54.7600 726.0000 1.0000
54.7700 678.0000 1.0000
54.7800 644.0000 1.0000
54.7900 703.0000 1.0000
54.8000 673.0000 1.0000
54.8100 659.0000 1.0000
54.8200 683.0000 1.0000
54.8300 700.0000 1.0000
54.8400 640.0000 1.0000
54.8500 644.0000 1.0000
54.8600 705.0000 1.0000
54.8700 684.0000 1.0000
54.8800 692.0000 1.0000
54.8900 714.0000 1.0000
54.9000 684.0000 1.0000
54.9100 726.0000 1.0000
54.9200 694.0000 1.0000
54.9300 722.0000 1.0000
54.9400 714.0000 1.0000
54.9500 727.0000 1.0000
54.9600 728.0000 1.0000
54.9700 727.0000 1.0000
54.9800 693.0000 1.0000
54.9900 731.0000 1.0000
55.0000 733.0000 1.0000
55.0100 699.0000 1.0000
55.0200 711.0000 1.0000
55.0300 701.0000 1.0000
55.0400 794.0000 1.0000
55.0500 776.0000 1.0000
55.0600 759.0000 1.0000
55.0700 743.0000 1.0000
55.0800 754.0000 1.0000
55.0900 781.0000 1.0000
55.1000 787.0000 1.0000
55.1100 837.0000 1.0000
55.1200 797.0000 1.0000
55.1300 770.0000 1.0000
55.1400 809.0000 1.0000
55.1500 852.0000 1.0000
55.1600 857.0000 1.0000
55.1700 848.0000 1.0000
55.1800 881.0000 1.0000
55.1900 834.0000 1.0000
55.2000 907.0000 1.0000
55.2100 944.0000 1.0000
55.2200 921.0000 1.0000
55.2300 915.0000 1.0000
55.2400 990.0000 1.0000
55.2500 964.0000 1.0000
55.2600 1053.0000 1.0000
55.2700 1027.0000 1.0000
55.2800 989.0000 1.0000
55.2900 998.0000 1.0000
55.3000 1020.0000 1.0000
55.3100 970.0000 1.0000
55.3200 1048.0000 1.0000
55.3300 1034.0000 1.0000
55.3400 1000.0000 1.0000
55.3500 1028.0000 1.0000
55.3600 962.0000 1.0000
55.3700 966.0000 1.0000
55.3800 947.0000 1.0000
55.3900 988.0000 1.0000
55.4000 915.0000 1.0000
55.4100 987.0000 1.0000
55.4200 926.0000 1.0000
55.4300 939.0000 1.0000
55.4400 955.0000 1.0000
55.4500 868.0000 1.0000
55.4600 898.0000 1.0000
55.4700 842.0000 1.0000
55.4800 813.0000 1.0000
55.4900 830.0000 1.0000
55.5000 824.0000 1.0000
55.5100 859.0000 1.0000
55.5200 791.0000 1.0000
55.5300 790.0000 1.0000
55.5400 772.0000 1.0000
55.5500 767.0000 1.0000
55.5600 794.0000 1.0000
55.5700 753.0000 1.0000
55.5800 731.0000 1.0000
55.5900 698.0000 1.0000
55.6000 783.0000 1.0000
55.6100 688.0000 1.0000
55.6200 720.0000 1.0000
55.6300 728.0000 1.0000
55.6400 729.0000 1.0000
55.6500 687.0000 1.0000
55.6600 729.0000 1.0000
55.6700 695.0000 1.0000
55.6800 699.0000 1.0000
55.6900 693.0000 1.0000
55.7000 697.0000 1.0000
55.7100 646.0000 1.0000
55.7200 654.0000 1.0000
55.7300 684.0000 1.0000
55.7400 666.0000 1.0000
55.7500 649.0000 1.0000
55.7600 660.0000 1.0000
55.7700 649.0000 1.0000
55.7800 712.0000 1.0000
55.7900 710.0000 1.0000
55.8000 679.0000 1.0000
55.8100 636.0000 1.0000
55.8200 659.0000 1.0000
55.8300 647.0000 1.0000
55.8400 692.0000 1.0000
55.8500 662.0000 1.0000
55.8600 654.0000 1.0000
55.8700 655.0000 1.0000
55.8800 647.0000 1.0000
55.8900 669.0000 1.0000
55.9000 653.0000 1.0000
55.9100 678.0000 1.0000
55.9200 613.0000 1.0000
55.9300 623.0000 1.0000
55.9400 645.0000 1.0000
55.9500 646.0000 1.0000
55.9600 658.0000 1.0000
55.9700 655.0000 1.0000
55.9800 597.0000 1.0000
55.9900 631.0000 1.0000
56.0000 637.0000 1.0000
56.0100 612.0000 1.0000
56.0200 607.0000 1.0000
56.0300 665.0000 1.0000
56.0400 601.0000 1.0000
56.0500 620.0000 1.0000
56.0600 631.0000 1.0000
56.0700 640.0000 1.0000
56.0800 616.0000 1.0000
56.0900 608.0000 1.0000
56.1000 608.0000 1.0000
56.1100 634.0000 1.0000
56.1200 622.0000 1.0000
56.1300 600.0000 1.0000
56.1400 599.0000 1.0000
56.1500 623.0000 1.0000
56.1600 636.0000 1.0000
56.1700 600.0000 1.0000
56.1800 630.0000 1.0000
56.1900 609.0000 1.0000
56.2000 648.0000 1.0000
56.2100 663.0000 1.0000
56.2200 685.0000 1.0000
56.2300 631.0000 1.0000
56.2400 663.0000 1.0000
56.2500 625.0000 1.0000
56.2600 629.0000 1.0000
56.2700 596.0000 1.0000
56.2800 604.0000 1.0000
56.2900 615.0000 1.0000
56.3000 571.0000 1.0000
56.3100 609.0000 1.0000
56.3200 616.0000 1.0000
56.3300 603.0000 1.0000
56.3400 579.0000 1.0000
56.3500 639.0000 1.0000
56.3600 630.0000 1.0000
56.3700 662.0000 1.0000
56.3800 626.0000 1.0000
56.3900 604.0000 1.0000
56.4000 598.0000 1.0000
56.4100 619.0000 1.0000
56.4200 603.0000 1.0000
56.4300 619.0000 1.0000
56.4400 600.0000 1.0000
56.4500 591.0000 1.0000
56.4600 578.0000 1.0000
56.4700 611.0000 1.0000
56.4800 623.0000 1.0000
56.4900 619.0000 1.0000
56.5000 594.0000 1.0000
56.5100 619.0000 1.0000
56.5200 596.0000 1.0000
56.5300 578.0000 1.0000
56.5400 631.0000 1.0000
56.5500 621.0000 1.0000
56.5600 659.0000 1.0000
56.5700 616.0000 1.0000
56.5800 567.0000 1.0000
56.5900 577.0000 1.0000
56.6000 613.0000 1.0000
56.6100 591.0000 1.0000
56.6200 607.0000 1.0000
56.6300 605.0000 1.0000
56.6400 589.0000 1.0000
56.6500 621.0000 1.0000
56.6600 650.0000 1.0000
56.6700 616.0000 1.0000
56.6800 569.0000 1.0000
56.6900 609.0000 1.0000
56.7000 602.0000 1.0000
56.7100 624.0000 1.0000
56.7200 566.0000 1.0000
56.7300 615.0000 1.0000
56.7400 594.0000 1.0000
56.7500 638.0000 1.0000
56.7600 596.0000 1.0000
56.7700 626.0000 1.0000
56.7800 639.0000 1.0000
56.7900 657.0000 1.0000
56.8000 625.0000 1.0000
56.8100 647.0000 1.0000
56.8200 581.0000 1.0000
56.8300 642.0000 1.0000
56.8400 641.0000 1.0000
56.8500 617.0000 1.0000
56.8600 644.0000 1.0000
56.8700 605.0000 1.0000
56.8800 609.0000 1.0000
56.8900 599.0000 1.0000
56.9000 609.0000 1.0000
56.9100 592.0000 1.0000
56.9200 600.0000 1.0000
56.9300 610.0000 1.0000
56.9400 628.0000 1.0000
56.9500 641.0000 1.0000
56.9600 610.0000 1.0000
56.9700 644.0000 1.0000
56.9800 608.0000 1.0000
56.9900 586.0000 1.0000
57.0000 624.0000 1.0000
57.0100 684.0000 1.0000
57.0200 635.0000 1.0000
57.0300 631.0000 1.0000
57.0400 606.0000 1.0000
57.0500 615.0000 1.0000
57.0600 616.0000 1.0000
57.0700 630.0000 1.0000
57.0800 616.0000 1.0000
57.0900 607.0000 1.0000
57.1000 605.0000 1.0000
57.1100 627.0000 1.0000
57.1200 626.0000 1.0000
57.1300 589.0000 1.0000
57.1400 598.0000 1.0000
57.1500 578.0000 1.0000
57.1600 565.0000 1.0000
57.1700 571.0000 1.0000
57.1800 596.0000 1.0000
57.1900 640.0000 1.0000
57.2000 624.0000 1.0000
57.2100 620.0000 1.0000
57.2200 652.0000 1.0000
57.2300 609.0000 1.0000
57.2400 634.0000 1.0000
57.2500 642.0000 1.0000
57.2600 627.0000 1.0000
57.2700 635.0000 1.0000
57.2800 621.0000 1.0000
57.2900 615.0000 1.0000
57.3000 611.0000 1.0000
57.3100 600.0000 1.0000
57.3200 600.0000 1.0000
57.3300 608.0000 1.0000
57.3400 619.0000 1.0000
57.3500 607.0000 1.0000
57.3600 581.0000 1.0000
57.3700 597.0000 1.0000
57.3800 620.0000 1.0000
57.3900 631.0000 1.0000
57.4000 588.0000 1.0000
57.4100 592.0000 1.0000
57.4200 619.0000 1.0000
57.4300 610.0000 1.0000
57.4400 564.0000 1.0000
57.4500 652.0000 1.0000
57.4600 589.0000 1.0000
57.4700 594.0000 1.0000
57.4800 596.0000 1.0000
57.4900 607.0000 1.0000
57.5000 606.0000 1.0000
57.5100 618.0000 1.0000
57.5200 643.0000 1.0000
57.5300 629.0000 1.0000
57.5400 585.0000 1.0000
57.5500 613.0000 1.0000
57.5600 623.0000 1.0000
57.5700 628.0000 1.0000
57.5800 605.0000 1.0000
57.5900 602.0000 1.0000
57.6000 651.0000 1.0000
57.6100 631.0000 1.0000
57.6200 652.0000 1.0000
57.6300 627.0000 1.0000
57.6400 574.0000 1.0000
57.6500 564.0000 1.0000
57.6600 618.0000 1.0000
57.6700 627.0000 1.0000
57.6800 628.0000 1.0000
57.6900 683.0000 1.0000
57.7000 612.0000 1.0000
57.7100 628.0000 1.0000
57.7200 591.0000 1.0000
57.7300 626.0000 1.0000
57.7400 593.0000 1.0000
57.7500 571.0000 1.0000
57.7600 581.0000 1.0000
57.7700 634.0000 1.0000
57.7800 593.0000 1.0000
57.7900 603.0000 1.0000
57.8000 584.0000 1.0000
57.8100 624.0000 1.0000
57.8200 594.0000 1.0000
57.8300 597.0000 1.0000
57.8400 611.0000 1.0000
57.8500 592.0000 1.0000
57.8600 614.0000 1.0000
57.8700 594.0000 1.0000
57.8800 614.0000 1.0000
57.8900 586.0000 1.0000
57.9000 613.0000 1.0000
57.9100 639.0000 1.0000
57.9200 621.0000 1.0000
57.9300 609.0000 1.0000
57.9400 582.0000 1.0000
57.9500 590.0000 1.0000
57.9600 603.0000 1.0000
57.9700 563.0000 1.0000
57.9800 621.0000 1.0000
57.9900 609.0000 1.0000
58.0000 616.0000 1.0000
58.0100 597.0000 1.0000
58.0200 608.0000 1.0000
58.0300 607.0000 1.0000
58.0400 619.0000 1.0000
58.0500 619.0000 1.0000
58.0600 616.0000 1.0000
58.0700 616.0000 1.0000
58.0800 602.0000 1.0000
58.0900 625.0000 1.0000
58.1000 630.0000 1.0000
58.1100 568.0000 1.0000
58.1200 620.0000 1.0000
58.1300 633.0000 1.0000
58.1400 610.0000 1.0000
58.1500 679.0000 1.0000
58.1600 617.0000 1.0000
58.1700 609.0000 1.0000
58.1800 559.0000 1.0000
58.1900 637.0000 1.0000
58.2000 596.0000 1.0000
58.2100 633.0000 1.0000
58.2200 620.0000 1.0000
58.2300 598.0000 1.0000
58.2400 568.0000 1.0000
58.2500 616.0000 1.0000
58.2600 606.0000 1.0000
58.2700 612.0000 1.0000
58.2800 612.0000 1.0000
58.2900 613.0000 1.0000
58.3000 639.0000 1.0000
58.3100 602.0000 1.0000
58.3200 636.0000 1.0000
58.3300 606.0000 1.0000
58.3400 618.0000 1.0000
58.3500 608.0000 1.0000
58.3600 621.0000 1.0000
58.3700 644.0000 1.0000
58.3800 655.0000 1.0000
58.3900 623.0000 1.0000
58.4000 606.0000 1.0000
58.4100 595.0000 1.0000
58.4200 639.0000 1.0000
58.4300 640.0000 1.0000
58.4400 617.0000 1.0000
58.4500 583.0000 1.0000
58.4600 587.0000 1.0000
58.4700 646.0000 1.0000
58.4800 620.0000 1.0000
58.4900 631.0000 1.0000
58.5000 605.0000 1.0000
58.5100 589.0000 1.0000
58.5200 630.0000 1.0000
58.5300 573.0000 1.0000
58.5400 593.0000 1.0000
58.5500 596.0000 1.0000
58.5600 569.0000 1.0000
58.5700 590.0000 1.0000
58.5800 602.0000 1.0000
58.5900 610.0000 1.0000
58.6000 603.0000 1.0000
58.6100 635.0000 1.0000
58.6200 611.0000 1.0000
58.6300 620.0000 1.0000
58.6400 631.0000 1.0000
58.6500 625.0000 1.0000
58.6600 583.0000 1.0000
58.6700 607.0000 1.0000
58.6800 642.0000 1.0000
58.6900 623.0000 1.0000
58.7000 609.0000 1.0000
58.7100 591.0000 1.0000
58.7200 644.0000 1.0000
58.7300 617.0000 1.0000
58.7400 569.0000 1.0000
58.7500 604.0000 1.0000
58.7600 620.0000 1.0000
58.7700 636.0000 1.0000
58.7800 597.0000 1.0000
58.7900 611.0000 1.0000
58.8000 600.0000 1.0000
58.8100 609.0000 1.0000
58.8200 643.0000 1.0000
58.8300 620.0000 1.0000
58.8400 599.0000 1.0000
58.8500 616.0000 1.0000
58.8600 588.0000 1.0000
58.8700 628.0000 1.0000
58.8800 612.0000 1.0000
58.8900 610.0000 1.0000
58.9000 653.0000 1.0000
58.9100 662.0000 1.0000
58.9200 579.0000 1.0000
58.9300 604.0000 1.0000
58.9400 612.0000 1.0000
58.9500 608.0000 1.0000
58.9600 634.0000 1.0000
58.9700 618.0000 1.0000
58.9800 598.0000 1.0000
58.9900 619.0000 1.0000
59.0000 554.0000 1.0000
59.0100 650.0000 1.0000
59.0200 625.0000 1.0000
59.0300 617.0000 1.0000
59.0400 642.0000 1.0000
59.0500 617.0000 1.0000
59.0600 619.0000 1.0000
59.0700 621.0000 1.0000
59.0800 603.0000 1.0000
59.0900 599.0000 1.0000
59.1000 593.0000 1.0000
59.1100 613.0000 1.0000
59.1200 617.0000 1.0000
59.1300 624.0000 1.0000
59.1400 638.0000 1.0000
59.1500 627.0000 1.0000
59.1600 595.0000 1.0000
59.1700 593.0000 1.0000
59.1800 611.0000 1.0000
59.1900 574.0000 1.0000
59.2000 613.0000 1.0000
59.2100 596.0000 1.0000
59.2200 613.0000 1.0000
59.2300 585.0000 1.0000
59.2400 606.0000 1.0000
59.2500 604.0000 1.0000
59.2600 577.0000 1.0000
59.2700 641.0000 1.0000
59.2800 664.0000 1.0000
59.2900 657.0000 1.0000
59.3000 606.0000 1.0000
59.3100 596.0000 1.0000
59.3200 611.0000 1.0000
59.3300 656.0000 1.0000
59.3400 636.0000 1.0000
59.3500 626.0000 1.0000
59.3600 620.0000 1.0000
59.3700 584.0000 1.0000
59.3800 623.0000 1.0000
59.3900 607.0000 1.0000
59.4000 604.0000 1.0000
59.4100 585.0000 1.0000
59.4200 595.0000 1.0000
59.4300 622.0000 1.0000
59.4400 602.0000 1.0000
59.4500 631.0000 1.0000
59.4600 632.0000 1.0000
59.4700 643.0000 1.0000
59.4800 621.0000 1.0000
59.4900 614.0000 1.0000
59.5000 605.0000 1.0000
59.5100 640.0000 1.0000
59.5200 652.0000 1.0000
59.5300 598.0000 1.0000
59.5400 585.0000 1.0000
59.5500 574.0000 1.0000
59.5600 608.0000 1.0000
59.5700 616.0000 1.0000
59.5800 611.0000 1.0000
59.5900 618.0000 1.0000
59.6000 606.0000 1.0000
59.6100 580.0000 1.0000
59.6200 619.0000 1.0000
59.6300 605.0000 1.0000
59.6400 593.0000 1.0000
59.6500 598.0000 1.0000
59.6600 600.0000 1.0000
59.6700 600.0000 1.0000
59.6800 580.0000 1.0000
59.6900 602.0000 1.0000
59.7000 573.0000 1.0000
59.7100 555.0000 1.0000
59.7200 582.0000 1.0000
59.7300 610.0000 1.0000
59.7400 586.0000 1.0000
59.7500 620.0000 1.0000
59.7600 610.0000 1.0000
59.7700 603.0000 1.0000
59.7800 601.0000 1.0000
59.7900 619.0000 1.0000
59.8000 619.0000 1.0000
59.8100 623.0000 1.0000
59.8200 647.0000 1.0000
59.8300 632.0000 1.0000
59.8400 633.0000 1.0000
59.8500 611.0000 1.0000
59.8600 638.0000 1.0000
59.8700 627.0000 1.0000
59.8800 647.0000 1.0000
59.8900 622.0000 1.0000
59.9000 605.0000 1.0000
59.9100 573.0000 1.0000
59.9200 580.0000 1.0000
59.9300 585.0000 1.0000
59.9400 627.0000 1.0000
59.9500 597.0000 1.0000
59.9600 585.0000 1.0000
59.9700 603.0000 1.0000
59.9800 639.0000 1.0000
59.9900 651.0000 1.0000
60.0000 622.0000 1.0000
60.0100 601.0000 1.0000
60.0200 603.0000 1.0000
60.0300 611.0000 1.0000
60.0400 606.0000 1.0000
60.0500 595.0000 1.0000
60.0600 585.0000 1.0000
60.0700 606.0000 1.0000
60.0800 626.0000 1.0000
60.0900 574.0000 1.0000
60.1000 636.0000 1.0000
60.1100 616.0000 1.0000
60.1200 626.0000 1.0000
60.1300 587.0000 1.0000
60.1400 616.0000 1.0000
60.1500 615.0000 1.0000
60.1600 634.0000 1.0000
60.1700 642.0000 1.0000
60.1800 617.0000 1.0000
60.1900 607.0000 1.0000
60.2000 638.0000 1.0000
60.2100 606.0000 1.0000
60.2200 607.0000 1.0000
60.2300 600.0000 1.0000
60.2400 596.0000 1.0000
60.2500 611.0000 1.0000
60.2600 594.0000 1.0000
60.2700 589.0000 1.0000
60.2800 610.0000 1.0000
60.2900 600.0000 1.0000
60.3000 582.0000 1.0000
60.3100 610.0000 1.0000
60.3200 599.0000 1.0000
60.3300 573.0000 1.0000
60.3400 597.0000 1.0000
60.3500 587.0000 1.0000
60.3600 582.0000 1.0000
60.3700 586.0000 1.0000
60.3800 635.0000 1.0000
60.3900 607.0000 1.0000
60.4000 566.0000 1.0000
60.4100 578.0000 1.0000
60.4200 614.0000 1.0000
60.4300 605.0000 1.0000
60.4400 640.0000 1.0000
60.4500 580.0000 1.0000
60.4600 595.0000 1.0000
60.4700 600.0000 1.0000
60.4800 599.0000 1.0000
60.4900 633.0000 1.0000
60.5000 616.0000 1.0000
60.5100 603.0000 1.0000
60.5200 609.0000 1.0000
60.5300 589.0000 1.0000
60.5400 632.0000 1.0000
60.5500 614.0000 1.0000
60.5600 611.0000 1.0000
60.5700 604.0000 1.0000
60.5800 635.0000 1.0000
60.5900 611.0000 1.0000
60.6000 632.0000 1.0000
60.6100 595.0000 1.0000
60.6200 607.0000 1.0000
60.6300 598.0000 1.0000
60.6400 613.0000 1.0000
60.6500 614.0000 1.0000
60.6600 625.0000 1.0000
60.6700 621.0000 1.0000
60.6800 620.0000 1.0000
60.6900 615.0000 1.0000
60.7000 581.0000 1.0000
60.7100 564.0000 1.0000
60.7200 574.0000 1.0000
60.7300 629.0000 1.0000
60.7400 611.0000 1.0000
60.7500 628.0000 1.0000
60.7600 595.0000 1.0000
60.7700 575.0000 1.0000
60.7800 612.0000 1.0000
60.7900 580.0000 1.0000
60.8000 621.0000 1.0000
60.8100 618.0000 1.0000
60.8200 597.0000 1.0000
60.8300 599.0000 1.0000
60.8400 587.0000 1.0000
60.8500 601.0000 1.0000
60.8600 583.0000 1.0000
60.8700 602.0000 1.0000
60.8800 626.0000 1.0000
60.8900 610.0000 1.0000
60.9000 635.0000 1.0000
60.9100 614.0000 1.0000
60.9200 587.0000 1.0000
60.9300 618.0000 1.0000
60.9400 622.0000 1.0000
60.9500 577.0000 1.0000
60.9600 642.0000 1.0000
60.9700 593.0000 1.0000
60.9800 617.0000 1.0000
60.9900 617.0000 1.0000
61.0000 589.0000 1.0000
61.0100 601.0000 1.0000
61.0200 617.0000 1.0000
61.0300 589.0000 1.0000
61.0400 577.0000 1.0000
61.0500 605.0000 1.0000
61.0600 635.0000 1.0000
61.0700 602.0000 1.0000
61.0800 574.0000 1.0000
61.0900 615.0000 1.0000
61.1000 639.0000 1.0000
61.1100 559.0000 1.0000
61.1200 540.0000 1.0000
61.1300 604.0000 1.0000
61.1400 599.0000 1.0000
61.1500 613.0000 1.0000
61.1600 581.0000 1.0000
61.1700 611.0000 1.0000
61.1800 612.0000 1.0000
61.1900 631.0000 1.0000
61.2000 633.0000 1.0000
61.2100 604.0000 1.0000
61.2200 620.0000 1.0000
61.2300 650.0000 1.0000
61.2400 609.0000 1.0000
61.2500 592.0000 1.0000
61.2600 572.0000 1.0000
61.2700 597.0000 1.0000
61.2800 648.0000 1.0000
61.2900 623.0000 1.0000
61.3000 592.0000 1.0000
61.3100 629.0000 1.0000
61.3200 595.0000 1.0000
61.3300 616.0000 1.0000
61.3400 595.0000 1.0000
61.3500 621.0000 1.0000
61.3600 638.0000 1.0000
61.3700 627.0000 1.0000
61.3800 586.0000 1.0000
61.3900 638.0000 1.0000
61.4000 660.0000 1.0000
61.4100 616.0000 1.0000
61.4200 573.0000 1.0000
61.4300 633.0000 1.0000
61.4400 606.0000 1.0000
61.4500 606.0000 1.0000
61.4600 612.0000 1.0000
61.4700 626.0000 1.0000
61.4800 639.0000 1.0000
61.4900 589.0000 1.0000
61.5000 607.0000 1.0000
61.5100 657.0000 1.0000
61.5200 617.0000 1.0000
61.5300 612.0000 1.0000
61.5400 622.0000 1.0000
61.5500 656.0000 1.0000
61.5600 614.0000 1.0000
61.5700 605.0000 1.0000
61.5800 639.0000 1.0000
61.5900 619.0000 1.0000
61.6000 611.0000 1.0000
61.6100 595.0000 1.0000
61.6200 660.0000 1.0000
61.6300 644.0000 1.0000
61.6400 639.0000 1.0000
61.6500 620.0000 1.0000
61.6600 651.0000 1.0000
61.6700 618.0000 1.0000
61.6800 624.0000 1.0000
61.6900 613.0000 1.0000
61.7000 612.0000 1.0000
61.7100 614.0000 1.0000
61.7200 636.0000 1.0000
61.7300 645.0000 1.0000
61.7400 597.0000 1.0000
61.7500 651.0000 1.0000
61.7600 692.0000 1.0000
61.7700 678.0000 1.0000
61.7800 672.0000 1.0000
61.7900 651.0000 1.0000
61.8000 674.0000 1.0000
61.8100 639.0000 1.0000
61.8200 635.0000 1.0000
61.8300 665.0000 1.0000
61.8400 625.0000 1.0000
61.8500 650.0000 1.0000
61.8600 648.0000 1.0000
61.8700 729.0000 1.0000
61.8800 723.0000 1.0000
61.8900 704.0000 1.0000
61.9000 685.0000 1.0000
61.9100 670.0000 1.0000
61.9200 747.0000 1.0000
61.9300 694.0000 1.0000
61.9400 715.0000 1.0000
61.9500 734.0000 1.0000
61.9600 739.0000 1.0000
61.9700 734.0000 1.0000
61.9800 786.0000 1.0000
61.9900 755.0000 1.0000
62.0000 812.0000 1.0000
62.0100 808.0000 1.0000
62.0200 803.0000 1.0000
62.0300 832.0000 1.0000
62.0400 830.0000 1.0000
62.0500 835.0000 1.0000
62.0600 835.0000 1.0000
62.0700 880.0000 1.0000
62.0800 919.0000 1.0000
62.0900 912.0000 1.0000
62.1000 936.0000 1.0000
62.1100 1000.0000 1.0000
62.1200 1001.0000 1.0000
62.1300 1056.0000 1.0000
62.1400 1105.0000 1.0000
62.1500 1112.0000 1.0000
62.1600 1143.0000 1.0000
62.1700 1151.0000 1.0000
62.1800 1154.0000 1.0000
62.1900 1237.0000 1.0000
62.2000 1302.0000 1.0000
62.2100 1301.0000 1.0000
62.2200 1315.0000 1.0000
62.2300 1316.0000 1.0000
62.2400 1388.0000 1.0000
62.2500 1440.0000 1.0000
62.2600 1417.0000 1.0000
62.2700 1448.0000 1.0000
62.2800 1510.0000 1.0000
62.2900 1438.0000 1.0000
62.3000 1471.0000 1.0000
62.3100 1428.0000 1.0000
62.3200 1425.0000 1.0000
62.3300 1409.0000 1.0000
62.3400 1447.0000 1.0000
62.3500 1406.0000 1.0000
62.3600 1408.0000 1.0000
62.3700 1431.0000 1.0000
62.3800 1385.0000 1.0000
62.3900 1334.0000 1.0000
62.4000 1287.0000 1.0000
62.4100 1327.0000 1.0000
62.4200 1297.0000 1.0000
62.4300 1281.0000 1.0000
62.4400 1267.0000 1.0000
62.4500 1209.0000 1.0000
62.4600 1216.0000 1.0000
62.4700 1210.0000 1.0000
62.4800 1169.0000 1.0000
62.4900 1129.0000 1.0000
62.5000 1067.0000 1.0000
62.5100 1086.0000 1.0000
62.5200 1110.0000 1.0000
62.5300 1064.0000 1.0000
62.5400 1037.0000 1.0000
62.5500 980.0000 1.0000
62.5600 969.0000 1.0000
62.5700 954.0000 1.0000
62.5800 908.0000 1.0000
62.5900 923.0000 1.0000
62.6000 936.0000 1.0000
62.6100 856.0000 1.0000
62.6200 837.0000 1.0000
62.6300 846.0000 1.0000
62.6400 857.0000 1.0000
62.6500 795.0000 1.0000
62.6600 785.0000 1.0000
62.6700 824.0000 1.0000
62.6800 819.0000 1.0000
62.6900 775.0000 1.0000
62.7000 785.0000 1.0000
62.7100 793.0000 1.0000
62.7200 772.0000 1.0000
62.7300 782.0000 1.0000
62.7400 772.0000 1.0000
62.7500 756.0000 1.0000
62.7600 756.0000 1.0000
62.7700 740.0000 1.0000
62.7800 707.0000 1.0000
62.7900 704.0000 1.0000
62.8000 688.0000 1.0000
62.8100 730.0000 1.0000
62.8200 695.0000 1.0000
62.8300 705.0000 1.0000
62.8400 706.0000 1.0000
62.8500 652.0000 1.0000
62.8600 723.0000 1.0000
62.8700 655.0000 1.0000
62.8800 647.0000 1.0000
62.8900 668.0000 1.0000
62.9000 667.0000 1.0000
62.9100 665.0000 1.0000
62.9200 665.0000 1.0000
62.9300 696.0000 1.0000
62.9400 659.0000 1.0000
62.9500 681.0000 1.0000
62.9600 657.0000 1.0000
62.9700 679.0000 1.0000
62.9800 650.0000 1.0000
62.9900 624.0000 1.0000
63.0000 640.0000 1.0000
63.0100 672.0000 1.0000
63.0200 660.0000 1.0000
63.0300 722.0000 1.0000
63.0400 654.0000 1.0000
63.0500 644.0000 1.0000
63.0600 636.0000 1.0000
63.0700 613.0000 1.0000
63.0800 632.0000 1.0000
63.0900 665.0000 1.0000
63.1000 648.0000 1.0000
63.1100 651.0000 1.0000
63.1200 646.0000 1.0000
63.1300 659.0000 1.0000
63.1400 631.0000 1.0000
63.1500 650.0000 1.0000
63.1600 673.0000 1.0000
63.1700 592.0000 1.0000
63.1800 645.0000 1.0000
63.1900 688.0000 1.0000
63.2000 676.0000 1.0000
63.2100 642.0000 1.0000
63.2200 639.0000 1.0000
63.2300 643.0000 1.0000
63.2400 611.0000 1.0000
63.2500 631.0000 1.0000
63.2600 640.0000 1.0000
63.2700 623.0000 1.0000
63.2800 642.0000 1.0000
63.2900 613.0000 1.0000
63.3000 609.0000 1.0000
63.3100 630.0000 1.0000
63.3200 626.0000 1.0000
63.3300 642.0000 1.0000
63.3400 566.0000 1.0000
63.3500 594.0000 1.0000
63.3600 616.0000 1.0000
63.3700 614.0000 1.0000
63.3800 593.0000 1.0000
63.3900 593.0000 1.0000
63.4000 643.0000 1.0000
63.4100 594.0000 1.0000
63.4200 652.0000 1.0000
63.4300 639.0000 1.0000
63.4400 616.0000 1.0000
63.4500 647.0000 1.0000
63.4600 658.0000 1.0000
63.4700 580.0000 1.0000
63.4800 597.0000 1.0000
63.4900 606.0000 1.0000
63.5000 637.0000 1.0000
63.5100 598.0000 1.0000
63.5200 582.0000 1.0000
63.5300 602.0000 1.0000
63.5400 601.0000 1.0000
63.5500 638.0000 1.0000
63.5600 583.0000 1.0000
63.5700 623.0000 1.0000
63.5800 643.0000 1.0000
63.5900 600.0000 1.0000
63.6000 606.0000 1.0000
63.6100 603.0000 1.0000
63.6200 618.0000 1.0000
63.6300 668.0000 1.0000
63.6400 599.0000 1.0000
63.6500 583.0000 1.0000
63.6600 632.0000 1.0000
63.6700 634.0000 1.0000
63.6800 616.0000 1.0000
63.6900 647.0000 1.0000
63.7000 601.0000 1.0000
63.7100 601.0000 1.0000
63.7200 606.0000 1.0000
63.7300 586.0000 1.0000
63.7400 595.0000 1.0000
63.7500 617.0000 1.0000
63.7600 614.0000 1.0000
63.7700 610.0000 1.0000
63.7800 615.0000 1.0000
63.7900 589.0000 1.0000
63.8000 604.0000 1.0000
63.8100 612.0000 1.0000
63.8200 612.0000 1.0000
63.8300 600.0000 1.0000
63.8400 657.0000 1.0000
63.8500 627.0000 1.0000
63.8600 610.0000 1.0000
63.8700 583.0000 1.0000
63.8800 630.0000 1.0000
63.8900 621.0000 1.0000
63.9000 619.0000 1.0000
63.9100 607.0000 1.0000
63.9200 612.0000 1.0000
63.9300 627.0000 1.0000
63.9400 615.0000 1.0000
63.9500 578.0000 1.0000
63.9600 628.0000 1.0000
63.9700 621.0000 1.0000
63.9800 614.0000 1.0000
63.9900 624.0000 1.0000
64.0000 611.0000 1.0000
64.0100 608.0000 1.0000
64.0200 610.0000 1.0000
64.0300 588.0000 1.0000
64.0400 590.0000 1.0000
64.0500 613.0000 1.0000
64.0600 616.0000 1.0000
64.0700 595.0000 1.0000
64.0800 584.0000 1.0000
64.0900 573.0000 1.0000
64.1000 578.0000 1.0000
64.1100 619.0000 1.0000
64.1200 583.0000 1.0000
64.1300 583.0000 1.0000
64.1400 590.0000 1.0000
64.1500 604.0000 1.0000
64.1600 642.0000 1.0000
64.1700 591.0000 1.0000
64.1800 620.0000 1.0000
64.1900 608.0000 1.0000
64.2000 608.0000 1.0000
64.2100 602.0000 1.0000
64.2200 619.0000 1.0000
64.2300 644.0000 1.0000
64.2400 628.0000 1.0000
64.2500 611.0000 1.0000
64.2600 599.0000 1.0000
64.2700 598.0000 1.0000
64.2800 637.0000 1.0000
64.2900 634.0000 1.0000
64.3000 654.0000 1.0000
64.3100 610.0000 1.0000
64.3200 644.0000 1.0000
64.3300 622.0000 1.0000
64.3400 599.0000 1.0000
64.3500 617.0000 1.0000
64.3600 655.0000 1.0000
64.3700 592.0000 1.0000
64.3800 604.0000 1.0000
64.3900 622.0000 1.0000
64.4000 615.0000 1.0000
64.4100 636.0000 1.0000
64.4200 644.0000 1.0000
64.4300 629.0000 1.0000
64.4400 571.0000 1.0000
64.4500 621.0000 1.0000
64.4600 616.0000 1.0000
64.4700 648.0000 1.0000
64.4800 672.0000 1.0000
64.4900 681.0000 1.0000
64.5000 629.0000 1.0000
64.5100 625.0000 1.0000
64.5200 597.0000 1.0000
64.5300 642.0000 1.0000
64.5400 611.0000 1.0000
64.5500 648.0000 1.0000
64.5600 633.0000 1.0000
64.5700 635.0000 1.0000
64.5800 642.0000 1.0000
64.5900 638.0000 1.0000
64.6000 622.0000 1.0000
64.6100 634.0000 1.0000
64.6200 649.0000 1.0000
64.6300 671.0000 1.0000
64.6400 671.0000 1.0000
64.6500 677.0000 1.0000
64.6600 688.0000 1.0000
64.6700 664.0000 1.0000
64.6800 620.0000 1.0000
64.6900 643.0000 1.0000
64.7000 692.0000 1.0000
64.7100 614.0000 1.0000
64.7200 696.0000 1.0000
64.7300 682.0000 1.0000
64.7400 649.0000 1.0000
64.7500 669.0000 1.0000
64.7600 719.0000 1.0000
64.7700 660.0000 1.0000
64.7800 663.0000 1.0000
64.7900 646.0000 1.0000
64.8000 678.0000 1.0000
64.8100 653.0000 1.0000
64.8200 666.0000 1.0000
64.8300 628.0000 1.0000
64.8400 661.0000 1.0000
64.8500 683.0000 1.0000
64.8600 678.0000 1.0000
64.8700 661.0000 1.0000
64.8800 617.0000 1.0000
64.8900 668.0000 1.0000
64.9000 655.0000 1.0000
64.9100 643.0000 1.0000
64.9200 640.0000 1.0000
64.9300 670.0000 1.0000
64.9400 682.0000 1.0000
64.9500 704.0000 1.0000
64.9600 698.0000 1.0000
64.9700 677.0000 1.0000
64.9800 637.0000 1.0000
64.9900 648.0000 1.0000
65.0000 655.0000 1.0000
65.0100 666.0000 1.0000
65.0200 636.0000 1.0000
65.0300 640.0000 1.0000
65.0400 622.0000 1.0000
65.0500 629.0000 1.0000
65.0600 690.0000 1.0000
65.0700 647.0000 1.0000
65.0800 613.0000 1.0000
65.0900 666.0000 1.0000
65.1000 670.0000 1.0000
65.1100 658.0000 1.0000
65.1200 687.0000 1.0000
65.1300 698.0000 1.0000
65.1400 653.0000 1.0000
65.1500 647.0000 1.0000
65.1600 705.0000 1.0000
65.1700 694.0000 1.0000
65.1800 659.0000 1.0000
65.1900 612.0000 1.0000
65.2000 662.0000 1.0000
65.2100 682.0000 1.0000
65.2200 630.0000 1.0000
65.2300 670.0000 1.0000
65.2400 624.0000 1.0000
65.2500 617.0000 1.0000
65.2600 604.0000 1.0000
65.2700 671.0000 1.0000
65.2800 649.0000 1.0000
65.2900 612.0000 1.0000
65.3000 633.0000 1.0000
65.3100 608.0000 1.0000
65.3200 596.0000 1.0000
65.3300 634.0000 1.0000
65.3400 643.0000 1.0000
65.3500 658.0000 1.0000
65.3600 615.0000 1.0000
65.3700 623.0000 1.0000
65.3800 619.0000 1.0000
65.3900 654.0000 1.0000
65.4000 643.0000 1.0000
65.4100 632.0000 1.0000
65.4200 639.0000 1.0000
65.4300 623.0000 1.0000
65.4400 621.0000 1.0000
65.4500 654.0000 1.0000
65.4600 627.0000 1.0000
65.4700 641.0000 1.0000
65.4800 647.0000 1.0000
65.4900 643.0000 1.0000
65.5000 609.0000 1.0000
65.5100 596.0000 1.0000
65.5200 673.0000 1.0000
65.5300 593.0000 1.0000
65.5400 567.0000 1.0000
65.5500 659.0000 1.0000
65.5600 631.0000 1.0000
65.5700 605.0000 1.0000
65.5800 653.0000 1.0000
65.5900 644.0000 1.0000
65.6000 641.0000 1.0000
65.6100 676.0000 1.0000
65.6200 670.0000 1.0000
65.6300 685.0000 1.0000
65.6400 647.0000 1.0000
65.6500 646.0000 1.0000
65.6600 694.0000 1.0000
65.6700 679.0000 1.0000
65.6800 695.0000 1.0000
65.6900 668.0000 1.0000
65.7000 661.0000 1.0000
65.7100 653.0000 1.0000
65.7200 683.0000 1.0000
65.7300 699.0000 1.0000
65.7400 708.0000 1.0000
65.7500 722.0000 1.0000
65.7600 673.0000 1.0000
65.7700 734.0000 1.0000
65.7800 642.0000 1.0000
65.7900 692.0000 1.0000
65.8000 726.0000 1.0000
65.8100 713.0000 1.0000
65.8200 691.0000 1.0000
65.8300 700.0000 1.0000
65.8400 696.0000 1.0000
65.8500 757.0000 1.0000
65.8600 786.0000 1.0000
65.8700 775.0000 1.0000
65.8800 767.0000 1.0000
65.8900 776.0000 1.0000
65.9000 775.0000 1.0000
65.9100 828.0000 1.0000
65.9200 836.0000 1.0000
65.9300 860.0000 1.0000
65.9400 855.0000 1.0000
65.9500 907.0000 1.0000
65.9600 929.0000 1.0000
65.9700 903.0000 1.0000
65.9800 965.0000 1.0000
65.9900 983.0000 1.0000
66.0000 1009.0000 1.0000
66.0100 1048.0000 1.0000
66.0200 1029.0000 1.0000
66.0300 1095.0000 1.0000
66.0400 1150.0000 1.0000
66.0500 1142.0000 1.0000
66.0600 1226.0000 1.0000
66.0700 1275.0000 1.0000
66.0800 1304.0000 1.0000
66.0900 1416.0000 1.0000
66.1000 1485.0000 1.0000
66.1100 1552.0000 1.0000
66.1200 1635.0000 1.0000
66.1300 1708.0000 1.0000
66.1400 1817.0000 1.0000
66.1500 1950.0000 1.0000
66.1600 2150.0000 1.0000
66.1700 2295.0000 1.0000
66.1800 2347.0000 1.0000
66.1900 2474.0000 1.0000
66.2000 2613.0000 1.0000
66.2100 2566.0000 1.0000
66.2200 2710.0000 1.0000
66.2300 2743.0000 1.0000
66.2400 2755.0000 1.0000
66.2500 2687.0000 1.0000
66.2600 2812.0000 1.0000
66.2700 2806.0000 1.0000
66.2800 2717.0000 1.0000
66.2900 2685.0000 1.0000
66.3000 2531.0000 1.0000
66.3100 2521.0000 1.0000
66.3200 2434.0000 1.0000
66.3300 2523.0000 1.0000
66.3400 2468.0000 1.0000
66.3500 2402.0000 1.0000
66.3600 2430.0000 1.0000
66.3700 2393.0000 1.0000
66.3800 2305.0000 1.0000
66.3900 2319.0000 1.0000
66.4000 2313.0000 1.0000
66.4100 2208.0000 1.0000
66.4200 2156.0000 1.0000
66.4300 2080.0000 1.0000
66.4400 2109.0000 1.0000
66.4500 2068.0000 1.0000
66.4600 1949.0000 1.0000
66.4700 1927.0000 1.0000
66.4800 1853.0000 1.0000
66.4900 1674.0000 1.0000
66.5000 1568.0000 1.0000
66.5100 1524.0000 1.0000
66.5200 1514.0000 1.0000
66.5300 1447.0000 1.0000
66.5400 1433.0000 1.0000
66.5500 1336.0000 1.0000
66.5600 1278.0000 1.0000
66.5700 1218.0000 1.0000
66.5800 1157.0000 1.0000
66.5900 1213.0000 1.0000
66.6000 1116.0000 1.0000
66.6100 1108.0000 1.0000
66.6200 1052.0000 1.0000
66.6300 976.0000 1.0000
66.6400 975.0000 1.0000
66.6500 967.0000 1.0000
66.6600 922.0000 1.0000
66.6700 904.0000 1.0000
66.6800 877.0000 1.0000
66.6900 868.0000 1.0000
66.7000 845.0000 1.0000
66.7100 844.0000 1.0000
66.7200 794.0000 1.0000
66.7300 796.0000 1.0000
66.7400 762.0000 1.0000
66.7500 779.0000 1.0000
66.7600 759.0000 1.0000
66.7700 778.0000 1.0000
66.7800 740.0000 1.0000
66.7900 679.0000 1.0000
66.8000 698.0000 1.0000
66.8100 711.0000 1.0000
66.8200 698.0000 1.0000
66.8300 673.0000 1.0000
66.8400 707.0000 1.0000
66.8500 685.0000 1.0000
66.8600 662.0000 1.0000
66.8700 673.0000 1.0000
66.8800 673.0000 1.0000
66.8900 683.0000 1.0000
66.9000 682.0000 1.0000
66.9100 616.0000 1.0000
66.9200 648.0000 1.0000
66.9300 632.0000 1.0000
66.9400 672.0000 1.0000
66.9500 664.0000 1.0000
66.9600 634.0000 1.0000
66.9700 622.0000 1.0000
66.9800 634.0000 1.0000
66.9900 661.0000 1.0000
67.0000 622.0000 1.0000
67.0100 634.0000 1.0000
67.0200 613.0000 1.0000
67.0300 652.0000 1.0000
67.0400 606.0000 1.0000
67.0500 624.0000 1.0000
67.0600 612.0000 1.0000
67.0700 576.0000 1.0000
67.0800 623.0000 1.0000
67.0900 642.0000 1.0000
67.1000 625.0000 1.0000
67.1100 561.0000 1.0000
67.1200 625.0000 1.0000
67.1300 626.0000 1.0000
67.1400 611.0000 1.0000
67.1500 608.0000 1.0000
67.1600 614.0000 1.0000
67.1700 607.0000 1.0000
67.1800 562.0000 1.0000
67.1900 594.0000 1.0000
67.2000 582.0000 1.0000
67.2100 568.0000 1.0000
67.2200 612.0000 1.0000
67.2300 600.0000 1.0000
67.2400 598.0000 1.0000
67.2500 614.0000 1.0000
67.2600 616.0000 1.0000
67.2700 594.0000 1.0000
67.2800 584.0000 1.0000
67.2900 625.0000 1.0000
67.3000 568.0000 1.0000
67.3100 560.0000 1.0000
67.3200 599.0000 1.0000
67.3300 547.0000 1.0000
67.3400 589.0000 1.0000
67.3500 559.0000 1.0000
67.3600 560.0000 1.0000
67.3700 580.0000 1.0000
67.3800 574.0000 1.0000
67.3900 567.0000 1.0000
67.4000 594.0000 1.0000
67.4100 579.0000 1.0000
67.4200 602.0000 1.0000
67.4300 571.0000 1.0000
67.4400 580.0000 1.0000
67.4500 572.0000 1.0000
67.4600 577.0000 1.0000
67.4700 595.0000 1.0000
67.4800 513.0000 1.0000
67.4900 572.0000 1.0000
67.5000 574.0000 1.0000
67.5100 567.0000 1.0000
67.5200 579.0000 1.0000
67.5300 547.0000 1.0000
67.5400 564.0000 1.0000
67.5500 560.0000 1.0000
67.5600 570.0000 1.0000
67.5700 575.0000 1.0000
67.5800 554.0000 1.0000
67.5900 545.0000 1.0000
67.6000 557.0000 1.0000
67.6100 534.0000 1.0000
67.6200 566.0000 1.0000
67.6300 580.0000 1.0000
67.6400 583.0000 1.0000
67.6500 576.0000 1.0000
67.6600 596.0000 1.0000
67.6700 576.0000 1.0000
67.6800 592.0000 1.0000
67.6900 606.0000 1.0000
67.7000 550.0000 1.0000
67.7100 539.0000 1.0000
67.7200 573.0000 1.0000
67.7300 574.0000 1.0000
67.7400 594.0000 1.0000
67.7500 549.0000 1.0000
67.7600 528.0000 1.0000
67.7700 585.0000 1.0000
67.7800 537.0000 1.0000
67.7900 557.0000 1.0000
67.8000 534.0000 1.0000
67.8100 574.0000 1.0000
67.8200 561.0000 1.0000
67.8300 580.0000 1.0000
67.8400 567.0000 1.0000
67.8500 564.0000 1.0000
67.8600 517.0000 1.0000
67.8700 548.0000 1.0000
67.8800 526.0000 1.0000
67.8900 564.0000 1.0000
67.9000 560.0000 1.0000
67.9100 543.0000 1.0000
67.9200 545.0000 1.0000
67.9300 558.0000 1.0000
67.9400 562.0000 1.0000
67.9500 540.0000 1.0000
67.9600 612.0000 1.0000
67.9700 536.0000 1.0000
67.9800 529.0000 1.0000
67.9900 544.0000 1.0000
68.0000 526.0000 1.0000
68.0100 540.0000 1.0000
68.0200 545.0000 1.0000
68.0300 571.0000 1.0000
68.0400 549.0000 1.0000
68.0500 529.0000 1.0000
68.0600 511.0000 1.0000
68.0700 502.0000 1.0000
68.0800 549.0000 1.0000
68.0900 531.0000 1.0000
68.1000 549.0000 1.0000
68.1100 556.0000 1.0000
68.1200 541.0000 1.0000
68.1300 529.0000 1.0000
68.1400 546.0000 1.0000
68.1500 532.0000 1.0000
68.1600 528.0000 1.0000
68.1700 524.0000 1.0000
68.1800 535.0000 1.0000
68.1900 559.0000 1.0000
68.2000 544.0000 1.0000
68.2100 571.0000 1.0000
68.2200 550.0000 1.0000
68.2300 533.0000 1.0000
68.2400 566.0000 1.0000
68.2500 563.0000 1.0000
68.2600 556.0000 1.0000
68.2700 547.0000 1.0000
68.2800 565.0000 1.0000
68.2900 572.0000 1.0000
68.3000 558.0000 1.0000
68.3100 544.0000 1.0000
68.3200 554.0000 1.0000
68.3300 507.0000 1.0000
68.3400 555.0000 1.0000
68.3500 550.0000 1.0000
68.3600 556.0000 1.0000
68.3700 541.0000 1.0000
68.3800 544.0000 1.0000
68.3900 567.0000 1.0000
68.4000 566.0000 1.0000
68.4100 569.0000 1.0000
68.4200 518.0000 1.0000
68.4300 503.0000 1.0000
68.4400 535.0000 1.0000
68.4500 550.0000 1.0000
68.4600 550.0000 1.0000
68.4700 554.0000 1.0000
68.4800 575.0000 1.0000
68.4900 553.0000 1.0000
68.5000 513.0000 1.0000
68.5100 563.0000 1.0000
68.5200 544.0000 1.0000
68.5300 546.0000 1.0000
68.5400 525.0000 1.0000
68.5500 555.0000 1.0000
68.5600 541.0000 1.0000
68.5700 507.0000 1.0000
68.5800 552.0000 1.0000
68.5900 527.0000 1.0000
68.6000 522.0000 1.0000
68.6100 524.0000 1.0000
68.6200 539.0000 1.0000
68.6300 563.0000 1.0000
68.6400 580.0000 1.0000
68.6500 590.0000 1.0000
68.6600 559.0000 1.0000
68.6700 512.0000 1.0000
68.6800 550.0000 1.0000
68.6900 543.0000 1.0000
68.7000 547.0000 1.0000
68.7100 520.0000 1.0000
68.7200 543.0000 1.0000
68.7300 540.0000 1.0000
68.7400 534.0000 1.0000
68.7500 545.0000 1.0000
68.7600 527.0000 1.0000
68.7700 510.0000 1.0000
68.7800 536.0000 1.0000
68.7900 514.0000 1.0000
68.8000 496.0000 1.0000
68.8100 553.0000 1.0000
68.8200 586.0000 1.0000
68.8300 525.0000 1.0000
68.8400 544.0000 1.0000
68.8500 499.0000 1.0000
68.8600 554.0000 1.0000
68.8700 556.0000 1.0000
68.8800 556.0000 1.0000
68.8900 545.0000 1.0000
68.9000 558.0000 1.0000
68.9100 568.0000 1.0000
68.9200 558.0000 1.0000
68.9300 494.0000 1.0000
68.9400 513.0000 1.0000
68.9500 528.0000 1.0000
68.9600 533.0000 1.0000
68.9700 542.0000 1.0000
68.9800 549.0000 1.0000
68.9900 548.0000 1.0000
69.0000 492.0000 1.0000
69.0100 492.0000 1.0000
69.0200 541.0000 1.0000
69.0300 517.0000 1.0000
69.0400 519.0000 1.0000
69.0500 490.0000 1.0000
69.0600 538.0000 1.0000
69.0700 596.0000 1.0000
69.0800 536.0000 1.0000
69.0900 518.0000 1.0000
69.1000 517.0000 1.0000
69.1100 543.0000 1.0000
69.1200 532.0000 1.0000
69.1300 506.0000 1.0000
69.1400 553.0000 1.0000
69.1500 513.0000 1.0000
69.1600 544.0000 1.0000
69.1700 528.0000 1.0000
69.1800 517.0000 1.0000
69.1900 535.0000 1.0000
69.2000 528.0000 1.0000
69.2100 532.0000 1.0000
69.2200 509.0000 1.0000
69.2300 548.0000 1.0000
69.2400 546.0000 1.0000
69.2500 555.0000 1.0000
69.2600 516.0000 1.0000
69.2700 519.0000 1.0000
69.2800 521.0000 1.0000
69.2900 567.0000 1.0000
69.3000 583.0000 1.0000
69.3100 505.0000 1.0000
69.3200 556.0000 1.0000
69.3300 525.0000 1.0000
69.3400 534.0000 1.0000
69.3500 538.0000 1.0000
69.3600 510.0000 1.0000
69.3700 541.0000 1.0000
69.3800 548.0000 1.0000
69.3900 514.0000 1.0000
69.4000 556.0000 1.0000
69.4100 543.0000 1.0000
69.4200 510.0000 1.0000
69.4300 521.0000 1.0000
69.4400 553.0000 1.0000
69.4500 546.0000 1.0000
69.4600 526.0000 1.0000
69.4700 518.0000 1.0000
69.4800 558.0000 1.0000
69.4900 522.0000 1.0000
69.5000 543.0000 1.0000
69.5100 550.0000 1.0000
69.5200 533.0000 1.0000
69.5300 545.0000 1.0000
69.5400 574.0000 1.0000
69.5500 535.0000 1.0000
69.5600 551.0000 1.0000
69.5700 539.0000 1.0000
69.5800 540.0000 1.0000
69.5900 546.0000 1.0000
69.6000 565.0000 1.0000
69.6100 519.0000 1.0000
69.6200 531.0000 1.0000
69.6300 534.0000 1.0000
69.6400 496.0000 1.0000
69.6500 513.0000 1.0000
69.6600 532.0000 1.0000
69.6700 527.0000 1.0000
69.6800 529.0000 1.0000
69.6900 526.0000 1.0000
69.7000 549.0000 1.0000
69.7100 539.0000 1.0000
69.7200 547.0000 1.0000
69.7300 547.0000 1.0000
69.7400 528.0000 1.0000
69.7500 531.0000 1.0000
69.7600 530.0000 1.0000
69.7700 525.0000 1.0000
69.7800 539.0000 1.0000
69.7900 527.0000 1.0000
69.8000 533.0000 1.0000
69.8100 533.0000 1.0000
69.8200 527.0000 1.0000
69.8300 476.0000 1.0000
69.8400 520.0000 1.0000
69.8500 501.0000 1.0000
69.8600 514.0000 1.0000
69.8700 565.0000 1.0000
69.8800 520.0000 1.0000
69.8900 575.0000 1.0000
69.9000 506.0000 1.0000
69.9100 500.0000 1.0000
69.9200 507.0000 1.0000
69.9300 491.0000 1.0000
69.9400 509.0000 1.0000
69.9500 512.0000 1.0000
69.9600 492.0000 1.0000
69.9700 528.0000 1.0000
69.9800 510.0000 1.0000
69.9900 509.0000 1.0000
70.0000 520.0000 1.0000
*RAS_INT_END
*RAS_TEMPERATURE_START
*RAS_TEMPERATURE_END
*RAS_DATA_END
