*RAS_DATA_START
*RAS_HEADER_START
*DISP_FMT_X "%.2f"
*DISP_FMT_Y "%.0f"
*DISP_FULLSCALE "15470.0000000000"
*DISP_LINE_COLOR "255.0000000000"
*DISP_LINE_STYLE "0.0000000000"
*DISP_LINE_WIDTH "0.2500000000"
*DISP_NOTE "測定データ-3"
*DISP_OFFSET_Y "0.0000000000"
*DISP_PEAKSEARCH_UNIT_Y "cps"
*DISP_RANGE_BOTTOM "0.0000000000"
*DISP_RANGE_LEFT "20.0000000000"
*DISP_RANGE_LOGCUTOFF "0.0100000000"
*DISP_RANGE_RIGHT "70.0000000000"
*DISP_RANGE_TOP "15470.0000000000"
*DISP_SCALE_MODE_Y "0.0000000000"
*DISP_TAB_NAME "2θ/θ"
*DISP_TITLE_Y "強度"
*DISP_UNIT_Y "cps"
*DISP_WINDOW_NAME "MSG_MACROENGINE"
*FILE_COMMENT " "
*FILE_MD5 ""
*FILE_MEMO " "
*FILE_OPERATOR "Administrator"
*FILE_SAMPLE " "
*FILE_TYPE "RAS_RAW"
*FILE_USERGROUP "システムマネージャ"
*FILE_VERSION "1.0000000000"
*HW_ATTACHMENT_ID "ATT0025"
*HW_ATTACHMENT_NAME "標準|Standard"
*HW_COUNTER_ID-0 "CUT0025"
*HW_COUNTER_ID-1 "CUT0020"
*HW_COUNTER_ID-2 "CUT0020"
*HW_COUNTER_ID-3 "CSL0021"
*HW_COUNTER_ID-4 "CMC0021"
*HW_COUNTER_NAME-0 "D/teX Ultra|D/teX Ultra"
*HW_COUNTER_NAME-1 "None|None"
*HW_COUNTER_NAME-2 "None|None"
*HW_COUNTER_NAME-3 "BBM|BBM"
*HW_COUNTER_NAME-4 "検出器モノクロメータ|Detector monochromator"
*HW_COUNTER_SELECT_NAME "D/teX Ultra|D/teX Ultra"
*HW_GONIOMETER_ID "GON0023"
*HW_GONIOMETER_NAME "SmartLab|SmartLab"
*HW_GONIOMETER_RADIUS-0 "90.0"
*HW_GONIOMETER_RADIUS-1 "114.0"
*HW_GONIOMETER_RADIUS-2 "190.0"
*HW_GONIOMETER_RADIUS-3 "300.0"
*HW_GONIOMETER_RADIUS-4 "187.0"
*HW_GONIOMETER_RADIUS-5 "300.0"
*HW_GONIOMETER_RADIUS-6 "113.0"
*HW_GONIOMETER_RADIUS-7 "331.0"
*HW_I_OPT_ID-0 "CBO0021"
*HW_I_OPT_ID-1 "ICR0023"
*HW_I_OPT_ID-2 "ISL0021"
*HW_I_OPT_ID-3 "ISO0021"
*HW_I_OPT_ID-4 "IAD0021"
*HW_I_OPT_ID-5 "IPR0001"
*HW_I_OPT_NAME-0 "CBOユニット|CBO unit"
*HW_I_OPT_NAME-1 "標準入射光学ユニット|Standard incident optical unit"
*HW_I_OPT_NAME-2 "標準入射スリットボックス|Standard incident slit box"
*HW_I_OPT_NAME-3 "入射平行スリット|Incident parallel slit"
*HW_I_OPT_NAME-4 "長手制限スリット|Length limiting slit"
*HW_I_OPT_NAME-5 "None|None"
*HW_R_ATTENUATER_AUTOMODE "0"
*HW_R_OPT_ID-0 "RSS0021"
*HW_R_OPT_ID-1 "RCR0023"
*HW_R_OPT_ID-2 "RSO0021"
*HW_R_OPT_ID-3 "RRS0021"
*HW_R_OPT_ID-4 "ATN0021"
*HW_R_OPT_ID-5 "RFL0021"
*HW_R_OPT_ID-6 "RAD0021"
*HW_R_OPT_NAME-0 "標準受光スリットボックス1|Standard receiving slit box # 1"
*HW_R_OPT_NAME-1 "標準受光光学ユニット1|Standard receiving unit # 1"
*HW_R_OPT_NAME-2 "標準受光光学ユニット2|Standard receiving optical unit # 2"
*HW_R_OPT_NAME-3 "標準受光スリットボックス2|Standard receiving slit box # 2"
*HW_R_OPT_NAME-4 "標準アッテネータ|Standard Attenuator"
*HW_R_OPT_NAME-5 "Cu Kβ|Cu K-beta"
*HW_R_OPT_NAME-6 "調整用受光スリット|Alignment receiving slit"
*HW_SAMPLE_HOLDER_ID "SMP0023"
*HW_SAMPLE_HOLDER_NAME "標準Zステージ|Standard Z stage"
*HW_XG_CURRENT_MAX "50"
*HW_XG_CURRENT_MIN "2"
*HW_XG_CURRENT_RESOLUTION "1"
*HW_XG_CURRENT_UNIT "mA"
*HW_XG_FOCUS "1mm x 10mm"
*HW_XG_FOCUS_TYPE "Normal"
*HW_XG_ID ""
*HW_XG_NAME "3kW 封入管(ID:1200)|3kW Sealed tube(ID:1200)"
*HW_XG_TARGET_ATOMIC_NUMBER "29.0000000000"
*HW_XG_TARGET_NAME "Cu"
*HW_XG_TYPE "Hermetic"
*HW_XG_VOLTAGE_MAX "60"
*HW_XG_VOLTAGE_MIN "20"
*HW_XG_VOLTAGE_RESOLUTION "1"
*HW_XG_VOLTAGE_UNIT "kV"
*HW_XG_WATT_MAX "1.500"
*HW_XG_WATT_UNIT "kW"
*HW_XG_WAVE_LENGTH_ALPHA1 "1.540593"
*HW_XG_WAVE_LENGTH_ALPHA2 "1.544414"
*HW_XG_WAVE_LENGTH_BETA "1.392250"
*MEAS_COND_AXIS_NAME-0 "2θ/θ"
*MEAS_COND_AXIS_NAME-1 "2θ"
*MEAS_COND_AXIS_NAME-2 "ω"
*MEAS_COND_AXIS_NAME-3 "Z"
*MEAS_COND_AXIS_NAME-4 "2θ/ω"
*MEAS_COND_AXIS_NAME-5 "θs"
*MEAS_COND_AXIS_NAME-6 "θd"
*MEAS_COND_AXIS_NAME-7 "Ts"
*MEAS_COND_AXIS_NAME-8 "CBO選択スリット"
*MEAS_COND_AXIS_NAME-9 "M"
*MEAS_COND_AXIS_NAME-10 "入射平行スリット"
*MEAS_COND_AXIS_NAME-11 "入射スリット"
*MEAS_COND_AXIS_NAME-12 ""
*MEAS_COND_AXIS_NAME-13 "Zs"
*MEAS_COND_AXIS_NAME-14 "入射光学素子"
*MEAS_COND_AXIS_NAME-15 "長手制限スリット"
*MEAS_COND_AXIS_NAME-16 "センタースリット"
*MEAS_COND_AXIS_NAME-17 "フィルター"
*MEAS_COND_AXIS_NAME-18 "受光スリット1"
*MEAS_COND_AXIS_NAME-19 "受光スリット2"
*MEAS_COND_AXIS_NAME-20 "受光光学素子"
*MEAS_COND_AXIS_NAME-21 "受光平行スリット"
*MEAS_COND_AXIS_NAME-22 "調整用受光スリット"
*MEAS_COND_AXIS_NAME-23 ""
*MEAS_COND_AXIS_NAME-24 ""
*MEAS_COND_AXIS_NAME-25 "Zd"
*MEAS_COND_AXIS_NAME-26 "アッテネータ"
*MEAS_COND_AXIS_NAME-27 "検出器モノクロメータ"
*MEAS_COND_AXIS_NAME-28 "モノクロメータスリット"
*MEAS_COND_AXIS_NAME-29 "プライマリビーム"
*MEAS_COND_AXIS_NAME-30 "PHA"
*MEAS_COND_AXIS_NAME_INTERNAL-0 "TwoThetaTheta"
*MEAS_COND_AXIS_NAME_INTERNAL-1 "TwoTheta"
*MEAS_COND_AXIS_NAME_INTERNAL-2 "Omega"
*MEAS_COND_AXIS_NAME_INTERNAL-3 "Z"
*MEAS_COND_AXIS_NAME_INTERNAL-4 "TwoThetaOmega"
*MEAS_COND_AXIS_NAME_INTERNAL-5 "ThetaS"
*MEAS_COND_AXIS_NAME_INTERNAL-6 "ThetaD"
*MEAS_COND_AXIS_NAME_INTERNAL-7 "Ts"
*MEAS_COND_AXIS_NAME_INTERNAL-8 "CBO"
*MEAS_COND_AXIS_NAME_INTERNAL-9 "CBO-M"
*MEAS_COND_AXIS_NAME_INTERNAL-10 "IncidentSollerSlit"
*MEAS_COND_AXIS_NAME_INTERNAL-11 "IncidentSlitBox"
*MEAS_COND_AXIS_NAME_INTERNAL-12 "IncidentSlitBox-_Axis"
*MEAS_COND_AXIS_NAME_INTERNAL-13 "Zs"
*MEAS_COND_AXIS_NAME_INTERNAL-14 "IncidentMonochromator"
*MEAS_COND_AXIS_NAME_INTERNAL-15 "IncidentAxdSlit"
*MEAS_COND_AXIS_NAME_INTERNAL-16 "CenterSlit"
*MEAS_COND_AXIS_NAME_INTERNAL-17 "Filter"
*MEAS_COND_AXIS_NAME_INTERNAL-18 "ReceivingSlitBox1"
*MEAS_COND_AXIS_NAME_INTERNAL-19 "ReceivingSlitBox2"
*MEAS_COND_AXIS_NAME_INTERNAL-20 "ReceivingOptics"
*MEAS_COND_AXIS_NAME_INTERNAL-21 "ReceivingSollerSlit"
*MEAS_COND_AXIS_NAME_INTERNAL-22 "ReceivingAxdSlit"
*MEAS_COND_AXIS_NAME_INTERNAL-23 "ReceivingSlitBox1-_Axis"
*MEAS_COND_AXIS_NAME_INTERNAL-24 "ReceivingSlitBox2-_Axis"
*MEAS_COND_AXIS_NAME_INTERNAL-25 "ReceivingSlitBox2-Zd"
*MEAS_COND_AXIS_NAME_INTERNAL-26 "Attenuator"
*MEAS_COND_AXIS_NAME_INTERNAL-27 "CounterMonochromator"
*MEAS_COND_AXIS_NAME_INTERNAL-28 "CounterSlit"
*MEAS_COND_AXIS_NAME_INTERNAL-29 "IncidentPrimary"
*MEAS_COND_AXIS_NAME_INTERNAL-30 "PHA"
*MEAS_COND_AXIS_NAME_MAGICNO-0 "83951616.0000000000"
*MEAS_COND_AXIS_NAME_MAGICNO-1 "268632064.0000000000"
*MEAS_COND_AXIS_NAME_MAGICNO-2 "268500992.0000000000"
*MEAS_COND_AXIS_NAME_MAGICNO-3 "285278208.0000000000"
*MEAS_COND_AXIS_NAME_MAGICNO-4 "83951616.0000000000"
*MEAS_COND_AXIS_NAME_MAGICNO-5 "131072.0000000000"
*MEAS_COND_AXIS_NAME_MAGICNO-6 "131072.0000000000"
*MEAS_COND_AXIS_NAME_MAGICNO-7 "318898176.0000000000"
*MEAS_COND_AXIS_NAME_MAGICNO-8 "20971521.0000000000"
*MEAS_COND_AXIS_NAME_MAGICNO-9 "285343744.0000000000"
*MEAS_COND_AXIS_NAME_MAGICNO-10 "20971521.0000000000"
*MEAS_COND_AXIS_NAME_MAGICNO-11 "22020097.0000000000"
*MEAS_COND_AXIS_NAME_MAGICNO-12 "25165824.0000000000"
*MEAS_COND_AXIS_NAME_MAGICNO-13 "318898176.0000000000"
*MEAS_COND_AXIS_NAME_MAGICNO-14 "1.0000000000"
*MEAS_COND_AXIS_NAME_MAGICNO-15 "20971521.0000000000"
*MEAS_COND_AXIS_NAME_MAGICNO-16 "20971521.0000000000"
*MEAS_COND_AXIS_NAME_MAGICNO-17 "20971521.0000000000"
*MEAS_COND_AXIS_NAME_MAGICNO-18 "23068673.0000000000"
*MEAS_COND_AXIS_NAME_MAGICNO-19 "23068673.0000000000"
*MEAS_COND_AXIS_NAME_MAGICNO-20 "20971521.0000000000"
*MEAS_COND_AXIS_NAME_MAGICNO-21 "20971521.0000000000"
*MEAS_COND_AXIS_NAME_MAGICNO-22 "20971521.0000000000"
*MEAS_COND_AXIS_NAME_MAGICNO-23 "25165824.0000000000"
*MEAS_COND_AXIS_NAME_MAGICNO-24 "25165824.0000000000"
*MEAS_COND_AXIS_NAME_MAGICNO-25 "285343744.0000000000"
*MEAS_COND_AXIS_NAME_MAGICNO-26 "17301505.0000000000"
*MEAS_COND_AXIS_NAME_MAGICNO-27 "20971521.0000000000"
*MEAS_COND_AXIS_NAME_MAGICNO-28 "20971521.0000000000"
*MEAS_COND_AXIS_NAME_MAGICNO-29 "20971521.0000000000"
*MEAS_COND_AXIS_NAME_MAGICNO-30 "0.0000000000"
*MEAS_COND_AXIS_OFFSET-0 "-"
*MEAS_COND_AXIS_OFFSET-1 "-0.1081000000"
*MEAS_COND_AXIS_OFFSET-2 "0.3758000000"
*MEAS_COND_AXIS_OFFSET-3 "-"
*MEAS_COND_AXIS_OFFSET-4 "-"
*MEAS_COND_AXIS_OFFSET-5 "0.3758000000"
*MEAS_COND_AXIS_OFFSET-6 "-0.4839000000"
*MEAS_COND_AXIS_OFFSET-7 "-"
*MEAS_COND_AXIS_OFFSET-8 "-"
*MEAS_COND_AXIS_OFFSET-9 "-"
*MEAS_COND_AXIS_OFFSET-10 "-"
*MEAS_COND_AXIS_OFFSET-11 "-"
*MEAS_COND_AXIS_OFFSET-12 "-"
*MEAS_COND_AXIS_OFFSET-13 "-"
*MEAS_COND_AXIS_OFFSET-14 "-"
*MEAS_COND_AXIS_OFFSET-15 "-"
*MEAS_COND_AXIS_OFFSET-16 "-"
*MEAS_COND_AXIS_OFFSET-17 "-"
*MEAS_COND_AXIS_OFFSET-18 "-"
*MEAS_COND_AXIS_OFFSET-19 "-"
*MEAS_COND_AXIS_OFFSET-20 "-"
*MEAS_COND_AXIS_OFFSET-21 "-"
*MEAS_COND_AXIS_OFFSET-22 "-"
*MEAS_COND_AXIS_OFFSET-23 "-"
*MEAS_COND_AXIS_OFFSET-24 "-"
*MEAS_COND_AXIS_OFFSET-25 "-"
*MEAS_COND_AXIS_OFFSET-26 "-"
*MEAS_COND_AXIS_OFFSET-27 "-"
*MEAS_COND_AXIS_OFFSET-28 "-"
*MEAS_COND_AXIS_OFFSET-29 "-"
*MEAS_COND_AXIS_OFFSET-30 "-"
*MEAS_COND_AXIS_POSITION-0 "0.0000000000"
*MEAS_COND_AXIS_POSITION-1 "0.0000000000"
*MEAS_COND_AXIS_POSITION-2 "0.0000000000"
*MEAS_COND_AXIS_POSITION-3 "-0.5500000000"
*MEAS_COND_AXIS_POSITION-4 "0.0000000000"
*MEAS_COND_AXIS_POSITION-5 "0.0000000000"
*MEAS_COND_AXIS_POSITION-6 "0.0000000000"
*MEAS_COND_AXIS_POSITION-7 "-0.4278800000"
*MEAS_COND_AXIS_POSITION-8 "BB"
*MEAS_COND_AXIS_POSITION-9 "0.0000000000"
*MEAS_COND_AXIS_POSITION-10 "Soller_slit_5.0deg"
*MEAS_COND_AXIS_POSITION-11 "2/3deg"
*MEAS_COND_AXIS_POSITION-12 "2.2088000000"
*MEAS_COND_AXIS_POSITION-13 "-0.4140600000"
*MEAS_COND_AXIS_POSITION-14 "0.0000000000"
*MEAS_COND_AXIS_POSITION-15 "10.0mm"
*MEAS_COND_AXIS_POSITION-16 "None"
*MEAS_COND_AXIS_POSITION-17 "Cu_K-beta"
*MEAS_COND_AXIS_POSITION-18 "13.000mm"
*MEAS_COND_AXIS_POSITION-19 "13.000mm"
*MEAS_COND_AXIS_POSITION-20 "No_unit"
*MEAS_COND_AXIS_POSITION-21 "Soller_slit_5.0deg"
*MEAS_COND_AXIS_POSITION-22 "None"
*MEAS_COND_AXIS_POSITION-23 "13.0000000000"
*MEAS_COND_AXIS_POSITION-24 "13.0000000000"
*MEAS_COND_AXIS_POSITION-25 "0.0109400000"
*MEAS_COND_AXIS_POSITION-26 "Open"
*MEAS_COND_AXIS_POSITION-27 "None"
*MEAS_COND_AXIS_POSITION-28 "None"
*MEAS_COND_AXIS_POSITION-29 "None"
*MEAS_COND_AXIS_POSITION-30 "38.0000000000"
*MEAS_COND_AXIS_UNIT-0 "deg"
*MEAS_COND_AXIS_UNIT-1 "deg"
*MEAS_COND_AXIS_UNIT-2 "deg"
*MEAS_COND_AXIS_UNIT-3 "mm"
*MEAS_COND_AXIS_UNIT-4 "deg"
*MEAS_COND_AXIS_UNIT-5 "deg"
*MEAS_COND_AXIS_UNIT-6 "deg"
*MEAS_COND_AXIS_UNIT-7 "mm"
*MEAS_COND_AXIS_UNIT-8 ""
*MEAS_COND_AXIS_UNIT-9 "pulse"
*MEAS_COND_AXIS_UNIT-10 ""
*MEAS_COND_AXIS_UNIT-11 ""
*MEAS_COND_AXIS_UNIT-12 "mm"
*MEAS_COND_AXIS_UNIT-13 "mm"
*MEAS_COND_AXIS_UNIT-14 ""
*MEAS_COND_AXIS_UNIT-15 ""
*MEAS_COND_AXIS_UNIT-16 ""
*MEAS_COND_AXIS_UNIT-17 ""
*MEAS_COND_AXIS_UNIT-18 ""
*MEAS_COND_AXIS_UNIT-19 ""
*MEAS_COND_AXIS_UNIT-20 ""
*MEAS_COND_AXIS_UNIT-21 ""
*MEAS_COND_AXIS_UNIT-22 ""
*MEAS_COND_AXIS_UNIT-23 "mm"
*MEAS_COND_AXIS_UNIT-24 "mm"
*MEAS_COND_AXIS_UNIT-25 "mm"
*MEAS_COND_AXIS_UNIT-26 ""
*MEAS_COND_AXIS_UNIT-27 ""
*MEAS_COND_AXIS_UNIT-28 ""
*MEAS_COND_AXIS_UNIT-29 ""
*MEAS_COND_AXIS_UNIT-30 "div"
*MEAS_COND_COUNTER_CNTLOSS_CORR "0.0000000000"
*MEAS_COND_COUNTER_PHABASE "38.0000000000"
*MEAS_COND_COUNTER_PHAWINDOW "16.0000000000"
*MEAS_COND_COUNTER_PHA_UNIT "div"
*MEAS_COND_COUNTER_TAUDIFF "30.0000000000"
*MEAS_COND_COUNTER_TAUINT "0.0000000000"
*MEAS_COND_IRRADIATION_MODE "OFF"
*MEAS_COND_IRRADIATION_WIDTH ""
*MEAS_COND_OPT_ATTR "集中法"
*MEAS_COND_OPT_NAME "@集中法"
*MEAS_COND_UNSYMMETRIC_MODE "OFF"
*MEAS_COND_XG_CURRENT "30.0000000000"
*MEAS_COND_XG_VOLTAGE "40.0000000000"
*MEAS_COND_XG_WAVE_TYPE "Ka"
*MEAS_DATA_COUNT "5001.0000000000"
*MEAS_SCAN_AXIS_X "2θ/θ"
*MEAS_SCAN_AXIS_X_INTERNAL "TwoThetaTheta"
*MEAS_SCAN_END_TIME "07/14/21 13:24:40"
*MEAS_SCAN_MODE "CONTINUOUS"
*MEAS_SCAN_MONITOR "0"
*MEAS_SCAN_RESOLUTION_X "0.0002"
*MEAS_SCAN_SPEED "1.0"
*MEAS_SCAN_SPEED_UNIT "deg/min"
*MEAS_SCAN_START "20.0000000000"
*MEAS_SCAN_START_TIME "07/14/21 12:31:49"
*MEAS_SCAN_STEP "0.0100000000"
*MEAS_SCAN_STOP "70.0000000000"
*MEAS_SCAN_UNIT_X "deg"
*MEAS_SCAN_UNIT_Y "counts"
*RAS_HEADER_END
*RAS_INT_START
20.0000 1716.0000 1.0000
20.0100 1679.0000 1.0000
20.0200 1670.0000 1.0000
20.0300 1637.0000 1.0000
20.0400 1691.0000 1.0000
20.0500 1645.0000 1.0000
20.0600 1657.0000 1.0000
20.0700 1694.0000 1.0000
20.0800 1623.0000 1.0000
20.0900 1741.0000 1.0000
20.1000 1675.0000 1.0000
20.1100 1673.0000 1.0000
20.1200 1707.0000 1.0000
20.1300 1754.0000 1.0000
20.1400 1648.0000 1.0000
20.1500 1726.0000 1.0000
20.1600 1712.0000 1.0000
20.1700 1728.0000 1.0000
20.1800 1709.0000 1.0000
20.1900 1660.0000 1.0000
20.2000 1685.0000 1.0000
20.2100 1700.0000 1.0000
20.2200 1676.0000 1.0000
20.2300 1635.0000 1.0000
20.2400 1690.0000 1.0000
20.2500 1648.0000 1.0000
20.2600 1600.0000 1.0000
20.2700 1631.0000 1.0000
20.2800 1757.0000 1.0000
20.2900 1744.0000 1.0000
20.3000 1686.0000 1.0000
20.3100 1661.0000 1.0000
20.3200 1705.0000 1.0000
20.3300 1692.0000 1.0000
20.3400 1679.0000 1.0000
20.3500 1717.0000 1.0000
20.3600 1705.0000 1.0000
20.3700 1670.0000 1.0000
20.3800 1650.0000 1.0000
20.3900 1630.0000 1.0000
20.4000 1680.0000 1.0000
20.4100 1705.0000 1.0000
20.4200 1753.0000 1.0000
20.4300 1694.0000 1.0000
20.4400 1689.0000 1.0000
20.4500 1665.0000 1.0000
20.4600 1718.0000 1.0000
20.4700 1658.0000 1.0000
20.4800 1736.0000 1.0000
20.4900 1654.0000 1.0000
20.5000 1723.0000 1.0000
20.5100 1629.0000 1.0000
20.5200 1694.0000 1.0000
20.5300 1635.0000 1.0000
20.5400 1681.0000 1.0000
20.5500 1677.0000 1.0000
20.5600 1652.0000 1.0000
20.5700 1720.0000 1.0000
20.5800 1663.0000 1.0000
20.5900 1615.0000 1.0000
20.6000 1693.0000 1.0000
20.6100 1687.0000 1.0000
20.6200 1666.0000 1.0000
20.6300 1710.0000 1.0000
20.6400 1692.0000 1.0000
20.6500 1703.0000 1.0000
20.6600 1664.0000 1.0000
20.6700 1656.0000 1.0000
20.6800 1694.0000 1.0000
20.6900 1718.0000 1.0000
20.7000 1575.0000 1.0000
20.7100 1628.0000 1.0000
20.7200 1701.0000 1.0000
20.7300 1668.0000 1.0000
20.7400 1717.0000 1.0000
20.7500 1718.0000 1.0000
20.7600 1704.0000 1.0000
20.7700 1675.0000 1.0000
20.7800 1745.0000 1.0000
20.7900 1676.0000 1.0000
20.8000 1691.0000 1.0000
20.8100 1637.0000 1.0000
20.8200 1704.0000 1.0000
20.8300 1664.0000 1.0000
20.8400 1669.0000 1.0000
20.8500 1658.0000 1.0000
20.8600 1746.0000 1.0000
20.8700 1682.0000 1.0000
20.8800 1676.0000 1.0000
20.8900 1682.0000 1.0000
20.9000 1652.0000 1.0000
20.9100 1702.0000 1.0000
20.9200 1659.0000 1.0000
20.9300 1607.0000 1.0000
20.9400 1670.0000 1.0000
20.9500 1681.0000 1.0000
20.9600 1683.0000 1.0000
20.9700 1724.0000 1.0000
20.9800 1672.0000 1.0000
20.9900 1718.0000 1.0000
21.0000 1740.0000 1.0000
21.0100 1689.0000 1.0000
21.0200 1677.0000 1.0000
21.0300 1717.0000 1.0000
21.0400 1651.0000 1.0000
21.0500 1696.0000 1.0000
21.0600 1697.0000 1.0000
21.0700 1696.0000 1.0000
21.0800 1736.0000 1.0000
21.0900 1740.0000 1.0000
21.1000 1725.0000 1.0000
21.1100 1694.0000 1.0000
21.1200 1746.0000 1.0000
21.1300 1704.0000 1.0000
21.1400 1691.0000 1.0000
21.1500 1660.0000 1.0000
21.1600 1685.0000 1.0000
21.1700 1724.0000 1.0000
21.1800 1654.0000 1.0000
21.1900 1708.0000 1.0000
21.2000 1632.0000 1.0000
21.2100 1669.0000 1.0000
21.2200 1702.0000 1.0000
21.2300 1711.0000 1.0000
21.2400 1671.0000 1.0000
21.2500 1585.0000 1.0000
21.2600 1698.0000 1.0000
21.2700 1632.0000 1.0000
21.2800 1694.0000 1.0000
21.2900 1700.0000 1.0000
21.3000 1691.0000 1.0000
21.3100 1685.0000 1.0000
21.3200 1721.0000 1.0000
21.3300 1736.0000 1.0000
21.3400 1700.0000 1.0000
21.3500 1654.0000 1.0000
21.3600 1731.0000 1.0000
21.3700 1694.0000 1.0000
21.3800 1696.0000 1.0000
21.3900 1690.0000 1.0000
21.4000 1668.0000 1.0000
21.4100 1678.0000 1.0000
21.4200 1723.0000 1.0000
21.4300 1683.0000 1.0000
21.4400 1692.0000 1.0000
21.4500 1756.0000 1.0000
21.4600 1727.0000 1.0000
21.4700 1664.0000 1.0000
21.4800 1736.0000 1.0000
21.4900 1722.0000 1.0000
21.5000 1704.0000 1.0000
21.5100 1721.0000 1.0000
21.5200 1681.0000 1.0000
21.5300 1702.0000 1.0000
21.5400 1722.0000 1.0000
21.5500 1698.0000 1.0000
21.5600 1705.0000 1.0000
21.5700 1677.0000 1.0000
21.5800 1616.0000 1.0000
21.5900 1719.0000 1.0000
21.6000 1731.0000 1.0000
21.6100 1725.0000 1.0000
21.6200 1664.0000 1.0000
21.6300 1735.0000 1.0000
21.6400 1788.0000 1.0000
21.6500 1695.0000 1.0000
21.6600 1733.0000 1.0000
21.6700 1715.0000 1.0000
21.6800 1675.0000 1.0000
21.6900 1682.0000 1.0000
21.7000 1735.0000 1.0000
21.7100 1645.0000 1.0000
21.7200 1673.0000 1.0000
21.7300 1718.0000 1.0000
21.7400 1745.0000 1.0000
21.7500 1709.0000 1.0000
21.7600 1709.0000 1.0000
21.7700 1724.0000 1.0000
21.7800 1710.0000 1.0000
21.7900 1683.0000 1.0000
21.8000 1664.0000 1.0000
21.8100 1718.0000 1.0000
21.8200 1779.0000 1.0000
21.8300 1713.0000 1.0000
21.8400 1718.0000 1.0000
21.8500 1725.0000 1.0000
21.8600 1708.0000 1.0000
21.8700 1680.0000 1.0000
21.8800 1692.0000 1.0000
21.8900 1689.0000 1.0000
21.9000 1666.0000 1.0000
21.9100 1688.0000 1.0000
21.9200 1687.0000 1.0000
21.9300 1725.0000 1.0000
21.9400 1636.0000 1.0000
21.9500 1695.0000 1.0000
21.9600 1756.0000 1.0000
21.9700 1810.0000 1.0000
21.9800 1782.0000 1.0000
21.9900 1698.0000 1.0000
22.0000 1710.0000 1.0000
22.0100 1660.0000 1.0000
22.0200 1766.0000 1.0000
22.0300 1697.0000 1.0000
22.0400 1713.0000 1.0000
22.0500 1755.0000 1.0000
22.0600 1750.0000 1.0000
22.0700 1725.0000 1.0000
22.0800 1668.0000 1.0000
22.0900 1774.0000 1.0000
22.1000 1721.0000 1.0000
22.1100 1658.0000 1.0000
22.1200 1701.0000 1.0000
22.1300 1744.0000 1.0000
22.1400 1673.0000 1.0000
22.1500 1710.0000 1.0000
22.1600 1675.0000 1.0000
22.1700 1732.0000 1.0000
22.1800 1691.0000 1.0000
22.1900 1709.0000 1.0000
22.2000 1675.0000 1.0000
22.2100 1704.0000 1.0000
22.2200 1737.0000 1.0000
22.2300 1707.0000 1.0000
22.2400 1721.0000 1.0000
22.2500 1674.0000 1.0000
22.2600 1775.0000 1.0000
22.2700 1731.0000 1.0000
22.2800 1741.0000 1.0000
22.2900 1681.0000 1.0000
22.3000 1673.0000 1.0000
22.3100 1697.0000 1.0000
22.3200 1777.0000 1.0000
22.3300 1752.0000 1.0000
22.3400 1666.0000 1.0000
22.3500 1687.0000 1.0000
22.3600 1727.0000 1.0000
22.3700 1720.0000 1.0000
22.3800 1832.0000 1.0000
22.3900 1728.0000 1.0000
22.4000 1754.0000 1.0000
22.4100 1728.0000 1.0000
22.4200 1691.0000 1.0000
22.4300 1679.0000 1.0000
22.4400 1698.0000 1.0000
22.4500 1702.0000 1.0000
22.4600 1766.0000 1.0000
22.4700 1712.0000 1.0000
22.4800 1748.0000 1.0000
22.4900 1744.0000 1.0000
22.5000 1746.0000 1.0000
22.5100 1674.0000 1.0000
22.5200 1754.0000 1.0000
22.5300 1680.0000 1.0000
22.5400 1795.0000 1.0000
22.5500 1638.0000 1.0000
22.5600 1764.0000 1.0000
22.5700 1789.0000 1.0000
22.5800 1677.0000 1.0000
22.5900 1753.0000 1.0000
22.6000 1730.0000 1.0000
22.6100 1656.0000 1.0000
22.6200 1713.0000 1.0000
22.6300 1762.0000 1.0000
22.6400 1730.0000 1.0000
22.6500 1797.0000 1.0000
22.6600 1673.0000 1.0000
22.6700 1722.0000 1.0000
22.6800 1725.0000 1.0000
22.6900 1623.0000 1.0000
22.7000 1787.0000 1.0000
22.7100 1761.0000 1.0000
22.7200 1734.0000 1.0000
22.7300 1732.0000 1.0000
22.7400 1736.0000 1.0000
22.7500 1777.0000 1.0000
22.7600 1772.0000 1.0000
22.7700 1732.0000 1.0000
22.7800 1719.0000 1.0000
22.7900 1742.0000 1.0000
22.8000 1712.0000 1.0000
22.8100 1676.0000 1.0000
22.8200 1806.0000 1.0000
22.8300 1729.0000 1.0000
22.8400 1677.0000 1.0000
22.8500 1729.0000 1.0000
22.8600 1759.0000 1.0000
22.8700 1708.0000 1.0000
22.8800 1748.0000 1.0000
22.8900 1681.0000 1.0000
22.9000 1706.0000 1.0000
22.9100 1713.0000 1.0000
22.9200 1722.0000 1.0000
22.9300 1765.0000 1.0000
22.9400 1738.0000 1.0000
22.9500 1742.0000 1.0000
22.9600 1742.0000 1.0000
22.9700 1735.0000 1.0000
22.9800 1735.0000 1.0000
22.9900 1764.0000 1.0000
23.0000 1739.0000 1.0000
23.0100 1697.0000 1.0000
23.0200 1707.0000 1.0000
23.0300 1798.0000 1.0000
23.0400 1731.0000 1.0000
23.0500 1838.0000 1.0000
23.0600 1750.0000 1.0000
23.0700 1741.0000 1.0000
23.0800 1745.0000 1.0000
23.0900 1782.0000 1.0000
23.1000 1800.0000 1.0000
23.1100 1765.0000 1.0000
23.1200 1752.0000 1.0000
23.1300 1683.0000 1.0000
23.1400 1775.0000 1.0000
23.1500 1792.0000 1.0000
23.1600 1754.0000 1.0000
23.1700 1755.0000 1.0000
23.1800 1721.0000 1.0000
23.1900 1765.0000 1.0000
23.2000 1743.0000 1.0000
23.2100 1718.0000 1.0000
23.2200 1750.0000 1.0000
23.2300 1778.0000 1.0000
23.2400 1734.0000 1.0000
23.2500 1714.0000 1.0000
23.2600 1748.0000 1.0000
23.2700 1740.0000 1.0000
23.2800 1750.0000 1.0000
23.2900 1779.0000 1.0000
23.3000 1797.0000 1.0000
23.3100 1790.0000 1.0000
23.3200 1744.0000 1.0000
23.3300 1723.0000 1.0000
23.3400 1769.0000 1.0000
23.3500 1772.0000 1.0000
23.3600 1834.0000 1.0000
23.3700 1692.0000 1.0000
23.3800 1772.0000 1.0000
23.3900 1713.0000 1.0000
23.4000 1740.0000 1.0000
23.4100 1721.0000 1.0000
23.4200 1752.0000 1.0000
23.4300 1773.0000 1.0000
23.4400 1776.0000 1.0000
23.4500 1749.0000 1.0000
23.4600 1730.0000 1.0000
23.4700 1732.0000 1.0000
23.4800 1778.0000 1.0000
23.4900 1790.0000 1.0000
23.5000 1768.0000 1.0000
23.5100 1695.0000 1.0000
23.5200 1730.0000 1.0000
23.5300 1800.0000 1.0000
23.5400 1762.0000 1.0000
23.5500 1735.0000 1.0000
23.5600 1712.0000 1.0000
23.5700 1781.0000 1.0000
23.5800 1698.0000 1.0000
23.5900 1717.0000 1.0000
23.6000 1799.0000 1.0000
23.6100 1769.0000 1.0000
23.6200 1740.0000 1.0000
23.6300 1705.0000 1.0000
23.6400 1715.0000 1.0000
23.6500 1705.0000 1.0000
23.6600 1770.0000 1.0000
23.6700 1723.0000 1.0000
23.6800 1807.0000 1.0000
23.6900 1758.0000 1.0000
23.7000 1729.0000 1.0000
23.7100 1802.0000 1.0000
23.7200 1755.0000 1.0000
23.7300 1819.0000 1.0000
23.7400 1739.0000 1.0000
23.7500 1749.0000 1.0000
23.7600 1695.0000 1.0000
23.7700 1750.0000 1.0000
23.7800 1780.0000 1.0000
23.7900 1821.0000 1.0000
23.8000 1738.0000 1.0000
23.8100 1725.0000 1.0000
23.8200 1769.0000 1.0000
23.8300 1769.0000 1.0000
23.8400 1797.0000 1.0000
23.8500 1723.0000 1.0000
23.8600 1704.0000 1.0000
23.8700 1765.0000 1.0000
23.8800 1710.0000 1.0000
23.8900 1749.0000 1.0000
23.9000 1815.0000 1.0000
23.9100 1742.0000 1.0000
23.9200 1789.0000 1.0000
23.9300 1765.0000 1.0000
23.9400 1781.0000 1.0000
23.9500 1722.0000 1.0000
23.9600 1836.0000 1.0000
23.9700 1728.0000 1.0000
23.9800 1675.0000 1.0000
23.9900 1709.0000 1.0000
24.0000 1746.0000 1.0000
24.0100 1789.0000 1.0000
24.0200 1795.0000 1.0000
24.0300 1723.0000 1.0000
24.0400 1715.0000 1.0000
24.0500 1726.0000 1.0000
24.0600 1797.0000 1.0000
24.0700 1716.0000 1.0000
24.0800 1740.0000 1.0000
24.0900 1737.0000 1.0000
24.1000 1743.0000 1.0000
24.1100 1795.0000 1.0000
24.1200 1724.0000 1.0000
24.1300 1735.0000 1.0000
24.1400 1703.0000 1.0000
24.1500 1726.0000 1.0000
24.1600 1811.0000 1.0000
24.1700 1819.0000 1.0000
24.1800 1735.0000 1.0000
24.1900 1762.0000 1.0000
24.2000 1754.0000 1.0000
24.2100 1789.0000 1.0000
24.2200 1799.0000 1.0000
24.2300 1757.0000 1.0000
24.2400 1786.0000 1.0000
24.2500 1761.0000 1.0000
24.2600 1703.0000 1.0000
24.2700 1775.0000 1.0000
24.2800 1771.0000 1.0000
24.2900 1752.0000 1.0000
24.3000 1792.0000 1.0000
24.3100 1746.0000 1.0000
24.3200 1729.0000 1.0000
24.3300 1797.0000 1.0000
24.3400 1767.0000 1.0000
24.3500 1720.0000 1.0000
24.3600 1822.0000 1.0000
24.3700 1750.0000 1.0000
24.3800 1811.0000 1.0000
24.3900 1793.0000 1.0000
24.4000 1853.0000 1.0000
24.4100 1747.0000 1.0000
24.4200 1779.0000 1.0000
24.4300 1796.0000 1.0000
24.4400 1815.0000 1.0000
24.4500 1703.0000 1.0000
24.4600 1710.0000 1.0000
24.4700 1788.0000 1.0000
24.4800 1754.0000 1.0000
24.4900 1843.0000 1.0000
24.5000 1787.0000 1.0000
24.5100 1803.0000 1.0000
24.5200 1732.0000 1.0000
24.5300 1722.0000 1.0000
24.5400 1772.0000 1.0000
24.5500 1802.0000 1.0000
24.5600 1680.0000 1.0000
24.5700 1841.0000 1.0000
24.5800 1805.0000 1.0000
24.5900 1782.0000 1.0000
24.6000 1750.0000 1.0000
24.6100 1759.0000 1.0000
24.6200 1823.0000 1.0000
24.6300 1853.0000 1.0000
24.6400 1825.0000 1.0000
24.6500 1785.0000 1.0000
24.6600 1774.0000 1.0000
24.6700 1870.0000 1.0000
24.6800 1787.0000 1.0000
24.6900 1805.0000 1.0000
24.7000 1799.0000 1.0000
24.7100 1844.0000 1.0000
24.7200 1780.0000 1.0000
24.7300 1765.0000 1.0000
24.7400 1818.0000 1.0000
24.7500 1789.0000 1.0000
24.7600 1849.0000 1.0000
24.7700 1818.0000 1.0000
24.7800 1785.0000 1.0000
24.7900 1771.0000 1.0000
24.8000 1733.0000 1.0000
24.8100 1803.0000 1.0000
24.8200 1788.0000 1.0000
24.8300 1784.0000 1.0000
24.8400 1834.0000 1.0000
24.8500 1833.0000 1.0000
24.8600 1820.0000 1.0000
24.8700 1779.0000 1.0000
24.8800 1780.0000 1.0000
24.8900 1795.0000 1.0000
24.9000 1755.0000 1.0000
24.9100 1788.0000 1.0000
24.9200 1873.0000 1.0000
24.9300 1820.0000 1.0000
24.9400 1858.0000 1.0000
24.9500 1834.0000 1.0000
24.9600 1819.0000 1.0000
24.9700 1763.0000 1.0000
24.9800 1820.0000 1.0000
24.9900 1827.0000 1.0000
25.0000 1817.0000 1.0000
25.0100 1824.0000 1.0000
25.0200 1852.0000 1.0000
25.0300 1855.0000 1.0000
25.0400 1854.0000 1.0000
25.0500 1875.0000 1.0000
25.0600 1860.0000 1.0000
25.0700 1825.0000 1.0000
25.0800 1819.0000 1.0000
25.0900 1887.0000 1.0000
25.1000 1889.0000 1.0000
25.1100 1807.0000 1.0000
25.1200 1850.0000 1.0000
25.1300 1783.0000 1.0000
25.1400 1790.0000 1.0000
25.1500 1897.0000 1.0000
25.1600 1891.0000 1.0000
25.1700 1836.0000 1.0000
25.1800 1840.0000 1.0000
25.1900 1819.0000 1.0000
25.2000 1848.0000 1.0000
25.2100 1823.0000 1.0000
25.2200 1807.0000 1.0000
25.2300 1815.0000 1.0000
25.2400 1817.0000 1.0000
25.2500 1817.0000 1.0000
25.2600 1789.0000 1.0000
25.2700 1821.0000 1.0000
25.2800 1813.0000 1.0000
25.2900 1769.0000 1.0000
25.3000 1832.0000 1.0000
25.3100 1861.0000 1.0000
25.3200 1834.0000 1.0000
25.3300 1856.0000 1.0000
25.3400 1781.0000 1.0000
25.3500 1765.0000 1.0000
25.3600 1813.0000 1.0000
25.3700 1875.0000 1.0000
25.3800 1803.0000 1.0000
25.3900 1858.0000 1.0000
25.4000 1800.0000 1.0000
25.4100 1828.0000 1.0000
25.4200 1813.0000 1.0000
25.4300 1838.0000 1.0000
25.4400 1773.0000 1.0000
25.4500 1781.0000 1.0000
25.4600 1838.0000 1.0000
25.4700 1847.0000 1.0000
25.4800 1796.0000 1.0000
25.4900 1813.0000 1.0000
25.5000 1803.0000 1.0000
25.5100 1806.0000 1.0000
25.5200 1778.0000 1.0000
25.5300 1808.0000 1.0000
25.5400 1772.0000 1.0000
25.5500 1801.0000 1.0000
25.5600 1834.0000 1.0000
25.5700 1756.0000 1.0000
25.5800 1808.0000 1.0000
25.5900 1839.0000 1.0000
25.6000 1782.0000 1.0000
25.6100 1825.0000 1.0000
25.6200 1795.0000 1.0000
25.6300 1800.0000 1.0000
25.6400 1808.0000 1.0000
25.6500 1781.0000 1.0000
25.6600 1854.0000 1.0000
25.6700 1840.0000 1.0000
25.6800 1843.0000 1.0000
25.6900 1862.0000 1.0000
25.7000 1731.0000 1.0000
25.7100 1806.0000 1.0000
25.7200 1824.0000 1.0000
25.7300 1860.0000 1.0000
25.7400 1830.0000 1.0000
25.7500 1767.0000 1.0000
25.7600 1794.0000 1.0000
25.7700 1841.0000 1.0000
25.7800 1870.0000 1.0000
25.7900 1856.0000 1.0000
25.8000 1829.0000 1.0000
25.8100 1787.0000 1.0000
25.8200 1828.0000 1.0000
25.8300 1848.0000 1.0000
25.8400 1840.0000 1.0000
25.8500 1795.0000 1.0000
25.8600 1843.0000 1.0000
25.8700 1803.0000 1.0000
25.8800 1740.0000 1.0000
25.8900 1815.0000 1.0000
25.9000 1838.0000 1.0000
25.9100 1808.0000 1.0000
25.9200 1759.0000 1.0000
25.9300 1810.0000 1.0000
25.9400 1794.0000 1.0000
25.9500 1861.0000 1.0000
25.9600 1805.0000 1.0000
25.9700 1740.0000 1.0000
25.9800 1820.0000 1.0000
25.9900 1851.0000 1.0000
26.0000 1871.0000 1.0000
26.0100 1829.0000 1.0000
26.0200 1840.0000 1.0000
26.0300 1851.0000 1.0000
26.0400 1840.0000 1.0000
26.0500 1816.0000 1.0000
26.0600 1807.0000 1.0000
26.0700 1782.0000 1.0000
26.0800 1787.0000 1.0000
26.0900 1820.0000 1.0000
26.1000 1836.0000 1.0000
26.1100 1811.0000 1.0000
26.1200 1837.0000 1.0000
26.1300 1822.0000 1.0000
26.1400 1809.0000 1.0000
26.1500 1786.0000 1.0000
26.1600 1844.0000 1.0000
26.1700 1809.0000 1.0000
26.1800 1887.0000 1.0000
26.1900 1929.0000 1.0000
26.2000 1838.0000 1.0000
26.2100 1860.0000 1.0000
26.2200 1862.0000 1.0000
26.2300 1879.0000 1.0000
26.2400 1826.0000 1.0000
26.2500 1879.0000 1.0000
26.2600 1850.0000 1.0000
26.2700 1832.0000 1.0000
26.2800 1828.0000 1.0000
26.2900 1780.0000 1.0000
26.3000 1837.0000 1.0000
26.3100 1844.0000 1.0000
26.3200 1860.0000 1.0000
26.3300 1906.0000 1.0000
26.3400 1895.0000 1.0000
26.3500 1830.0000 1.0000
26.3600 1870.0000 1.0000
26.3700 1896.0000 1.0000
26.3800 1888.0000 1.0000
26.3900 1841.0000 1.0000
26.4000 1896.0000 1.0000
26.4100 1867.0000 1.0000
26.4200 1949.0000 1.0000
26.4300 1869.0000 1.0000
26.4400 1877.0000 1.0000
26.4500 1848.0000 1.0000
26.4600 1823.0000 1.0000
26.4700 1907.0000 1.0000
26.4800 1995.0000 1.0000
26.4900 1981.0000 1.0000
26.5000 1906.0000 1.0000
26.5100 1880.0000 1.0000
26.5200 1868.0000 1.0000
26.5300 1841.0000 1.0000
26.5400 1902.0000 1.0000
26.5500 1914.0000 1.0000
26.5600 1875.0000 1.0000
26.5700 1864.0000 1.0000
26.5800 1908.0000 1.0000
26.5900 1935.0000 1.0000
26.6000 1927.0000 1.0000
26.6100 1946.0000 1.0000
26.6200 1934.0000 1.0000
26.6300 1937.0000 1.0000
26.6400 1924.0000 1.0000
26.6500 1941.0000 1.0000
26.6600 2004.0000 1.0000
26.6700 1915.0000 1.0000
26.6800 1968.0000 1.0000
26.6900 1943.0000 1.0000
26.7000 1962.0000 1.0000
26.7100 2025.0000 1.0000
26.7200 1985.0000 1.0000
26.7300 1959.0000 1.0000
26.7400 2022.0000 1.0000
26.7500 1970.0000 1.0000
26.7600 2027.0000 1.0000
26.7700 1938.0000 1.0000
26.7800 1984.0000 1.0000
26.7900 1989.0000 1.0000
26.8000 2020.0000 1.0000
26.8100 2014.0000 1.0000
26.8200 2096.0000 1.0000
26.8300 2012.0000 1.0000
26.8400 2003.0000 1.0000
26.8500 2080.0000 1.0000
26.8600 2185.0000 1.0000
26.8700 2163.0000 1.0000
26.8800 2077.0000 1.0000
26.8900 2146.0000 1.0000
26.9000 2186.0000 1.0000
26.9100 2165.0000 1.0000
26.9200 2188.0000 1.0000
26.9300 2256.0000 1.0000
26.9400 2302.0000 1.0000
26.9500 2341.0000 1.0000
26.9600 2345.0000 1.0000
26.9700 2413.0000 1.0000
26.9800 2382.0000 1.0000
26.9900 2444.0000 1.0000
27.0000 2457.0000 1.0000
27.0100 2543.0000 1.0000
27.0200 2612.0000 1.0000
27.0300 2693.0000 1.0000
27.0400 2715.0000 1.0000
27.0500 2857.0000 1.0000
27.0600 2776.0000 1.0000
27.0700 3042.0000 1.0000
27.0800 3066.0000 1.0000
27.0900 3229.0000 1.0000
27.1000 3343.0000 1.0000
27.1100 3467.0000 1.0000
27.1200 3496.0000 1.0000
27.1300 3574.0000 1.0000
27.1400 3717.0000 1.0000
27.1500 3983.0000 1.0000
27.1600 4224.0000 1.0000
27.1700 4332.0000 1.0000
27.1800 4671.0000 1.0000
27.1900 4828.0000 1.0000
27.2000 5036.0000 1.0000
27.2100 5413.0000 1.0000
27.2200 5554.0000 1.0000
27.2300 6013.0000 1.0000
27.2400 6221.0000 1.0000
27.2500 6332.0000 1.0000
27.2600 6470.0000 1.0000
27.2700 6757.0000 1.0000
27.2800 6715.0000 1.0000
27.2900 6704.0000 1.0000
27.3000 6933.0000 1.0000
27.3100 6691.0000 1.0000
27.3200 6540.0000 1.0000
27.3300 6423.0000 1.0000
27.3400 6142.0000 1.0000
27.3500 5839.0000 1.0000
27.3600 5661.0000 1.0000
27.3700 5321.0000 1.0000
27.3800 5020.0000 1.0000
27.3900 4757.0000 1.0000
27.4000 4458.0000 1.0000
27.4100 4225.0000 1.0000
27.4200 4116.0000 1.0000
27.4300 3817.0000 1.0000
27.4400 3624.0000 1.0000
27.4500 3476.0000 1.0000
27.4600 3488.0000 1.0000
27.4700 3321.0000 1.0000
27.4800 3130.0000 1.0000
27.4900 3018.0000 1.0000
27.5000 2979.0000 1.0000
27.5100 2853.0000 1.0000
27.5200 2704.0000 1.0000
27.5300 2737.0000 1.0000
27.5400 2688.0000 1.0000
27.5500 2598.0000 1.0000
27.5600 2558.0000 1.0000
27.5700 2492.0000 1.0000
27.5800 2370.0000 1.0000
27.5900 2434.0000 1.0000
27.6000 2400.0000 1.0000
27.6100 2299.0000 1.0000
27.6200 2319.0000 1.0000
27.6300 2265.0000 1.0000
27.6400 2223.0000 1.0000
27.6500 2162.0000 1.0000
27.6600 2184.0000 1.0000
27.6700 2118.0000 1.0000
27.6800 2087.0000 1.0000
27.6900 2141.0000 1.0000
27.7000 2063.0000 1.0000
27.7100 2082.0000 1.0000
27.7200 2100.0000 1.0000
27.7300 2011.0000 1.0000
27.7400 1977.0000 1.0000
27.7500 2034.0000 1.0000
27.7600 2019.0000 1.0000
27.7700 1994.0000 1.0000
27.7800 2011.0000 1.0000
27.7900 2014.0000 1.0000
27.8000 1991.0000 1.0000
27.8100 1922.0000 1.0000
27.8200 1918.0000 1.0000
27.8300 1955.0000 1.0000
27.8400 1930.0000 1.0000
27.8500 1924.0000 1.0000
27.8600 1908.0000 1.0000
27.8700 1921.0000 1.0000
27.8800 1882.0000 1.0000
27.8900 1843.0000 1.0000
27.9000 1933.0000 1.0000
27.9100 1852.0000 1.0000
27.9200 1834.0000 1.0000
27.9300 1829.0000 1.0000
27.9400 1821.0000 1.0000
27.9500 1858.0000 1.0000
27.9600 1843.0000 1.0000
27.9700 1874.0000 1.0000
27.9800 1912.0000 1.0000
27.9900 1904.0000 1.0000
28.0000 1831.0000 1.0000
28.0100 1834.0000 1.0000
28.0200 1812.0000 1.0000
28.0300 1856.0000 1.0000
28.0400 1809.0000 1.0000
28.0500 1802.0000 1.0000
28.0600 1738.0000 1.0000
28.0700 1789.0000 1.0000
28.0800 1867.0000 1.0000
28.0900 1805.0000 1.0000
28.1000 1838.0000 1.0000
28.1100 1787.0000 1.0000
28.1200 1831.0000 1.0000
28.1300 1780.0000 1.0000
28.1400 1791.0000 1.0000
28.1500 1782.0000 1.0000
28.1600 1777.0000 1.0000
28.1700 1820.0000 1.0000
28.1800 1779.0000 1.0000
28.1900 1759.0000 1.0000
28.2000 1700.0000 1.0000
28.2100 1799.0000 1.0000
28.2200 1820.0000 1.0000
28.2300 1844.0000 1.0000
28.2400 1746.0000 1.0000
28.2500 1759.0000 1.0000
28.2600 1831.0000 1.0000
28.2700 1765.0000 1.0000
28.2800 1676.0000 1.0000
28.2900 1739.0000 1.0000
28.3000 1728.0000 1.0000
28.3100 1777.0000 1.0000
28.3200 1811.0000 1.0000
28.3300 1754.0000 1.0000
28.3400 1636.0000 1.0000
28.3500 1744.0000 1.0000
28.3600 1745.0000 1.0000
28.3700 1699.0000 1.0000
28.3800 1742.0000 1.0000
28.3900 1768.0000 1.0000
28.4000 1731.0000 1.0000
28.4100 1702.0000 1.0000
28.4200 1720.0000 1.0000
28.4300 1738.0000 1.0000
28.4400 1678.0000 1.0000
28.4500 1723.0000 1.0000
28.4600 1696.0000 1.0000
28.4700 1708.0000 1.0000
28.4800 1743.0000 1.0000
28.4900 1701.0000 1.0000
28.5000 1700.0000 1.0000
28.5100 1707.0000 1.0000
28.5200 1631.0000 1.0000
28.5300 1742.0000 1.0000
28.5400 1792.0000 1.0000
28.5500 1720.0000 1.0000
28.5600 1722.0000 1.0000
28.5700 1799.0000 1.0000
28.5800 1725.0000 1.0000
28.5900 1659.0000 1.0000
28.6000 1660.0000 1.0000
28.6100 1728.0000 1.0000
28.6200 1705.0000 1.0000
28.6300 1773.0000 1.0000
28.6400 1741.0000 1.0000
28.6500 1760.0000 1.0000
28.6600 1710.0000 1.0000
28.6700 1740.0000 1.0000
28.6800 1704.0000 1.0000
28.6900 1712.0000 1.0000
28.7000 1709.0000 1.0000
28.7100 1691.0000 1.0000
28.7200 1743.0000 1.0000
28.7300 1730.0000 1.0000
28.7400 1711.0000 1.0000
28.7500 1709.0000 1.0000
28.7600 1739.0000 1.0000
28.7700 1679.0000 1.0000
28.7800 1628.0000 1.0000
28.7900 1673.0000 1.0000
28.8000 1735.0000 1.0000
28.8100 1713.0000 1.0000
28.8200 1693.0000 1.0000
28.8300 1703.0000 1.0000
28.8400 1701.0000 1.0000
28.8500 1670.0000 1.0000
28.8600 1658.0000 1.0000
28.8700 1675.0000 1.0000
28.8800 1690.0000 1.0000
28.8900 1664.0000 1.0000
28.9000 1631.0000 1.0000
28.9100 1680.0000 1.0000
28.9200 1642.0000 1.0000
28.9300 1622.0000 1.0000
28.9400 1664.0000 1.0000
28.9500 1643.0000 1.0000
28.9600 1699.0000 1.0000
28.9700 1704.0000 1.0000
28.9800 1715.0000 1.0000
28.9900 1660.0000 1.0000
29.0000 1605.0000 1.0000
29.0100 1649.0000 1.0000
29.0200 1622.0000 1.0000
29.0300 1678.0000 1.0000
29.0400 1619.0000 1.0000
29.0500 1640.0000 1.0000
29.0600 1662.0000 1.0000
29.0700 1645.0000 1.0000
29.0800 1657.0000 1.0000
29.0900 1681.0000 1.0000
29.1000 1727.0000 1.0000
29.1100 1654.0000 1.0000
29.1200 1699.0000 1.0000
29.1300 1670.0000 1.0000
29.1400 1635.0000 1.0000
29.1500 1609.0000 1.0000
29.1600 1659.0000 1.0000
29.1700 1634.0000 1.0000
29.1800 1692.0000 1.0000
29.1900 1605.0000 1.0000
29.2000 1653.0000 1.0000
29.2100 1569.0000 1.0000
29.2200 1579.0000 1.0000
29.2300 1650.0000 1.0000
29.2400 1609.0000 1.0000
29.2500 1650.0000 1.0000
29.2600 1628.0000 1.0000
29.2700 1664.0000 1.0000
29.2800 1624.0000 1.0000
29.2900 1610.0000 1.0000
29.3000 1626.0000 1.0000
29.3100 1637.0000 1.0000
29.3200 1655.0000 1.0000
29.3300 1653.0000 1.0000
29.3400 1657.0000 1.0000
29.3500 1654.0000 1.0000
29.3600 1691.0000 1.0000
29.3700 1651.0000 1.0000
29.3800 1527.0000 1.0000
29.3900 1633.0000 1.0000
29.4000 1691.0000 1.0000
29.4100 1712.0000 1.0000
29.4200 1643.0000 1.0000
29.4300 1568.0000 1.0000
29.4400 1658.0000 1.0000
29.4500 1649.0000 1.0000
29.4600 1595.0000 1.0000
29.4700 1603.0000 1.0000
29.4800 1645.0000 1.0000
29.4900 1636.0000 1.0000
29.5000 1580.0000 1.0000
29.5100 1619.0000 1.0000
29.5200 1583.0000 1.0000
29.5300 1645.0000 1.0000
29.5400 1627.0000 1.0000
29.5500 1573.0000 1.0000
29.5600 1650.0000 1.0000
29.5700 1638.0000 1.0000
29.5800 1653.0000 1.0000
29.5900 1663.0000 1.0000
29.6000 1653.0000 1.0000
29.6100 1655.0000 1.0000
29.6200 1576.0000 1.0000
29.6300 1549.0000 1.0000
29.6400 1626.0000 1.0000
29.6500 1640.0000 1.0000
29.6600 1560.0000 1.0000
29.6700 1562.0000 1.0000
29.6800 1679.0000 1.0000
29.6900 1595.0000 1.0000
29.7000 1592.0000 1.0000
29.7100 1560.0000 1.0000
29.7200 1635.0000 1.0000
29.7300 1642.0000 1.0000
29.7400 1629.0000 1.0000
29.7500 1576.0000 1.0000
29.7600 1579.0000 1.0000
29.7700 1616.0000 1.0000
29.7800 1558.0000 1.0000
29.7900 1560.0000 1.0000
29.8000 1566.0000 1.0000
29.8100 1560.0000 1.0000
29.8200 1586.0000 1.0000
29.8300 1619.0000 1.0000
29.8400 1597.0000 1.0000
29.8500 1612.0000 1.0000
29.8600 1647.0000 1.0000
29.8700 1640.0000 1.0000
29.8800 1646.0000 1.0000
29.8900 1608.0000 1.0000
29.9000 1577.0000 1.0000
29.9100 1600.0000 1.0000
29.9200 1631.0000 1.0000
29.9300 1628.0000 1.0000
29.9400 1678.0000 1.0000
29.9500 1640.0000 1.0000
29.9600 1646.0000 1.0000
29.9700 1607.0000 1.0000
29.9800 1636.0000 1.0000
29.9900 1643.0000 1.0000
30.0000 1537.0000 1.0000
30.0100 1624.0000 1.0000
30.0200 1636.0000 1.0000
30.0300 1560.0000 1.0000
30.0400 1619.0000 1.0000
30.0500 1569.0000 1.0000
30.0600 1568.0000 1.0000
30.0700 1588.0000 1.0000
30.0800 1671.0000 1.0000
30.0900 1612.0000 1.0000
30.1000 1636.0000 1.0000
30.1100 1555.0000 1.0000
30.1200 1606.0000 1.0000
30.1300 1577.0000 1.0000
30.1400 1546.0000 1.0000
30.1500 1579.0000 1.0000
30.1600 1607.0000 1.0000
30.1700 1649.0000 1.0000
30.1800 1507.0000 1.0000
30.1900 1576.0000 1.0000
30.2000 1617.0000 1.0000
30.2100 1469.0000 1.0000
30.2200 1562.0000 1.0000
30.2300 1533.0000 1.0000
30.2400 1622.0000 1.0000
30.2500 1589.0000 1.0000
30.2600 1591.0000 1.0000
30.2700 1610.0000 1.0000
30.2800 1600.0000 1.0000
30.2900 1653.0000 1.0000
30.3000 1563.0000 1.0000
30.3100 1554.0000 1.0000
30.3200 1554.0000 1.0000
30.3300 1558.0000 1.0000
30.3400 1617.0000 1.0000
30.3500 1612.0000 1.0000
30.3600 1572.0000 1.0000
30.3700 1575.0000 1.0000
30.3800 1567.0000 1.0000
30.3900 1568.0000 1.0000
30.4000 1563.0000 1.0000
30.4100 1579.0000 1.0000
30.4200 1631.0000 1.0000
30.4300 1553.0000 1.0000
30.4400 1532.0000 1.0000
30.4500 1617.0000 1.0000
30.4600 1595.0000 1.0000
30.4700 1610.0000 1.0000
30.4800 1549.0000 1.0000
30.4900 1564.0000 1.0000
30.5000 1573.0000 1.0000
30.5100 1618.0000 1.0000
30.5200 1563.0000 1.0000
30.5300 1548.0000 1.0000
30.5400 1551.0000 1.0000
30.5500 1554.0000 1.0000
30.5600 1550.0000 1.0000
30.5700 1466.0000 1.0000
30.5800 1530.0000 1.0000
30.5900 1620.0000 1.0000
30.6000 1543.0000 1.0000
30.6100 1521.0000 1.0000
30.6200 1515.0000 1.0000
30.6300 1537.0000 1.0000
30.6400 1561.0000 1.0000
30.6500 1492.0000 1.0000
30.6600 1561.0000 1.0000
30.6700 1564.0000 1.0000
30.6800 1577.0000 1.0000
30.6900 1582.0000 1.0000
30.7000 1543.0000 1.0000
30.7100 1554.0000 1.0000
30.7200 1628.0000 1.0000
30.7300 1595.0000 1.0000
30.7400 1518.0000 1.0000
30.7500 1533.0000 1.0000
30.7600 1596.0000 1.0000
30.7700 1501.0000 1.0000
30.7800 1529.0000 1.0000
30.7900 1597.0000 1.0000
30.8000 1603.0000 1.0000
30.8100 1581.0000 1.0000
30.8200 1566.0000 1.0000
30.8300 1573.0000 1.0000
30.8400 1542.0000 1.0000
30.8500 1599.0000 1.0000
30.8600 1548.0000 1.0000
30.8700 1484.0000 1.0000
30.8800 1506.0000 1.0000
30.8900 1589.0000 1.0000
30.9000 1575.0000 1.0000
30.9100 1585.0000 1.0000
30.9200 1597.0000 1.0000
30.9300 1531.0000 1.0000
30.9400 1562.0000 1.0000
30.9500 1577.0000 1.0000
30.9600 1500.0000 1.0000
30.9700 1540.0000 1.0000
30.9800 1614.0000 1.0000
30.9900 1536.0000 1.0000
31.0000 1579.0000 1.0000
31.0100 1518.0000 1.0000
31.0200 1540.0000 1.0000
31.0300 1528.0000 1.0000
31.0400 1566.0000 1.0000
31.0500 1518.0000 1.0000
31.0600 1531.0000 1.0000
31.0700 1535.0000 1.0000
31.0800 1539.0000 1.0000
31.0900 1537.0000 1.0000
31.1000 1544.0000 1.0000
31.1100 1487.0000 1.0000
31.1200 1512.0000 1.0000
31.1300 1551.0000 1.0000
31.1400 1539.0000 1.0000
31.1500 1565.0000 1.0000
31.1600 1522.0000 1.0000
31.1700 1520.0000 1.0000
31.1800 1503.0000 1.0000
31.1900 1549.0000 1.0000
31.2000 1508.0000 1.0000
31.2100 1577.0000 1.0000
31.2200 1530.0000 1.0000
31.2300 1548.0000 1.0000
31.2400 1496.0000 1.0000
31.2500 1526.0000 1.0000
31.2600 1555.0000 1.0000
31.2700 1550.0000 1.0000
31.2800 1497.0000 1.0000
31.2900 1577.0000 1.0000
31.3000 1508.0000 1.0000
31.3100 1512.0000 1.0000
31.3200 1459.0000 1.0000
31.3300 1516.0000 1.0000
31.3400 1523.0000 1.0000
31.3500 1543.0000 1.0000
31.3600 1529.0000 1.0000
31.3700 1511.0000 1.0000
31.3800 1502.0000 1.0000
31.3900 1487.0000 1.0000
31.4000 1508.0000 1.0000
31.4100 1527.0000 1.0000
31.4200 1552.0000 1.0000
31.4300 1550.0000 1.0000
31.4400 1484.0000 1.0000
31.4500 1539.0000 1.0000
31.4600 1532.0000 1.0000
31.4700 1490.0000 1.0000
31.4800 1478.0000 1.0000
31.4900 1492.0000 1.0000
31.5000 1503.0000 1.0000
31.5100 1490.0000 1.0000
31.5200 1475.0000 1.0000
31.5300 1492.0000 1.0000
31.5400 1465.0000 1.0000
31.5500 1436.0000 1.0000
31.5600 1464.0000 1.0000
31.5700 1517.0000 1.0000
31.5800 1498.0000 1.0000
31.5900 1497.0000 1.0000
31.6000 1469.0000 1.0000
31.6100 1550.0000 1.0000
31.6200 1496.0000 1.0000
31.6300 1499.0000 1.0000
31.6400 1491.0000 1.0000
31.6500 1477.0000 1.0000
31.6600 1545.0000 1.0000
31.6700 1453.0000 1.0000
31.6800 1487.0000 1.0000
31.6900 1482.0000 1.0000
31.7000 1523.0000 1.0000
31.7100 1527.0000 1.0000
31.7200 1460.0000 1.0000
31.7300 1502.0000 1.0000
31.7400 1589.0000 1.0000
31.7500 1539.0000 1.0000
31.7600 1487.0000 1.0000
31.7700 1476.0000 1.0000
31.7800 1431.0000 1.0000
31.7900 1533.0000 1.0000
31.8000 1509.0000 1.0000
31.8100 1507.0000 1.0000
31.8200 1567.0000 1.0000
31.8300 1556.0000 1.0000
31.8400 1483.0000 1.0000
31.8500 1540.0000 1.0000
31.8600 1516.0000 1.0000
31.8700 1574.0000 1.0000
31.8800 1559.0000 1.0000
31.8900 1492.0000 1.0000
31.9000 1519.0000 1.0000
31.9100 1517.0000 1.0000
31.9200 1569.0000 1.0000
31.9300 1563.0000 1.0000
31.9400 1522.0000 1.0000
31.9500 1595.0000 1.0000
31.9600 1571.0000 1.0000
31.9700 1542.0000 1.0000
31.9800 1466.0000 1.0000
31.9900 1464.0000 1.0000
32.0000 1540.0000 1.0000
32.0100 1491.0000 1.0000
32.0200 1584.0000 1.0000
32.0300 1595.0000 1.0000
32.0400 1537.0000 1.0000
32.0500 1462.0000 1.0000
32.0600 1581.0000 1.0000
32.0700 1473.0000 1.0000
32.0800 1522.0000 1.0000
32.0900 1521.0000 1.0000
32.1000 1452.0000 1.0000
32.1100 1477.0000 1.0000
32.1200 1517.0000 1.0000
32.1300 1513.0000 1.0000
32.1400 1543.0000 1.0000
32.1500 1491.0000 1.0000
32.1600 1488.0000 1.0000
32.1700 1439.0000 1.0000
32.1800 1495.0000 1.0000
32.1900 1518.0000 1.0000
32.2000 1473.0000 1.0000
32.2100 1495.0000 1.0000
32.2200 1512.0000 1.0000
32.2300 1427.0000 1.0000
32.2400 1480.0000 1.0000
32.2500 1513.0000 1.0000
32.2600 1501.0000 1.0000
32.2700 1473.0000 1.0000
32.2800 1477.0000 1.0000
32.2900 1535.0000 1.0000
32.3000 1484.0000 1.0000
32.3100 1481.0000 1.0000
32.3200 1489.0000 1.0000
32.3300 1414.0000 1.0000
32.3400 1467.0000 1.0000
32.3500 1525.0000 1.0000
32.3600 1495.0000 1.0000
32.3700 1517.0000 1.0000
32.3800 1458.0000 1.0000
32.3900 1476.0000 1.0000
32.4000 1431.0000 1.0000
32.4100 1431.0000 1.0000
32.4200 1445.0000 1.0000
32.4300 1437.0000 1.0000
32.4400 1483.0000 1.0000
32.4500 1418.0000 1.0000
32.4600 1501.0000 1.0000
32.4700 1467.0000 1.0000
32.4800 1434.0000 1.0000
32.4900 1439.0000 1.0000
32.5000 1502.0000 1.0000
32.5100 1411.0000 1.0000
32.5200 1489.0000 1.0000
32.5300 1425.0000 1.0000
32.5400 1489.0000 1.0000
32.5500 1409.0000 1.0000
32.5600 1403.0000 1.0000
32.5700 1453.0000 1.0000
32.5800 1410.0000 1.0000
32.5900 1429.0000 1.0000
32.6000 1428.0000 1.0000
32.6100 1437.0000 1.0000
32.6200 1506.0000 1.0000
32.6300 1445.0000 1.0000
32.6400 1483.0000 1.0000
32.6500 1463.0000 1.0000
32.6600 1462.0000 1.0000
32.6700 1452.0000 1.0000
32.6800 1455.0000 1.0000
32.6900 1460.0000 1.0000
32.7000 1448.0000 1.0000
32.7100 1459.0000 1.0000
32.7200 1434.0000 1.0000
32.7300 1453.0000 1.0000
32.7400 1447.0000 1.0000
32.7500 1388.0000 1.0000
32.7600 1449.0000 1.0000
32.7700 1459.0000 1.0000
32.7800 1461.0000 1.0000
32.7900 1398.0000 1.0000
32.8000 1454.0000 1.0000
32.8100 1442.0000 1.0000
32.8200 1467.0000 1.0000
32.8300 1462.0000 1.0000
32.8400 1433.0000 1.0000
32.8500 1492.0000 1.0000
32.8600 1418.0000 1.0000
32.8700 1476.0000 1.0000
32.8800 1442.0000 1.0000
32.8900 1404.0000 1.0000
32.9000 1374.0000 1.0000
32.9100 1428.0000 1.0000
32.9200 1424.0000 1.0000
32.9300 1398.0000 1.0000
32.9400 1393.0000 1.0000
32.9500 1408.0000 1.0000
32.9600 1416.0000 1.0000
32.9700 1465.0000 1.0000
32.9800 1460.0000 1.0000
32.9900 1455.0000 1.0000
33.0000 1438.0000 1.0000
33.0100 1409.0000 1.0000
33.0200 1460.0000 1.0000
33.0300 1478.0000 1.0000
33.0400 1414.0000 1.0000
33.0500 1445.0000 1.0000
33.0600 1409.0000 1.0000
33.0700 1446.0000 1.0000
33.0800 1435.0000 1.0000
33.0900 1412.0000 1.0000
33.1000 1456.0000 1.0000
33.1100 1475.0000 1.0000
33.1200 1441.0000 1.0000
33.1300 1450.0000 1.0000
33.1400 1430.0000 1.0000
33.1500 1423.0000 1.0000
33.1600 1360.0000 1.0000
33.1700 1451.0000 1.0000
33.1800 1424.0000 1.0000
33.1900 1427.0000 1.0000
33.2000 1423.0000 1.0000
33.2100 1353.0000 1.0000
33.2200 1364.0000 1.0000
33.2300 1377.0000 1.0000
33.2400 1443.0000 1.0000
33.2500 1464.0000 1.0000
33.2600 1471.0000 1.0000
33.2700 1459.0000 1.0000
33.2800 1399.0000 1.0000
33.2900 1414.0000 1.0000
33.3000 1399.0000 1.0000
33.3100 1393.0000 1.0000
33.3200 1448.0000 1.0000
33.3300 1427.0000 1.0000
33.3400 1482.0000 1.0000
33.3500 1424.0000 1.0000
33.3600 1389.0000 1.0000
33.3700 1330.0000 1.0000
33.3800 1408.0000 1.0000
33.3900 1389.0000 1.0000
33.4000 1380.0000 1.0000
33.4100 1426.0000 1.0000
33.4200 1454.0000 1.0000
33.4300 1424.0000 1.0000
33.4400 1418.0000 1.0000
33.4500 1396.0000 1.0000
33.4600 1456.0000 1.0000
33.4700 1408.0000 1.0000
33.4800 1369.0000 1.0000
33.4900 1446.0000 1.0000
33.5000 1416.0000 1.0000
33.5100 1399.0000 1.0000
33.5200 1387.0000 1.0000
33.5300 1404.0000 1.0000
33.5400 1402.0000 1.0000
33.5500 1407.0000 1.0000
33.5600 1388.0000 1.0000
33.5700 1447.0000 1.0000
33.5800 1388.0000 1.0000
33.5900 1434.0000 1.0000
33.6000 1436.0000 1.0000
33.6100 1438.0000 1.0000
33.6200 1515.0000 1.0000
33.6300 1435.0000 1.0000
33.6400 1400.0000 1.0000
33.6500 1406.0000 1.0000
33.6600 1477.0000 1.0000
33.6700 1462.0000 1.0000
33.6800 1397.0000 1.0000
33.6900 1409.0000 1.0000
33.7000 1467.0000 1.0000
33.7100 1504.0000 1.0000
33.7200 1452.0000 1.0000
33.7300 1436.0000 1.0000
33.7400 1412.0000 1.0000
33.7500 1435.0000 1.0000
33.7600 1474.0000 1.0000
33.7700 1452.0000 1.0000
33.7800 1499.0000 1.0000
33.7900 1486.0000 1.0000
33.8000 1469.0000 1.0000
33.8100 1460.0000 1.0000
33.8200 1481.0000 1.0000
33.8300 1480.0000 1.0000
33.8400 1498.0000 1.0000
33.8500 1548.0000 1.0000
33.8600 1486.0000 1.0000
33.8700 1463.0000 1.0000
33.8800 1476.0000 1.0000
33.8900 1507.0000 1.0000
33.9000 1486.0000 1.0000
33.9100 1492.0000 1.0000
33.9200 1512.0000 1.0000
33.9300 1477.0000 1.0000
33.9400 1564.0000 1.0000
33.9500 1506.0000 1.0000
33.9600 1511.0000 1.0000
33.9700 1497.0000 1.0000
33.9800 1455.0000 1.0000
33.9900 1482.0000 1.0000
34.0000 1515.0000 1.0000
34.0100 1538.0000 1.0000
34.0200 1471.0000 1.0000
34.0300 1458.0000 1.0000
34.0400 1494.0000 1.0000
34.0500 1536.0000 1.0000
34.0600 1552.0000 1.0000
34.0700 1551.0000 1.0000
34.0800 1525.0000 1.0000
34.0900 1492.0000 1.0000
34.1000 1499.0000 1.0000
34.1100 1576.0000 1.0000
34.1200 1509.0000 1.0000
34.1300 1625.0000 1.0000
34.1400 1612.0000 1.0000
34.1500 1622.0000 1.0000
34.1600 1529.0000 1.0000
34.1700 1627.0000 1.0000
34.1800 1621.0000 1.0000
34.1900 1579.0000 1.0000
34.2000 1644.0000 1.0000
34.2100 1637.0000 1.0000
34.2200 1702.0000 1.0000
34.2300 1710.0000 1.0000
34.2400 1647.0000 1.0000
34.2500 1729.0000 1.0000
34.2600 1788.0000 1.0000
34.2700 1820.0000 1.0000
34.2800 1849.0000 1.0000
34.2900 1868.0000 1.0000
34.3000 1862.0000 1.0000
34.3100 1877.0000 1.0000
34.3200 1960.0000 1.0000
34.3300 2177.0000 1.0000
34.3400 2091.0000 1.0000
34.3500 2114.0000 1.0000
34.3600 2189.0000 1.0000
34.3700 2325.0000 1.0000
34.3800 2360.0000 1.0000
34.3900 2399.0000 1.0000
34.4000 2561.0000 1.0000
34.4100 2589.0000 1.0000
34.4200 2732.0000 1.0000
34.4300 2846.0000 1.0000
34.4400 2963.0000 1.0000
34.4500 2953.0000 1.0000
34.4600 2913.0000 1.0000
34.4700 2914.0000 1.0000
34.4800 2983.0000 1.0000
34.4900 3069.0000 1.0000
34.5000 2955.0000 1.0000
34.5100 2878.0000 1.0000
34.5200 2929.0000 1.0000
34.5300 2814.0000 1.0000
34.5400 2828.0000 1.0000
34.5500 2784.0000 1.0000
34.5600 2628.0000 1.0000
34.5700 2525.0000 1.0000
34.5800 2476.0000 1.0000
34.5900 2438.0000 1.0000
34.6000 2354.0000 1.0000
34.6100 2307.0000 1.0000
34.6200 2227.0000 1.0000
34.6300 2105.0000 1.0000
34.6400 2097.0000 1.0000
34.6500 2048.0000 1.0000
34.6600 1926.0000 1.0000
34.6700 1963.0000 1.0000
34.6800 1977.0000 1.0000
34.6900 1889.0000 1.0000
34.7000 1864.0000 1.0000
34.7100 1809.0000 1.0000
34.7200 1731.0000 1.0000
34.7300 1807.0000 1.0000
34.7400 1751.0000 1.0000
34.7500 1776.0000 1.0000
34.7600 1653.0000 1.0000
34.7700 1700.0000 1.0000
34.7800 1659.0000 1.0000
34.7900 1624.0000 1.0000
34.8000 1614.0000 1.0000
34.8100 1578.0000 1.0000
34.8200 1525.0000 1.0000
34.8300 1516.0000 1.0000
34.8400 1550.0000 1.0000
34.8500 1488.0000 1.0000
34.8600 1500.0000 1.0000
34.8700 1461.0000 1.0000
34.8800 1455.0000 1.0000
34.8900 1497.0000 1.0000
34.9000 1461.0000 1.0000
34.9100 1484.0000 1.0000
34.9200 1537.0000 1.0000
34.9300 1443.0000 1.0000
34.9400 1403.0000 1.0000
34.9500 1399.0000 1.0000
34.9600 1369.0000 1.0000
34.9700 1452.0000 1.0000
34.9800 1385.0000 1.0000
34.9900 1381.0000 1.0000
35.0000 1415.0000 1.0000
35.0100 1393.0000 1.0000
35.0200 1448.0000 1.0000
35.0300 1400.0000 1.0000
35.0400 1456.0000 1.0000
35.0500 1395.0000 1.0000
35.0600 1350.0000 1.0000
35.0700 1370.0000 1.0000
35.0800 1422.0000 1.0000
35.0900 1380.0000 1.0000
35.1000 1340.0000 1.0000
35.1100 1323.0000 1.0000
35.1200 1318.0000 1.0000
35.1300 1289.0000 1.0000
35.1400 1361.0000 1.0000
35.1500 1372.0000 1.0000
35.1600 1323.0000 1.0000
35.1700 1297.0000 1.0000
35.1800 1302.0000 1.0000
35.1900 1331.0000 1.0000
35.2000 1318.0000 1.0000
35.2100 1336.0000 1.0000
35.2200 1275.0000 1.0000
35.2300 1299.0000 1.0000
35.2400 1326.0000 1.0000
35.2500 1310.0000 1.0000
35.2600 1276.0000 1.0000
35.2700 1249.0000 1.0000
35.2800 1354.0000 1.0000
35.2900 1311.0000 1.0000
35.3000 1282.0000 1.0000
35.3100 1298.0000 1.0000
35.3200 1297.0000 1.0000
35.3300 1279.0000 1.0000
35.3400 1252.0000 1.0000
35.3500 1298.0000 1.0000
35.3600 1292.0000 1.0000
35.3700 1317.0000 1.0000
35.3800 1317.0000 1.0000
35.3900 1271.0000 1.0000
35.4000 1251.0000 1.0000
35.4100 1248.0000 1.0000
35.4200 1295.0000 1.0000
35.4300 1257.0000 1.0000
35.4400 1335.0000 1.0000
35.4500 1230.0000 1.0000
35.4600 1270.0000 1.0000
35.4700 1255.0000 1.0000
35.4800 1270.0000 1.0000
35.4900 1293.0000 1.0000
35.5000 1270.0000 1.0000
35.5100 1261.0000 1.0000
35.5200 1244.0000 1.0000
35.5300 1260.0000 1.0000
35.5400 1258.0000 1.0000
35.5500 1278.0000 1.0000
35.5600 1272.0000 1.0000
35.5700 1262.0000 1.0000
35.5800 1254.0000 1.0000
35.5900 1237.0000 1.0000
35.6000 1293.0000 1.0000
35.6100 1293.0000 1.0000
35.6200 1200.0000 1.0000
35.6300 1273.0000 1.0000
35.6400 1247.0000 1.0000
35.6500 1187.0000 1.0000
35.6600 1224.0000 1.0000
35.6700 1247.0000 1.0000
35.6800 1323.0000 1.0000
35.6900 1331.0000 1.0000
35.7000 1261.0000 1.0000
35.7100 1325.0000 1.0000
35.7200 1279.0000 1.0000
35.7300 1274.0000 1.0000
35.7400 1273.0000 1.0000
35.7500 1247.0000 1.0000
35.7600 1291.0000 1.0000
35.7700 1290.0000 1.0000
35.7800 1260.0000 1.0000
35.7900 1278.0000 1.0000
35.8000 1197.0000 1.0000
35.8100 1223.0000 1.0000
35.8200 1223.0000 1.0000
35.8300 1287.0000 1.0000
35.8400 1313.0000 1.0000
35.8500 1235.0000 1.0000
35.8600 1282.0000 1.0000
35.8700 1306.0000 1.0000
35.8800 1305.0000 1.0000
35.8900 1301.0000 1.0000
35.9000 1280.0000 1.0000
35.9100 1267.0000 1.0000
35.9200 1364.0000 1.0000
35.9300 1319.0000 1.0000
35.9400 1307.0000 1.0000
35.9500 1302.0000 1.0000
35.9600 1218.0000 1.0000
35.9700 1268.0000 1.0000
35.9800 1307.0000 1.0000
35.9900 1368.0000 1.0000
36.0000 1249.0000 1.0000
36.0100 1304.0000 1.0000
36.0200 1300.0000 1.0000
36.0300 1296.0000 1.0000
36.0400 1344.0000 1.0000
36.0500 1365.0000 1.0000
36.0600 1374.0000 1.0000
36.0700 1364.0000 1.0000
36.0800 1407.0000 1.0000
36.0900 1348.0000 1.0000
36.1000 1350.0000 1.0000
36.1100 1433.0000 1.0000
36.1200 1453.0000 1.0000
36.1300 1391.0000 1.0000
36.1400 1390.0000 1.0000
36.1500 1394.0000 1.0000
36.1600 1396.0000 1.0000
36.1700 1495.0000 1.0000
36.1800 1405.0000 1.0000
36.1900 1512.0000 1.0000
36.2000 1488.0000 1.0000
36.2100 1509.0000 1.0000
36.2200 1533.0000 1.0000
36.2300 1536.0000 1.0000
36.2400 1594.0000 1.0000
36.2500 1612.0000 1.0000
36.2600 1584.0000 1.0000
36.2700 1662.0000 1.0000
36.2800 1659.0000 1.0000
36.2900 1591.0000 1.0000
36.3000 1731.0000 1.0000
36.3100 1743.0000 1.0000
36.3200 1762.0000 1.0000
36.3300 1741.0000 1.0000
36.3400 1711.0000 1.0000
36.3500 1738.0000 1.0000
36.3600 1780.0000 1.0000
36.3700 1781.0000 1.0000
36.3800 1790.0000 1.0000
36.3900 1768.0000 1.0000
36.4000 1824.0000 1.0000
36.4100 1775.0000 1.0000
36.4200 1802.0000 1.0000
36.4300 1740.0000 1.0000
36.4400 1735.0000 1.0000
36.4500 1798.0000 1.0000
36.4600 1754.0000 1.0000
36.4700 1766.0000 1.0000
36.4800 1646.0000 1.0000
36.4900 1705.0000 1.0000
36.5000 1676.0000 1.0000
36.5100 1636.0000 1.0000
36.5200 1639.0000 1.0000
36.5300 1538.0000 1.0000
36.5400 1601.0000 1.0000
36.5500 1569.0000 1.0000
36.5600 1582.0000 1.0000
36.5700 1502.0000 1.0000
36.5800 1475.0000 1.0000
36.5900 1458.0000 1.0000
36.6000 1442.0000 1.0000
36.6100 1466.0000 1.0000
36.6200 1430.0000 1.0000
36.6300 1366.0000 1.0000
36.6400 1374.0000 1.0000
36.6500 1345.0000 1.0000
36.6600 1356.0000 1.0000
36.6700 1369.0000 1.0000
36.6800 1403.0000 1.0000
36.6900 1331.0000 1.0000
36.7000 1289.0000 1.0000
36.7100 1352.0000 1.0000
36.7200 1301.0000 1.0000
36.7300 1285.0000 1.0000
36.7400 1247.0000 1.0000
36.7500 1270.0000 1.0000
36.7600 1294.0000 1.0000
36.7700 1290.0000 1.0000
36.7800 1288.0000 1.0000
36.7900 1256.0000 1.0000
36.8000 1257.0000 1.0000
36.8100 1284.0000 1.0000
36.8200 1222.0000 1.0000
36.8300 1241.0000 1.0000
36.8400 1219.0000 1.0000
36.8500 1294.0000 1.0000
36.8600 1216.0000 1.0000
36.8700 1180.0000 1.0000
36.8800 1225.0000 1.0000
36.8900 1199.0000 1.0000
36.9000 1200.0000 1.0000
36.9100 1200.0000 1.0000
36.9200 1239.0000 1.0000
36.9300 1176.0000 1.0000
36.9400 1142.0000 1.0000
36.9500 1178.0000 1.0000
36.9600 1189.0000 1.0000
36.9700 1212.0000 1.0000
36.9800 1153.0000 1.0000
36.9900 1163.0000 1.0000
37.0000 1190.0000 1.0000
37.0100 1193.0000 1.0000
37.0200 1196.0000 1.0000
37.0300 1173.0000 1.0000
37.0400 1196.0000 1.0000
37.0500 1188.0000 1.0000
37.0600 1117.0000 1.0000
37.0700 1182.0000 1.0000
37.0800 1166.0000 1.0000
37.0900 1178.0000 1.0000
37.1000 1166.0000 1.0000
37.1100 1178.0000 1.0000
37.1200 1176.0000 1.0000
37.1300 1203.0000 1.0000
37.1400 1131.0000 1.0000
37.1500 1130.0000 1.0000
37.1600 1144.0000 1.0000
37.1700 1166.0000 1.0000
37.1800 1181.0000 1.0000
37.1900 1229.0000 1.0000
37.2000 1268.0000 1.0000
37.2100 1194.0000 1.0000
37.2200 1104.0000 1.0000
37.2300 1160.0000 1.0000
37.2400 1150.0000 1.0000
37.2500 1224.0000 1.0000
37.2600 1178.0000 1.0000
37.2700 1132.0000 1.0000
37.2800 1133.0000 1.0000
37.2900 1139.0000 1.0000
37.3000 1171.0000 1.0000
37.3100 1182.0000 1.0000
37.3200 1186.0000 1.0000
37.3300 1128.0000 1.0000
37.3400 1127.0000 1.0000
37.3500 1159.0000 1.0000
37.3600 1161.0000 1.0000
37.3700 1148.0000 1.0000
37.3800 1159.0000 1.0000
37.3900 1199.0000 1.0000
37.4000 1201.0000 1.0000
37.4100 1175.0000 1.0000
37.4200 1129.0000 1.0000
37.4300 1195.0000 1.0000
37.4400 1211.0000 1.0000
37.4500 1156.0000 1.0000
37.4600 1161.0000 1.0000
37.4700 1168.0000 1.0000
37.4800 1224.0000 1.0000
37.4900 1181.0000 1.0000
37.5000 1127.0000 1.0000
37.5100 1174.0000 1.0000
37.5200 1123.0000 1.0000
37.5300 1092.0000 1.0000
37.5400 1105.0000 1.0000
37.5500 1152.0000 1.0000
37.5600 1165.0000 1.0000
37.5700 1117.0000 1.0000
37.5800 1168.0000 1.0000
37.5900 1173.0000 1.0000
37.6000 1243.0000 1.0000
37.6100 1157.0000 1.0000
37.6200 1174.0000 1.0000
37.6300 1152.0000 1.0000
37.6400 1162.0000 1.0000
37.6500 1161.0000 1.0000
37.6600 1183.0000 1.0000
37.6700 1190.0000 1.0000
37.6800 1150.0000 1.0000
37.6900 1148.0000 1.0000
37.7000 1169.0000 1.0000
37.7100 1155.0000 1.0000
37.7200 1140.0000 1.0000
37.7300 1155.0000 1.0000
37.7400 1197.0000 1.0000
37.7500 1079.0000 1.0000
37.7600 1103.0000 1.0000
37.7700 1191.0000 1.0000
37.7800 1226.0000 1.0000
37.7900 1188.0000 1.0000
37.8000 1198.0000 1.0000
37.8100 1136.0000 1.0000
37.8200 1195.0000 1.0000
37.8300 1209.0000 1.0000
37.8400 1240.0000 1.0000
37.8500 1248.0000 1.0000
37.8600 1169.0000 1.0000
37.8700 1136.0000 1.0000
37.8800 1227.0000 1.0000
37.8900 1191.0000 1.0000
37.9000 1237.0000 1.0000
37.9100 1203.0000 1.0000
37.9200 1231.0000 1.0000
37.9300 1155.0000 1.0000
37.9400 1168.0000 1.0000
37.9500 1229.0000 1.0000
37.9600 1233.0000 1.0000
37.9700 1280.0000 1.0000
37.9800 1212.0000 1.0000
37.9900 1190.0000 1.0000
38.0000 1195.0000 1.0000
38.0100 1206.0000 1.0000
38.0200 1257.0000 1.0000
38.0300 1294.0000 1.0000
38.0400 1262.0000 1.0000
38.0500 1336.0000 1.0000
38.0600 1280.0000 1.0000
38.0700 1284.0000 1.0000
38.0800 1338.0000 1.0000
38.0900 1300.0000 1.0000
38.1000 1297.0000 1.0000
38.1100 1392.0000 1.0000
38.1200 1353.0000 1.0000
38.1300 1468.0000 1.0000
38.1400 1441.0000 1.0000
38.1500 1560.0000 1.0000
38.1600 1514.0000 1.0000
38.1700 1531.0000 1.0000
38.1800 1605.0000 1.0000
38.1900 1608.0000 1.0000
38.2000 1584.0000 1.0000
38.2100 1700.0000 1.0000
38.2200 1822.0000 1.0000
38.2300 1860.0000 1.0000
38.2400 1852.0000 1.0000
38.2500 1867.0000 1.0000
38.2600 1918.0000 1.0000
38.2700 2106.0000 1.0000
38.2800 2156.0000 1.0000
38.2900 2161.0000 1.0000
38.3000 2365.0000 1.0000
38.3100 2511.0000 1.0000
38.3200 2543.0000 1.0000
38.3300 2722.0000 1.0000
38.3400 2838.0000 1.0000
38.3500 2945.0000 1.0000
38.3600 3077.0000 1.0000
38.3700 3490.0000 1.0000
38.3800 3622.0000 1.0000
38.3900 3815.0000 1.0000
38.4000 4136.0000 1.0000
38.4100 4550.0000 1.0000
38.4200 4773.0000 1.0000
38.4300 5148.0000 1.0000
38.4400 5483.0000 1.0000
38.4500 5861.0000 1.0000
38.4600 6360.0000 1.0000
38.4700 6621.0000 1.0000
38.4800 6976.0000 1.0000
38.4900 7116.0000 1.0000
38.5000 7399.0000 1.0000
38.5100 7480.0000 1.0000
38.5200 7735.0000 1.0000
38.5300 7537.0000 1.0000
38.5400 7491.0000 1.0000
38.5500 7538.0000 1.0000
38.5600 7281.0000 1.0000
38.5700 7238.0000 1.0000
38.5800 6944.0000 1.0000
38.5900 6778.0000 1.0000
38.6000 6606.0000 1.0000
38.6100 6201.0000 1.0000
38.6200 5872.0000 1.0000
38.6300 5519.0000 1.0000
38.6400 5322.0000 1.0000
38.6500 4983.0000 1.0000
38.6600 4668.0000 1.0000
38.6700 4412.0000 1.0000
38.6800 4201.0000 1.0000
38.6900 3825.0000 1.0000
38.7000 3591.0000 1.0000
38.7100 3361.0000 1.0000
38.7200 3176.0000 1.0000
38.7300 3000.0000 1.0000
38.7400 2783.0000 1.0000
38.7500 2596.0000 1.0000
38.7600 2468.0000 1.0000
38.7700 2428.0000 1.0000
38.7800 2196.0000 1.0000
38.7900 2180.0000 1.0000
38.8000 2161.0000 1.0000
38.8100 2024.0000 1.0000
38.8200 1897.0000 1.0000
38.8300 1782.0000 1.0000
38.8400 1744.0000 1.0000
38.8500 1675.0000 1.0000
38.8600 1665.0000 1.0000
38.8700 1582.0000 1.0000
38.8800 1548.0000 1.0000
38.8900 1526.0000 1.0000
38.9000 1440.0000 1.0000
38.9100 1382.0000 1.0000
38.9200 1395.0000 1.0000
38.9300 1320.0000 1.0000
38.9400 1347.0000 1.0000
38.9500 1321.0000 1.0000
38.9600 1328.0000 1.0000
38.9700 1286.0000 1.0000
38.9800 1239.0000 1.0000
38.9900 1262.0000 1.0000
39.0000 1284.0000 1.0000
39.0100 1232.0000 1.0000
39.0200 1219.0000 1.0000
39.0300 1254.0000 1.0000
39.0400 1204.0000 1.0000
39.0500 1188.0000 1.0000
39.0600 1215.0000 1.0000
39.0700 1157.0000 1.0000
39.0800 1160.0000 1.0000
39.0900 1163.0000 1.0000
39.1000 1112.0000 1.0000
39.1100 1095.0000 1.0000
39.1200 1112.0000 1.0000
39.1300 1052.0000 1.0000
39.1400 1026.0000 1.0000
39.1500 1118.0000 1.0000
39.1600 1148.0000 1.0000
39.1700 1094.0000 1.0000
39.1800 1068.0000 1.0000
39.1900 1104.0000 1.0000
39.2000 1101.0000 1.0000
39.2100 1078.0000 1.0000
39.2200 1106.0000 1.0000
39.2300 1105.0000 1.0000
39.2400 1085.0000 1.0000
39.2500 1063.0000 1.0000
39.2600 1047.0000 1.0000
39.2700 1058.0000 1.0000
39.2800 1041.0000 1.0000
39.2900 1040.0000 1.0000
39.3000 1097.0000 1.0000
39.3100 1041.0000 1.0000
39.3200 1122.0000 1.0000
39.3300 1084.0000 1.0000
39.3400 1081.0000 1.0000
39.3500 1083.0000 1.0000
39.3600 1014.0000 1.0000
39.3700 1057.0000 1.0000
39.3800 1083.0000 1.0000
39.3900 1122.0000 1.0000
39.4000 1059.0000 1.0000
39.4100 1033.0000 1.0000
39.4200 1025.0000 1.0000
39.4300 1079.0000 1.0000
39.4400 1045.0000 1.0000
39.4500 1007.0000 1.0000
39.4600 1069.0000 1.0000
39.4700 1017.0000 1.0000
39.4800 1080.0000 1.0000
39.4900 1083.0000 1.0000
39.5000 1048.0000 1.0000
39.5100 1059.0000 1.0000
39.5200 1081.0000 1.0000
39.5300 1036.0000 1.0000
39.5400 1034.0000 1.0000
39.5500 1067.0000 1.0000
39.5600 1075.0000 1.0000
39.5700 1082.0000 1.0000
39.5800 1085.0000 1.0000
39.5900 1097.0000 1.0000
39.6000 1053.0000 1.0000
39.6100 1042.0000 1.0000
39.6200 1015.0000 1.0000
39.6300 1110.0000 1.0000
39.6400 1089.0000 1.0000
39.6500 1094.0000 1.0000
39.6600 1035.0000 1.0000
39.6700 1035.0000 1.0000
39.6800 1077.0000 1.0000
39.6900 1011.0000 1.0000
39.7000 1017.0000 1.0000
39.7100 1093.0000 1.0000
39.7200 1081.0000 1.0000
39.7300 1024.0000 1.0000
39.7400 995.0000 1.0000
39.7500 988.0000 1.0000
39.7600 1037.0000 1.0000
39.7700 1019.0000 1.0000
39.7800 1008.0000 1.0000
39.7900 984.0000 1.0000
39.8000 949.0000 1.0000
39.8100 1004.0000 1.0000
39.8200 1048.0000 1.0000
39.8300 1013.0000 1.0000
39.8400 1017.0000 1.0000
39.8500 1031.0000 1.0000
39.8600 1049.0000 1.0000
39.8700 1034.0000 1.0000
39.8800 954.0000 1.0000
39.8900 972.0000 1.0000
39.9000 1033.0000 1.0000
39.9100 1005.0000 1.0000
39.9200 985.0000 1.0000
39.9300 1012.0000 1.0000
39.9400 980.0000 1.0000
39.9500 961.0000 1.0000
39.9600 1016.0000 1.0000
39.9700 945.0000 1.0000
39.9800 1068.0000 1.0000
39.9900 961.0000 1.0000
40.0000 989.0000 1.0000
40.0100 995.0000 1.0000
40.0200 959.0000 1.0000
40.0300 985.0000 1.0000
40.0400 979.0000 1.0000
40.0500 976.0000 1.0000
40.0600 1029.0000 1.0000
40.0700 1015.0000 1.0000
40.0800 1013.0000 1.0000
40.0900 997.0000 1.0000
40.1000 898.0000 1.0000
40.1100 947.0000 1.0000
40.1200 981.0000 1.0000
40.1300 1004.0000 1.0000
40.1400 947.0000 1.0000
40.1500 976.0000 1.0000
40.1600 978.0000 1.0000
40.1700 1002.0000 1.0000
40.1800 950.0000 1.0000
40.1900 976.0000 1.0000
40.2000 1020.0000 1.0000
40.2100 1015.0000 1.0000
40.2200 997.0000 1.0000
40.2300 994.0000 1.0000
40.2400 1001.0000 1.0000
40.2500 998.0000 1.0000
40.2600 960.0000 1.0000
40.2700 926.0000 1.0000
40.2800 917.0000 1.0000
40.2900 929.0000 1.0000
40.3000 945.0000 1.0000
40.3100 991.0000 1.0000
40.3200 957.0000 1.0000
40.3300 963.0000 1.0000
40.3400 1046.0000 1.0000
40.3500 977.0000 1.0000
40.3600 945.0000 1.0000
40.3700 984.0000 1.0000
40.3800 986.0000 1.0000
40.3900 936.0000 1.0000
40.4000 953.0000 1.0000
40.4100 995.0000 1.0000
40.4200 965.0000 1.0000
40.4300 996.0000 1.0000
40.4400 967.0000 1.0000
40.4500 984.0000 1.0000
40.4600 941.0000 1.0000
40.4700 980.0000 1.0000
40.4800 947.0000 1.0000
40.4900 976.0000 1.0000
40.5000 938.0000 1.0000
40.5100 990.0000 1.0000
40.5200 929.0000 1.0000
40.5300 964.0000 1.0000
40.5400 950.0000 1.0000
40.5500 977.0000 1.0000
40.5600 997.0000 1.0000
40.5700 949.0000 1.0000
40.5800 981.0000 1.0000
40.5900 960.0000 1.0000
40.6000 937.0000 1.0000
40.6100 967.0000 1.0000
40.6200 894.0000 1.0000
40.6300 981.0000 1.0000
40.6400 929.0000 1.0000
40.6500 947.0000 1.0000
40.6600 922.0000 1.0000
40.6700 960.0000 1.0000
40.6800 979.0000 1.0000
40.6900 977.0000 1.0000
40.7000 995.0000 1.0000
40.7100 982.0000 1.0000
40.7200 953.0000 1.0000
40.7300 935.0000 1.0000
40.7400 972.0000 1.0000
40.7500 972.0000 1.0000
40.7600 949.0000 1.0000
40.7700 1008.0000 1.0000
40.7800 937.0000 1.0000
40.7900 929.0000 1.0000
40.8000 975.0000 1.0000
40.8100 910.0000 1.0000
40.8200 953.0000 1.0000
40.8300 984.0000 1.0000
40.8400 969.0000 1.0000
40.8500 959.0000 1.0000
40.8600 1005.0000 1.0000
40.8700 889.0000 1.0000
40.8800 909.0000 1.0000
40.8900 960.0000 1.0000
40.9000 913.0000 1.0000
40.9100 940.0000 1.0000
40.9200 913.0000 1.0000
40.9300 951.0000 1.0000
40.9400 993.0000 1.0000
40.9500 977.0000 1.0000
40.9600 908.0000 1.0000
40.9700 948.0000 1.0000
40.9800 916.0000 1.0000
40.9900 938.0000 1.0000
41.0000 996.0000 1.0000
41.0100 974.0000 1.0000
41.0200 983.0000 1.0000
41.0300 969.0000 1.0000
41.0400 966.0000 1.0000
41.0500 909.0000 1.0000
41.0600 954.0000 1.0000
41.0700 965.0000 1.0000
41.0800 894.0000 1.0000
41.0900 954.0000 1.0000
41.1000 926.0000 1.0000
41.1100 945.0000 1.0000
41.1200 972.0000 1.0000
41.1300 934.0000 1.0000
41.1400 978.0000 1.0000
41.1500 978.0000 1.0000
41.1600 952.0000 1.0000
41.1700 953.0000 1.0000
41.1800 933.0000 1.0000
41.1900 964.0000 1.0000
41.2000 942.0000 1.0000
41.2100 983.0000 1.0000
41.2200 910.0000 1.0000
41.2300 974.0000 1.0000
41.2400 987.0000 1.0000
41.2500 976.0000 1.0000
41.2600 955.0000 1.0000
41.2700 901.0000 1.0000
41.2800 931.0000 1.0000
41.2900 947.0000 1.0000
41.3000 999.0000 1.0000
41.3100 993.0000 1.0000
41.3200 961.0000 1.0000
41.3300 945.0000 1.0000
41.3400 931.0000 1.0000
41.3500 966.0000 1.0000
41.3600 900.0000 1.0000
41.3700 909.0000 1.0000
41.3800 924.0000 1.0000
41.3900 963.0000 1.0000
41.4000 944.0000 1.0000
41.4100 932.0000 1.0000
41.4200 957.0000 1.0000
41.4300 981.0000 1.0000
41.4400 965.0000 1.0000
41.4500 966.0000 1.0000
41.4600 887.0000 1.0000
41.4700 941.0000 1.0000
41.4800 968.0000 1.0000
41.4900 944.0000 1.0000
41.5000 987.0000 1.0000
41.5100 915.0000 1.0000
41.5200 927.0000 1.0000
41.5300 947.0000 1.0000
41.5400 919.0000 1.0000
41.5500 923.0000 1.0000
41.5600 948.0000 1.0000
41.5700 944.0000 1.0000
41.5800 942.0000 1.0000
41.5900 923.0000 1.0000
41.6000 982.0000 1.0000
41.6100 943.0000 1.0000
41.6200 971.0000 1.0000
41.6300 1061.0000 1.0000
41.6400 997.0000 1.0000
41.6500 974.0000 1.0000
41.6600 948.0000 1.0000
41.6700 933.0000 1.0000
41.6800 915.0000 1.0000
41.6900 944.0000 1.0000
41.7000 936.0000 1.0000
41.7100 941.0000 1.0000
41.7200 945.0000 1.0000
41.7300 930.0000 1.0000
41.7400 935.0000 1.0000
41.7500 940.0000 1.0000
41.7600 976.0000 1.0000
41.7700 957.0000 1.0000
41.7800 893.0000 1.0000
41.7900 902.0000 1.0000
41.8000 958.0000 1.0000
41.8100 909.0000 1.0000
41.8200 902.0000 1.0000
41.8300 933.0000 1.0000
41.8400 937.0000 1.0000
41.8500 959.0000 1.0000
41.8600 943.0000 1.0000
41.8700 964.0000 1.0000
41.8800 931.0000 1.0000
41.8900 917.0000 1.0000
41.9000 921.0000 1.0000
41.9100 948.0000 1.0000
41.9200 958.0000 1.0000
41.9300 942.0000 1.0000
41.9400 959.0000 1.0000
41.9500 931.0000 1.0000
41.9600 940.0000 1.0000
41.9700 956.0000 1.0000
41.9800 973.0000 1.0000
41.9900 910.0000 1.0000
42.0000 899.0000 1.0000
42.0100 926.0000 1.0000
42.0200 942.0000 1.0000
42.0300 983.0000 1.0000
42.0400 968.0000 1.0000
42.0500 959.0000 1.0000
42.0600 932.0000 1.0000
42.0700 911.0000 1.0000
42.0800 933.0000 1.0000
42.0900 928.0000 1.0000
42.1000 918.0000 1.0000
42.1100 921.0000 1.0000
42.1200 950.0000 1.0000
42.1300 959.0000 1.0000
42.1400 989.0000 1.0000
42.1500 975.0000 1.0000
42.1600 955.0000 1.0000
42.1700 942.0000 1.0000
42.1800 927.0000 1.0000
42.1900 920.0000 1.0000
42.2000 920.0000 1.0000
42.2100 911.0000 1.0000
42.2200 1026.0000 1.0000
42.2300 865.0000 1.0000
42.2400 903.0000 1.0000
42.2500 922.0000 1.0000
42.2600 975.0000 1.0000
42.2700 934.0000 1.0000
42.2800 938.0000 1.0000
42.2900 906.0000 1.0000
42.3000 951.0000 1.0000
42.3100 965.0000 1.0000
42.3200 978.0000 1.0000
42.3300 935.0000 1.0000
42.3400 897.0000 1.0000
42.3500 920.0000 1.0000
42.3600 960.0000 1.0000
42.3700 936.0000 1.0000
42.3800 924.0000 1.0000
42.3900 942.0000 1.0000
42.4000 936.0000 1.0000
42.4100 864.0000 1.0000
42.4200 886.0000 1.0000
42.4300 891.0000 1.0000
42.4400 972.0000 1.0000
42.4500 931.0000 1.0000
42.4600 927.0000 1.0000
42.4700 920.0000 1.0000
42.4800 960.0000 1.0000
42.4900 915.0000 1.0000
42.5000 936.0000 1.0000
42.5100 993.0000 1.0000
42.5200 966.0000 1.0000
42.5300 925.0000 1.0000
42.5400 901.0000 1.0000
42.5500 894.0000 1.0000
42.5600 920.0000 1.0000
42.5700 859.0000 1.0000
42.5800 900.0000 1.0000
42.5900 972.0000 1.0000
42.6000 937.0000 1.0000
42.6100 952.0000 1.0000
42.6200 901.0000 1.0000
42.6300 904.0000 1.0000
42.6400 918.0000 1.0000
42.6500 889.0000 1.0000
42.6600 950.0000 1.0000
42.6700 925.0000 1.0000
42.6800 943.0000 1.0000
42.6900 875.0000 1.0000
42.7000 896.0000 1.0000
42.7100 873.0000 1.0000
42.7200 899.0000 1.0000
42.7300 980.0000 1.0000
42.7400 859.0000 1.0000
42.7500 923.0000 1.0000
42.7600 931.0000 1.0000
42.7700 966.0000 1.0000
42.7800 937.0000 1.0000
42.7900 922.0000 1.0000
42.8000 939.0000 1.0000
42.8100 944.0000 1.0000
42.8200 952.0000 1.0000
42.8300 967.0000 1.0000
42.8400 941.0000 1.0000
42.8500 945.0000 1.0000
42.8600 940.0000 1.0000
42.8700 964.0000 1.0000
42.8800 898.0000 1.0000
42.8900 931.0000 1.0000
42.9000 903.0000 1.0000
42.9100 923.0000 1.0000
42.9200 948.0000 1.0000
42.9300 963.0000 1.0000
42.9400 933.0000 1.0000
42.9500 977.0000 1.0000
42.9600 952.0000 1.0000
42.9700 955.0000 1.0000
42.9800 938.0000 1.0000
42.9900 897.0000 1.0000
43.0000 982.0000 1.0000
43.0100 993.0000 1.0000
43.0200 970.0000 1.0000
43.0300 1007.0000 1.0000
43.0400 996.0000 1.0000
43.0500 913.0000 1.0000
43.0600 950.0000 1.0000
43.0700 951.0000 1.0000
43.0800 1009.0000 1.0000
43.0900 989.0000 1.0000
43.1000 987.0000 1.0000
43.1100 996.0000 1.0000
43.1200 948.0000 1.0000
43.1300 993.0000 1.0000
43.1400 960.0000 1.0000
43.1500 1011.0000 1.0000
43.1600 1037.0000 1.0000
43.1700 984.0000 1.0000
43.1800 1043.0000 1.0000
43.1900 1003.0000 1.0000
43.2000 994.0000 1.0000
43.2100 1045.0000 1.0000
43.2200 1058.0000 1.0000
43.2300 1040.0000 1.0000
43.2400 1045.0000 1.0000
43.2500 1048.0000 1.0000
43.2600 978.0000 1.0000
43.2700 1007.0000 1.0000
43.2800 1070.0000 1.0000
43.2900 1030.0000 1.0000
43.3000 1028.0000 1.0000
43.3100 988.0000 1.0000
43.3200 977.0000 1.0000
43.3300 948.0000 1.0000
43.3400 997.0000 1.0000
43.3500 990.0000 1.0000
43.3600 933.0000 1.0000
43.3700 1020.0000 1.0000
43.3800 942.0000 1.0000
43.3900 933.0000 1.0000
43.4000 941.0000 1.0000
43.4100 969.0000 1.0000
43.4200 929.0000 1.0000
43.4300 963.0000 1.0000
43.4400 918.0000 1.0000
43.4500 942.0000 1.0000
43.4600 982.0000 1.0000
43.4700 961.0000 1.0000
43.4800 942.0000 1.0000
43.4900 921.0000 1.0000
43.5000 922.0000 1.0000
43.5100 938.0000 1.0000
43.5200 888.0000 1.0000
43.5300 931.0000 1.0000
43.5400 942.0000 1.0000
43.5500 934.0000 1.0000
43.5600 951.0000 1.0000
43.5700 904.0000 1.0000
43.5800 916.0000 1.0000
43.5900 903.0000 1.0000
43.6000 881.0000 1.0000
43.6100 918.0000 1.0000
43.6200 894.0000 1.0000
43.6300 883.0000 1.0000
43.6400 932.0000 1.0000
43.6500 941.0000 1.0000
43.6600 846.0000 1.0000
43.6700 888.0000 1.0000
43.6800 942.0000 1.0000
43.6900 928.0000 1.0000
43.7000 946.0000 1.0000
43.7100 890.0000 1.0000
43.7200 903.0000 1.0000
43.7300 922.0000 1.0000
43.7400 908.0000 1.0000
43.7500 887.0000 1.0000
43.7600 892.0000 1.0000
43.7700 919.0000 1.0000
43.7800 928.0000 1.0000
43.7900 937.0000 1.0000
43.8000 934.0000 1.0000
43.8100 940.0000 1.0000
43.8200 913.0000 1.0000
43.8300 916.0000 1.0000
43.8400 907.0000 1.0000
43.8500 932.0000 1.0000
43.8600 919.0000 1.0000
43.8700 943.0000 1.0000
43.8800 950.0000 1.0000
43.8900 915.0000 1.0000
43.9000 931.0000 1.0000
43.9100 910.0000 1.0000
43.9200 894.0000 1.0000
43.9300 913.0000 1.0000
43.9400 966.0000 1.0000
43.9500 891.0000 1.0000
43.9600 870.0000 1.0000
43.9700 926.0000 1.0000
43.9800 921.0000 1.0000
43.9900 914.0000 1.0000
44.0000 887.0000 1.0000
44.0100 907.0000 1.0000
44.0200 939.0000 1.0000
44.0300 893.0000 1.0000
44.0400 881.0000 1.0000
44.0500 881.0000 1.0000
44.0600 940.0000 1.0000
44.0700 942.0000 1.0000
44.0800 915.0000 1.0000
44.0900 893.0000 1.0000
44.1000 869.0000 1.0000
44.1100 944.0000 1.0000
44.1200 932.0000 1.0000
44.1300 899.0000 1.0000
44.1400 917.0000 1.0000
44.1500 901.0000 1.0000
44.1600 910.0000 1.0000
44.1700 933.0000 1.0000
44.1800 896.0000 1.0000
44.1900 959.0000 1.0000
44.2000 895.0000 1.0000
44.2100 864.0000 1.0000
44.2200 919.0000 1.0000
44.2300 887.0000 1.0000
44.2400 919.0000 1.0000
44.2500 881.0000 1.0000
44.2600 905.0000 1.0000
44.2700 923.0000 1.0000
44.2800 868.0000 1.0000
44.2900 870.0000 1.0000
44.3000 850.0000 1.0000
44.3100 892.0000 1.0000
44.3200 972.0000 1.0000
44.3300 894.0000 1.0000
44.3400 873.0000 1.0000
44.3500 888.0000 1.0000
44.3600 928.0000 1.0000
44.3700 862.0000 1.0000
44.3800 935.0000 1.0000
44.3900 897.0000 1.0000
44.4000 877.0000 1.0000
44.4100 836.0000 1.0000
44.4200 923.0000 1.0000
44.4300 926.0000 1.0000
44.4400 914.0000 1.0000
44.4500 923.0000 1.0000
44.4600 890.0000 1.0000
44.4700 892.0000 1.0000
44.4800 896.0000 1.0000
44.4900 928.0000 1.0000
44.5000 940.0000 1.0000
44.5100 900.0000 1.0000
44.5200 944.0000 1.0000
44.5300 916.0000 1.0000
44.5400 920.0000 1.0000
44.5500 919.0000 1.0000
44.5600 933.0000 1.0000
44.5700 961.0000 1.0000
44.5800 927.0000 1.0000
44.5900 918.0000 1.0000
44.6000 846.0000 1.0000
44.6100 867.0000 1.0000
44.6200 890.0000 1.0000
44.6300 873.0000 1.0000
44.6400 907.0000 1.0000
44.6500 884.0000 1.0000
44.6600 930.0000 1.0000
44.6700 886.0000 1.0000
44.6800 902.0000 1.0000
44.6900 919.0000 1.0000
44.7000 861.0000 1.0000
44.7100 877.0000 1.0000
44.7200 892.0000 1.0000
44.7300 894.0000 1.0000
44.7400 900.0000 1.0000
44.7500 854.0000 1.0000
44.7600 888.0000 1.0000
44.7700 899.0000 1.0000
44.7800 876.0000 1.0000
44.7900 884.0000 1.0000
44.8000 863.0000 1.0000
44.8100 922.0000 1.0000
44.8200 894.0000 1.0000
44.8300 859.0000 1.0000
44.8400 871.0000 1.0000
44.8500 906.0000 1.0000
44.8600 902.0000 1.0000
44.8700 920.0000 1.0000
44.8800 855.0000 1.0000
44.8900 879.0000 1.0000
44.9000 870.0000 1.0000
44.9100 872.0000 1.0000
44.9200 864.0000 1.0000
44.9300 874.0000 1.0000
44.9400 912.0000 1.0000
44.9500 898.0000 1.0000
44.9600 878.0000 1.0000
44.9700 905.0000 1.0000
44.9800 835.0000 1.0000
44.9900 811.0000 1.0000
45.0000 906.0000 1.0000
45.0100 881.0000 1.0000
45.0200 892.0000 1.0000
45.0300 893.0000 1.0000
45.0400 886.0000 1.0000
45.0500 903.0000 1.0000
45.0600 880.0000 1.0000
45.0700 915.0000 1.0000
45.0800 857.0000 1.0000
45.0900 887.0000 1.0000
45.1000 886.0000 1.0000
45.1100 847.0000 1.0000
45.1200 871.0000 1.0000
45.1300 868.0000 1.0000
45.1400 885.0000 1.0000
45.1500 884.0000 1.0000
45.1600 854.0000 1.0000
45.1700 909.0000 1.0000
45.1800 857.0000 1.0000
45.1900 875.0000 1.0000
45.2000 882.0000 1.0000
45.2100 892.0000 1.0000
45.2200 867.0000 1.0000
45.2300 874.0000 1.0000
45.2400 922.0000 1.0000
45.2500 844.0000 1.0000
45.2600 860.0000 1.0000
45.2700 845.0000 1.0000
45.2800 857.0000 1.0000
45.2900 840.0000 1.0000
45.3000 872.0000 1.0000
45.3100 903.0000 1.0000
45.3200 892.0000 1.0000
45.3300 826.0000 1.0000
45.3400 860.0000 1.0000
45.3500 857.0000 1.0000
45.3600 894.0000 1.0000
45.3700 925.0000 1.0000
45.3800 887.0000 1.0000
45.3900 908.0000 1.0000
45.4000 884.0000 1.0000
45.4100 840.0000 1.0000
45.4200 844.0000 1.0000
45.4300 833.0000 1.0000
45.4400 837.0000 1.0000
45.4500 905.0000 1.0000
45.4600 857.0000 1.0000
45.4700 866.0000 1.0000
45.4800 823.0000 1.0000
45.4900 815.0000 1.0000
45.5000 865.0000 1.0000
45.5100 878.0000 1.0000
45.5200 861.0000 1.0000
45.5300 874.0000 1.0000
45.5400 927.0000 1.0000
45.5500 849.0000 1.0000
45.5600 861.0000 1.0000
45.5700 926.0000 1.0000
45.5800 866.0000 1.0000
45.5900 909.0000 1.0000
45.6000 856.0000 1.0000
45.6100 858.0000 1.0000
45.6200 867.0000 1.0000
45.6300 855.0000 1.0000
45.6400 826.0000 1.0000
45.6500 814.0000 1.0000
45.6600 840.0000 1.0000
45.6700 877.0000 1.0000
45.6800 883.0000 1.0000
45.6900 869.0000 1.0000
45.7000 868.0000 1.0000
45.7100 877.0000 1.0000
45.7200 885.0000 1.0000
45.7300 905.0000 1.0000
45.7400 881.0000 1.0000
45.7500 874.0000 1.0000
45.7600 888.0000 1.0000
45.7700 846.0000 1.0000
45.7800 799.0000 1.0000
45.7900 847.0000 1.0000
45.8000 827.0000 1.0000
45.8100 893.0000 1.0000
45.8200 889.0000 1.0000
45.8300 874.0000 1.0000
45.8400 895.0000 1.0000
45.8500 889.0000 1.0000
45.8600 850.0000 1.0000
45.8700 878.0000 1.0000
45.8800 860.0000 1.0000
45.8900 883.0000 1.0000
45.9000 845.0000 1.0000
45.9100 890.0000 1.0000
45.9200 858.0000 1.0000
45.9300 845.0000 1.0000
45.9400 844.0000 1.0000
45.9500 829.0000 1.0000
45.9600 861.0000 1.0000
45.9700 884.0000 1.0000
45.9800 865.0000 1.0000
45.9900 853.0000 1.0000
46.0000 858.0000 1.0000
46.0100 888.0000 1.0000
46.0200 870.0000 1.0000
46.0300 881.0000 1.0000
46.0400 870.0000 1.0000
46.0500 865.0000 1.0000
46.0600 857.0000 1.0000
46.0700 912.0000 1.0000
46.0800 907.0000 1.0000
46.0900 869.0000 1.0000
46.1000 848.0000 1.0000
46.1100 842.0000 1.0000
46.1200 847.0000 1.0000
46.1300 852.0000 1.0000
46.1400 842.0000 1.0000
46.1500 880.0000 1.0000
46.1600 863.0000 1.0000
46.1700 847.0000 1.0000
46.1800 863.0000 1.0000
46.1900 855.0000 1.0000
46.2000 803.0000 1.0000
46.2100 839.0000 1.0000
46.2200 864.0000 1.0000
46.2300 815.0000 1.0000
46.2400 855.0000 1.0000
46.2500 890.0000 1.0000
46.2600 843.0000 1.0000
46.2700 882.0000 1.0000
46.2800 834.0000 1.0000
46.2900 811.0000 1.0000
46.3000 824.0000 1.0000
46.3100 842.0000 1.0000
46.3200 870.0000 1.0000
46.3300 834.0000 1.0000
46.3400 912.0000 1.0000
46.3500 883.0000 1.0000
46.3600 811.0000 1.0000
46.3700 856.0000 1.0000
46.3800 871.0000 1.0000
46.3900 898.0000 1.0000
46.4000 879.0000 1.0000
46.4100 881.0000 1.0000
46.4200 826.0000 1.0000
46.4300 792.0000 1.0000
46.4400 846.0000 1.0000
46.4500 838.0000 1.0000
46.4600 822.0000 1.0000
46.4700 850.0000 1.0000
46.4800 839.0000 1.0000
46.4900 861.0000 1.0000
46.5000 846.0000 1.0000
46.5100 823.0000 1.0000
46.5200 838.0000 1.0000
46.5300 850.0000 1.0000
46.5400 866.0000 1.0000
46.5500 861.0000 1.0000
46.5600 840.0000 1.0000
46.5700 857.0000 1.0000
46.5800 848.0000 1.0000
46.5900 823.0000 1.0000
46.6000 816.0000 1.0000
46.6100 865.0000 1.0000
46.6200 824.0000 1.0000
46.6300 825.0000 1.0000
46.6400 867.0000 1.0000
46.6500 815.0000 1.0000
46.6600 832.0000 1.0000
46.6700 863.0000 1.0000
46.6800 856.0000 1.0000
46.6900 847.0000 1.0000
46.7000 861.0000 1.0000
46.7100 843.0000 1.0000
46.7200 830.0000 1.0000
46.7300 827.0000 1.0000
46.7400 794.0000 1.0000
46.7500 834.0000 1.0000
46.7600 854.0000 1.0000
46.7700 821.0000 1.0000
46.7800 819.0000 1.0000
46.7900 832.0000 1.0000
46.8000 861.0000 1.0000
46.8100 846.0000 1.0000
46.8200 805.0000 1.0000
46.8300 785.0000 1.0000
46.8400 834.0000 1.0000
46.8500 805.0000 1.0000
46.8600 877.0000 1.0000
46.8700 863.0000 1.0000
46.8800 834.0000 1.0000
46.8900 858.0000 1.0000
46.9000 893.0000 1.0000
46.9100 902.0000 1.0000
46.9200 825.0000 1.0000
46.9300 856.0000 1.0000
46.9400 884.0000 1.0000
46.9500 896.0000 1.0000
46.9600 904.0000 1.0000
46.9700 829.0000 1.0000
46.9800 897.0000 1.0000
46.9900 849.0000 1.0000
47.0000 837.0000 1.0000
47.0100 853.0000 1.0000
47.0200 894.0000 1.0000
47.0300 882.0000 1.0000
47.0400 816.0000 1.0000
47.0500 845.0000 1.0000
47.0600 864.0000 1.0000
47.0700 892.0000 1.0000
47.0800 853.0000 1.0000
47.0900 857.0000 1.0000
47.1000 870.0000 1.0000
47.1100 858.0000 1.0000
47.1200 833.0000 1.0000
47.1300 864.0000 1.0000
47.1400 810.0000 1.0000
47.1500 839.0000 1.0000
47.1600 843.0000 1.0000
47.1700 844.0000 1.0000
47.1800 818.0000 1.0000
47.1900 836.0000 1.0000
47.2000 830.0000 1.0000
47.2100 841.0000 1.0000
47.2200 762.0000 1.0000
47.2300 895.0000 1.0000
47.2400 836.0000 1.0000
47.2500 872.0000 1.0000
47.2600 844.0000 1.0000
47.2700 812.0000 1.0000
47.2800 864.0000 1.0000
47.2900 824.0000 1.0000
47.3000 856.0000 1.0000
47.3100 866.0000 1.0000
47.3200 863.0000 1.0000
47.3300 834.0000 1.0000
47.3400 852.0000 1.0000
47.3500 835.0000 1.0000
47.3600 844.0000 1.0000
47.3700 848.0000 1.0000
47.3800 834.0000 1.0000
47.3900 788.0000 1.0000
47.4000 859.0000 1.0000
47.4100 779.0000 1.0000
47.4200 840.0000 1.0000
47.4300 826.0000 1.0000
47.4400 810.0000 1.0000
47.4500 835.0000 1.0000
47.4600 841.0000 1.0000
47.4700 828.0000 1.0000
47.4800 839.0000 1.0000
47.4900 831.0000 1.0000
47.5000 854.0000 1.0000
47.5100 836.0000 1.0000
47.5200 803.0000 1.0000
47.5300 794.0000 1.0000
47.5400 785.0000 1.0000
47.5500 841.0000 1.0000
47.5600 816.0000 1.0000
47.5700 834.0000 1.0000
47.5800 786.0000 1.0000
47.5900 873.0000 1.0000
47.6000 824.0000 1.0000
47.6100 804.0000 1.0000
47.6200 829.0000 1.0000
47.6300 854.0000 1.0000
47.6400 799.0000 1.0000
47.6500 836.0000 1.0000
47.6600 849.0000 1.0000
47.6700 803.0000 1.0000
47.6800 852.0000 1.0000
47.6900 811.0000 1.0000
47.7000 820.0000 1.0000
47.7100 780.0000 1.0000
47.7200 843.0000 1.0000
47.7300 809.0000 1.0000
47.7400 791.0000 1.0000
47.7500 841.0000 1.0000
47.7600 863.0000 1.0000
47.7700 799.0000 1.0000
47.7800 828.0000 1.0000
47.7900 807.0000 1.0000
47.8000 829.0000 1.0000
47.8100 849.0000 1.0000
47.8200 810.0000 1.0000
47.8300 767.0000 1.0000
47.8400 836.0000 1.0000
47.8500 815.0000 1.0000
47.8600 916.0000 1.0000
47.8700 824.0000 1.0000
47.8800 857.0000 1.0000
47.8900 816.0000 1.0000
47.9000 856.0000 1.0000
47.9100 864.0000 1.0000
47.9200 853.0000 1.0000
47.9300 794.0000 1.0000
47.9400 826.0000 1.0000
47.9500 822.0000 1.0000
47.9600 812.0000 1.0000
47.9700 770.0000 1.0000
47.9800 809.0000 1.0000
47.9900 814.0000 1.0000
48.0000 785.0000 1.0000
48.0100 820.0000 1.0000
48.0200 811.0000 1.0000
48.0300 814.0000 1.0000
48.0400 833.0000 1.0000
48.0500 853.0000 1.0000
48.0600 850.0000 1.0000
48.0700 799.0000 1.0000
48.0800 789.0000 1.0000
48.0900 776.0000 1.0000
48.1000 826.0000 1.0000
48.1100 836.0000 1.0000
48.1200 834.0000 1.0000
48.1300 776.0000 1.0000
48.1400 816.0000 1.0000
48.1500 801.0000 1.0000
48.1600 805.0000 1.0000
48.1700 808.0000 1.0000
48.1800 778.0000 1.0000
48.1900 805.0000 1.0000
48.2000 796.0000 1.0000
48.2100 783.0000 1.0000
48.2200 829.0000 1.0000
48.2300 783.0000 1.0000
48.2400 815.0000 1.0000
48.2500 794.0000 1.0000
48.2600 851.0000 1.0000
48.2700 844.0000 1.0000
48.2800 839.0000 1.0000
48.2900 777.0000 1.0000
48.3000 796.0000 1.0000
48.3100 802.0000 1.0000
48.3200 800.0000 1.0000
48.3300 806.0000 1.0000
48.3400 833.0000 1.0000
48.3500 856.0000 1.0000
48.3600 825.0000 1.0000
48.3700 825.0000 1.0000
48.3800 811.0000 1.0000
48.3900 842.0000 1.0000
48.4000 797.0000 1.0000
48.4100 825.0000 1.0000
48.4200 805.0000 1.0000
48.4300 784.0000 1.0000
48.4400 839.0000 1.0000
48.4500 857.0000 1.0000
48.4600 840.0000 1.0000
48.4700 804.0000 1.0000
48.4800 807.0000 1.0000
48.4900 784.0000 1.0000
48.5000 827.0000 1.0000
48.5100 826.0000 1.0000
48.5200 841.0000 1.0000
48.5300 801.0000 1.0000
48.5400 789.0000 1.0000
48.5500 841.0000 1.0000
48.5600 820.0000 1.0000
48.5700 796.0000 1.0000
48.5800 773.0000 1.0000
48.5900 785.0000 1.0000
48.6000 786.0000 1.0000
48.6100 827.0000 1.0000
48.6200 769.0000 1.0000
48.6300 805.0000 1.0000
48.6400 791.0000 1.0000
48.6500 791.0000 1.0000
48.6600 819.0000 1.0000
48.6700 770.0000 1.0000
48.6800 789.0000 1.0000
48.6900 827.0000 1.0000
48.7000 761.0000 1.0000
48.7100 772.0000 1.0000
48.7200 866.0000 1.0000
48.7300 797.0000 1.0000
48.7400 805.0000 1.0000
48.7500 834.0000 1.0000
48.7600 788.0000 1.0000
48.7700 799.0000 1.0000
48.7800 802.0000 1.0000
48.7900 816.0000 1.0000
48.8000 776.0000 1.0000
48.8100 781.0000 1.0000
48.8200 758.0000 1.0000
48.8300 784.0000 1.0000
48.8400 828.0000 1.0000
48.8500 765.0000 1.0000
48.8600 766.0000 1.0000
48.8700 791.0000 1.0000
48.8800 822.0000 1.0000
48.8900 787.0000 1.0000
48.9000 831.0000 1.0000
48.9100 844.0000 1.0000
48.9200 796.0000 1.0000
48.9300 807.0000 1.0000
48.9400 818.0000 1.0000
48.9500 794.0000 1.0000
48.9600 794.0000 1.0000
48.9700 812.0000 1.0000
48.9800 762.0000 1.0000
48.9900 801.0000 1.0000
49.0000 766.0000 1.0000
49.0100 764.0000 1.0000
49.0200 755.0000 1.0000
49.0300 764.0000 1.0000
49.0400 796.0000 1.0000
49.0500 780.0000 1.0000
49.0600 771.0000 1.0000
49.0700 821.0000 1.0000
49.0800 822.0000 1.0000
49.0900 774.0000 1.0000
49.1000 789.0000 1.0000
49.1100 803.0000 1.0000
49.1200 800.0000 1.0000
49.1300 783.0000 1.0000
49.1400 767.0000 1.0000
49.1500 768.0000 1.0000
49.1600 795.0000 1.0000
49.1700 813.0000 1.0000
49.1800 804.0000 1.0000
49.1900 828.0000 1.0000
49.2000 821.0000 1.0000
49.2100 767.0000 1.0000
49.2200 843.0000 1.0000
49.2300 763.0000 1.0000
49.2400 792.0000 1.0000
49.2500 802.0000 1.0000
49.2600 778.0000 1.0000
49.2700 830.0000 1.0000
49.2800 750.0000 1.0000
49.2900 819.0000 1.0000
49.3000 816.0000 1.0000
49.3100 781.0000 1.0000
49.3200 781.0000 1.0000
49.3300 779.0000 1.0000
49.3400 763.0000 1.0000
49.3500 769.0000 1.0000
49.3600 762.0000 1.0000
49.3700 756.0000 1.0000
49.3800 797.0000 1.0000
49.3900 815.0000 1.0000
49.4000 813.0000 1.0000
49.4100 819.0000 1.0000
49.4200 839.0000 1.0000
49.4300 763.0000 1.0000
49.4400 786.0000 1.0000
49.4500 800.0000 1.0000
49.4600 794.0000 1.0000
49.4700 762.0000 1.0000
49.4800 793.0000 1.0000
49.4900 786.0000 1.0000
49.5000 744.0000 1.0000
49.5100 789.0000 1.0000
49.5200 799.0000 1.0000
49.5300 823.0000 1.0000
49.5400 784.0000 1.0000
49.5500 792.0000 1.0000
49.5600 769.0000 1.0000
49.5700 792.0000 1.0000
49.5800 797.0000 1.0000
49.5900 792.0000 1.0000
49.6000 798.0000 1.0000
49.6100 787.0000 1.0000
49.6200 802.0000 1.0000
49.6300 790.0000 1.0000
49.6400 801.0000 1.0000
49.6500 777.0000 1.0000
49.6600 798.0000 1.0000
49.6700 776.0000 1.0000
49.6800 776.0000 1.0000
49.6900 824.0000 1.0000
49.7000 775.0000 1.0000
49.7100 756.0000 1.0000
49.7200 806.0000 1.0000
49.7300 773.0000 1.0000
49.7400 792.0000 1.0000
49.7500 821.0000 1.0000
49.7600 788.0000 1.0000
49.7700 813.0000 1.0000
49.7800 788.0000 1.0000
49.7900 781.0000 1.0000
49.8000 803.0000 1.0000
49.8100 772.0000 1.0000
49.8200 784.0000 1.0000
49.8300 798.0000 1.0000
49.8400 798.0000 1.0000
49.8500 829.0000 1.0000
49.8600 784.0000 1.0000
49.8700 817.0000 1.0000
49.8800 816.0000 1.0000
49.8900 766.0000 1.0000
49.9000 797.0000 1.0000
49.9100 778.0000 1.0000
49.9200 818.0000 1.0000
49.9300 799.0000 1.0000
49.9400 754.0000 1.0000
49.9500 775.0000 1.0000
49.9600 803.0000 1.0000
49.9700 765.0000 1.0000
49.9800 790.0000 1.0000
49.9900 762.0000 1.0000
50.0000 811.0000 1.0000
50.0100 790.0000 1.0000
50.0200 836.0000 1.0000
50.0300 833.0000 1.0000
50.0400 807.0000 1.0000
50.0500 823.0000 1.0000
50.0600 830.0000 1.0000
50.0700 806.0000 1.0000
50.0800 789.0000 1.0000
50.0900 842.0000 1.0000
50.1000 782.0000 1.0000
50.1100 771.0000 1.0000
50.1200 772.0000 1.0000
50.1300 813.0000 1.0000
50.1400 833.0000 1.0000
50.1500 773.0000 1.0000
50.1600 786.0000 1.0000
50.1700 815.0000 1.0000
50.1800 782.0000 1.0000
50.1900 781.0000 1.0000
50.2000 805.0000 1.0000
50.2100 761.0000 1.0000
50.2200 821.0000 1.0000
50.2300 831.0000 1.0000
50.2400 792.0000 1.0000
50.2500 820.0000 1.0000
50.2600 865.0000 1.0000
50.2700 800.0000 1.0000
50.2800 802.0000 1.0000
50.2900 795.0000 1.0000
50.3000 789.0000 1.0000
50.3100 830.0000 1.0000
50.3200 806.0000 1.0000
50.3300 812.0000 1.0000
50.3400 828.0000 1.0000
50.3500 791.0000 1.0000
50.3600 823.0000 1.0000
50.3700 851.0000 1.0000
50.3800 815.0000 1.0000
50.3900 821.0000 1.0000
50.4000 769.0000 1.0000
50.4100 838.0000 1.0000
50.4200 774.0000 1.0000
50.4300 783.0000 1.0000
50.4400 794.0000 1.0000
50.4500 795.0000 1.0000
50.4600 793.0000 1.0000
50.4700 852.0000 1.0000
50.4800 825.0000 1.0000
50.4900 821.0000 1.0000
50.5000 763.0000 1.0000
50.5100 813.0000 1.0000
50.5200 779.0000 1.0000
50.5300 795.0000 1.0000
50.5400 835.0000 1.0000
50.5500 839.0000 1.0000
50.5600 843.0000 1.0000
50.5700 837.0000 1.0000
50.5800 771.0000 1.0000
50.5900 867.0000 1.0000
50.6000 784.0000 1.0000
50.6100 804.0000 1.0000
50.6200 803.0000 1.0000
50.6300 790.0000 1.0000
50.6400 805.0000 1.0000
50.6500 787.0000 1.0000
50.6600 775.0000 1.0000
50.6700 832.0000 1.0000
50.6800 792.0000 1.0000
50.6900 784.0000 1.0000
50.7000 764.0000 1.0000
50.7100 795.0000 1.0000
50.7200 815.0000 1.0000
50.7300 843.0000 1.0000
50.7400 835.0000 1.0000
50.7500 805.0000 1.0000
50.7600 813.0000 1.0000
50.7700 782.0000 1.0000
50.7800 782.0000 1.0000
50.7900 804.0000 1.0000
50.8000 788.0000 1.0000
50.8100 800.0000 1.0000
50.8200 803.0000 1.0000
50.8300 823.0000 1.0000
50.8400 813.0000 1.0000
50.8500 745.0000 1.0000
50.8600 806.0000 1.0000
50.8700 825.0000 1.0000
50.8800 798.0000 1.0000
50.8900 806.0000 1.0000
50.9000 816.0000 1.0000
50.9100 813.0000 1.0000
50.9200 783.0000 1.0000
50.9300 806.0000 1.0000
50.9400 827.0000 1.0000
50.9500 849.0000 1.0000
50.9600 824.0000 1.0000
50.9700 836.0000 1.0000
50.9800 828.0000 1.0000
50.9900 817.0000 1.0000
51.0000 784.0000 1.0000
51.0100 853.0000 1.0000
51.0200 811.0000 1.0000
51.0300 752.0000 1.0000
51.0400 852.0000 1.0000
51.0500 799.0000 1.0000
51.0600 815.0000 1.0000
51.0700 835.0000 1.0000
51.0800 853.0000 1.0000
51.0900 820.0000 1.0000
51.1000 852.0000 1.0000
51.1100 854.0000 1.0000
51.1200 787.0000 1.0000
51.1300 808.0000 1.0000
51.1400 805.0000 1.0000
51.1500 768.0000 1.0000
51.1600 787.0000 1.0000
51.1700 822.0000 1.0000
51.1800 793.0000 1.0000
51.1900 811.0000 1.0000
51.2000 767.0000 1.0000
51.2100 762.0000 1.0000
51.2200 784.0000 1.0000
51.2300 822.0000 1.0000
51.2400 805.0000 1.0000
51.2500 787.0000 1.0000
51.2600 773.0000 1.0000
51.2700 796.0000 1.0000
51.2800 791.0000 1.0000
51.2900 779.0000 1.0000
51.3000 763.0000 1.0000
51.3100 784.0000 1.0000
51.3200 792.0000 1.0000
51.3300 812.0000 1.0000
51.3400 832.0000 1.0000
51.3500 815.0000 1.0000
51.3600 814.0000 1.0000
51.3700 831.0000 1.0000
51.3800 805.0000 1.0000
51.3900 836.0000 1.0000
51.4000 837.0000 1.0000
51.4100 834.0000 1.0000
51.4200 823.0000 1.0000
51.4300 833.0000 1.0000
51.4400 817.0000 1.0000
51.4500 830.0000 1.0000
51.4600 823.0000 1.0000
51.4700 842.0000 1.0000
51.4800 796.0000 1.0000
51.4900 773.0000 1.0000
51.5000 805.0000 1.0000
51.5100 822.0000 1.0000
51.5200 822.0000 1.0000
51.5300 815.0000 1.0000
51.5400 812.0000 1.0000
51.5500 816.0000 1.0000
51.5600 855.0000 1.0000
51.5700 811.0000 1.0000
51.5800 835.0000 1.0000
51.5900 851.0000 1.0000
51.6000 809.0000 1.0000
51.6100 781.0000 1.0000
51.6200 861.0000 1.0000
51.6300 822.0000 1.0000
51.6400 853.0000 1.0000
51.6500 866.0000 1.0000
51.6600 863.0000 1.0000
51.6700 865.0000 1.0000
51.6800 875.0000 1.0000
51.6900 838.0000 1.0000
51.7000 868.0000 1.0000
51.7100 831.0000 1.0000
51.7200 825.0000 1.0000
51.7300 850.0000 1.0000
51.7400 930.0000 1.0000
51.7500 881.0000 1.0000
51.7600 923.0000 1.0000
51.7700 844.0000 1.0000
51.7800 851.0000 1.0000
51.7900 894.0000 1.0000
51.8000 908.0000 1.0000
51.8100 937.0000 1.0000
51.8200 933.0000 1.0000
51.8300 925.0000 1.0000
51.8400 906.0000 1.0000
51.8500 966.0000 1.0000
51.8600 958.0000 1.0000
51.8700 984.0000 1.0000
51.8800 995.0000 1.0000
51.8900 999.0000 1.0000
51.9000 955.0000 1.0000
51.9100 1022.0000 1.0000
51.9200 1025.0000 1.0000
51.9300 1010.0000 1.0000
51.9400 1055.0000 1.0000
51.9500 1084.0000 1.0000
51.9600 1113.0000 1.0000
51.9700 1188.0000 1.0000
51.9800 1223.0000 1.0000
51.9900 1189.0000 1.0000
52.0000 1258.0000 1.0000
52.0100 1342.0000 1.0000
52.0200 1369.0000 1.0000
52.0300 1432.0000 1.0000
52.0400 1399.0000 1.0000
52.0500 1559.0000 1.0000
52.0600 1675.0000 1.0000
52.0700 1679.0000 1.0000
52.0800 1656.0000 1.0000
52.0900 1808.0000 1.0000
52.1000 1875.0000 1.0000
52.1100 2108.0000 1.0000
52.1200 2300.0000 1.0000
52.1300 2431.0000 1.0000
52.1400 2610.0000 1.0000
52.1500 2758.0000 1.0000
52.1600 2940.0000 1.0000
52.1700 3289.0000 1.0000
52.1800 3593.0000 1.0000
52.1900 3982.0000 1.0000
52.2000 4061.0000 1.0000
52.2100 4408.0000 1.0000
52.2200 4609.0000 1.0000
52.2300 4799.0000 1.0000
52.2400 5045.0000 1.0000
52.2500 4990.0000 1.0000
52.2600 4953.0000 1.0000
52.2700 4981.0000 1.0000
52.2800 4862.0000 1.0000
52.2900 4583.0000 1.0000
52.3000 4620.0000 1.0000
52.3100 4500.0000 1.0000
52.3200 4220.0000 1.0000
52.3300 4082.0000 1.0000
52.3400 4168.0000 1.0000
52.3500 4066.0000 1.0000
52.3600 3843.0000 1.0000
52.3700 3850.0000 1.0000
52.3800 3789.0000 1.0000
52.3900 3665.0000 1.0000
52.4000 3511.0000 1.0000
52.4100 3383.0000 1.0000
52.4200 3163.0000 1.0000
52.4300 3042.0000 1.0000
52.4400 2780.0000 1.0000
52.4500 2539.0000 1.0000
52.4600 2359.0000 1.0000
52.4700 2302.0000 1.0000
52.4800 2126.0000 1.0000
52.4900 2027.0000 1.0000
52.5000 1932.0000 1.0000
52.5100 1792.0000 1.0000
52.5200 1762.0000 1.0000
52.5300 1624.0000 1.0000
52.5400 1519.0000 1.0000
52.5500 1471.0000 1.0000
52.5600 1437.0000 1.0000
52.5700 1359.0000 1.0000
52.5800 1323.0000 1.0000
52.5900 1280.0000 1.0000
52.6000 1292.0000 1.0000
52.6100 1240.0000 1.0000
52.6200 1229.0000 1.0000
52.6300 1106.0000 1.0000
52.6400 1132.0000 1.0000
52.6500 1079.0000 1.0000
52.6600 1132.0000 1.0000
52.6700 1104.0000 1.0000
52.6800 1034.0000 1.0000
52.6900 1035.0000 1.0000
52.7000 985.0000 1.0000
52.7100 993.0000 1.0000
52.7200 970.0000 1.0000
52.7300 987.0000 1.0000
52.7400 979.0000 1.0000
52.7500 989.0000 1.0000
52.7600 977.0000 1.0000
52.7700 973.0000 1.0000
52.7800 971.0000 1.0000
52.7900 968.0000 1.0000
52.8000 951.0000 1.0000
52.8100 927.0000 1.0000
52.8200 903.0000 1.0000
52.8300 877.0000 1.0000
52.8400 901.0000 1.0000
52.8500 897.0000 1.0000
52.8600 849.0000 1.0000
52.8700 864.0000 1.0000
52.8800 947.0000 1.0000
52.8900 904.0000 1.0000
52.9000 889.0000 1.0000
52.9100 850.0000 1.0000
52.9200 850.0000 1.0000
52.9300 841.0000 1.0000
52.9400 850.0000 1.0000
52.9500 831.0000 1.0000
52.9600 866.0000 1.0000
52.9700 820.0000 1.0000
52.9800 838.0000 1.0000
52.9900 865.0000 1.0000
53.0000 844.0000 1.0000
53.0100 811.0000 1.0000
53.0200 834.0000 1.0000
53.0300 870.0000 1.0000
53.0400 815.0000 1.0000
53.0500 868.0000 1.0000
53.0600 855.0000 1.0000
53.0700 788.0000 1.0000
53.0800 818.0000 1.0000
53.0900 834.0000 1.0000
53.1000 842.0000 1.0000
53.1100 803.0000 1.0000
53.1200 841.0000 1.0000
53.1300 819.0000 1.0000
53.1400 831.0000 1.0000
53.1500 845.0000 1.0000
53.1600 893.0000 1.0000
53.1700 858.0000 1.0000
53.1800 849.0000 1.0000
53.1900 817.0000 1.0000
53.2000 779.0000 1.0000
53.2100 812.0000 1.0000
53.2200 787.0000 1.0000
53.2300 762.0000 1.0000
53.2400 811.0000 1.0000
53.2500 800.0000 1.0000
53.2600 809.0000 1.0000
53.2700 781.0000 1.0000
53.2800 773.0000 1.0000
53.2900 827.0000 1.0000
53.3000 820.0000 1.0000
53.3100 806.0000 1.0000
53.3200 796.0000 1.0000
53.3300 745.0000 1.0000
53.3400 803.0000 1.0000
53.3500 848.0000 1.0000
53.3600 797.0000 1.0000
53.3700 785.0000 1.0000
53.3800 793.0000 1.0000
53.3900 800.0000 1.0000
53.4000 805.0000 1.0000
53.4100 790.0000 1.0000
53.4200 778.0000 1.0000
53.4300 795.0000 1.0000
53.4400 776.0000 1.0000
53.4500 807.0000 1.0000
53.4600 775.0000 1.0000
53.4700 807.0000 1.0000
53.4800 814.0000 1.0000
53.4900 826.0000 1.0000
53.5000 790.0000 1.0000
53.5100 771.0000 1.0000
53.5200 828.0000 1.0000
53.5300 793.0000 1.0000
53.5400 765.0000 1.0000
53.5500 811.0000 1.0000
53.5600 814.0000 1.0000
53.5700 789.0000 1.0000
53.5800 779.0000 1.0000
53.5900 750.0000 1.0000
53.6000 773.0000 1.0000
53.6100 750.0000 1.0000
53.6200 778.0000 1.0000
53.6300 798.0000 1.0000
53.6400 762.0000 1.0000
53.6500 853.0000 1.0000
53.6600 799.0000 1.0000
53.6700 749.0000 1.0000
53.6800 743.0000 1.0000
53.6900 735.0000 1.0000
53.7000 776.0000 1.0000
53.7100 785.0000 1.0000
53.7200 810.0000 1.0000
53.7300 786.0000 1.0000
53.7400 823.0000 1.0000
53.7500 782.0000 1.0000
53.7600 755.0000 1.0000
53.7700 778.0000 1.0000
53.7800 766.0000 1.0000
53.7900 788.0000 1.0000
53.8000 788.0000 1.0000
53.8100 727.0000 1.0000
53.8200 769.0000 1.0000
53.8300 791.0000 1.0000
53.8400 792.0000 1.0000
53.8500 826.0000 1.0000
53.8600 770.0000 1.0000
53.8700 777.0000 1.0000
53.8800 796.0000 1.0000
53.8900 783.0000 1.0000
53.9000 725.0000 1.0000
53.9100 733.0000 1.0000
53.9200 765.0000 1.0000
53.9300 792.0000 1.0000
53.9400 798.0000 1.0000
53.9500 800.0000 1.0000
53.9600 813.0000 1.0000
53.9700 794.0000 1.0000
53.9800 760.0000 1.0000
53.9900 780.0000 1.0000
54.0000 780.0000 1.0000
54.0100 805.0000 1.0000
54.0200 722.0000 1.0000
54.0300 771.0000 1.0000
54.0400 754.0000 1.0000
54.0500 783.0000 1.0000
54.0600 744.0000 1.0000
54.0700 753.0000 1.0000
54.0800 778.0000 1.0000
54.0900 802.0000 1.0000
54.1000 811.0000 1.0000
54.1100 783.0000 1.0000
54.1200 776.0000 1.0000
54.1300 772.0000 1.0000
54.1400 802.0000 1.0000
54.1500 788.0000 1.0000
54.1600 804.0000 1.0000
54.1700 779.0000 1.0000
54.1800 805.0000 1.0000
54.1900 757.0000 1.0000
54.2000 786.0000 1.0000
54.2100 785.0000 1.0000
54.2200 802.0000 1.0000
54.2300 777.0000 1.0000
54.2400 767.0000 1.0000
54.2500 761.0000 1.0000
54.2600 718.0000 1.0000
54.2700 744.0000 1.0000
54.2800 774.0000 1.0000
54.2900 761.0000 1.0000
54.3000 793.0000 1.0000
54.3100 848.0000 1.0000
54.3200 727.0000 1.0000
54.3300 780.0000 1.0000
54.3400 765.0000 1.0000
54.3500 773.0000 1.0000
54.3600 768.0000 1.0000
54.3700 785.0000 1.0000
54.3800 807.0000 1.0000
54.3900 774.0000 1.0000
54.4000 812.0000 1.0000
54.4100 802.0000 1.0000
54.4200 791.0000 1.0000
54.4300 794.0000 1.0000
54.4400 810.0000 1.0000
54.4500 802.0000 1.0000
54.4600 782.0000 1.0000
54.4700 794.0000 1.0000
54.4800 765.0000 1.0000
54.4900 768.0000 1.0000
54.5000 787.0000 1.0000
54.5100 771.0000 1.0000
54.5200 758.0000 1.0000
54.5300 796.0000 1.0000
54.5400 806.0000 1.0000
54.5500 791.0000 1.0000
54.5600 771.0000 1.0000
54.5700 803.0000 1.0000
54.5800 812.0000 1.0000
54.5900 762.0000 1.0000
54.6000 754.0000 1.0000
54.6100 781.0000 1.0000
54.6200 768.0000 1.0000
54.6300 786.0000 1.0000
54.6400 757.0000 1.0000
54.6500 828.0000 1.0000
54.6600 803.0000 1.0000
54.6700 819.0000 1.0000
54.6800 766.0000 1.0000
54.6900 779.0000 1.0000
54.7000 790.0000 1.0000
54.7100 783.0000 1.0000
54.7200 800.0000 1.0000
54.7300 834.0000 1.0000
54.7400 841.0000 1.0000
54.7500 813.0000 1.0000
54.7600 794.0000 1.0000
54.7700 777.0000 1.0000
54.7800 805.0000 1.0000
54.7900 823.0000 1.0000
54.8000 831.0000 1.0000
54.8100 775.0000 1.0000
54.8200 818.0000 1.0000
54.8300 818.0000 1.0000
54.8400 796.0000 1.0000
54.8500 800.0000 1.0000
54.8600 793.0000 1.0000
54.8700 840.0000 1.0000
54.8800 788.0000 1.0000
54.8900 832.0000 1.0000
54.9000 828.0000 1.0000
54.9100 844.0000 1.0000
54.9200 827.0000 1.0000
54.9300 868.0000 1.0000
54.9400 828.0000 1.0000
54.9500 791.0000 1.0000
54.9600 843.0000 1.0000
54.9700 889.0000 1.0000
54.9800 861.0000 1.0000
54.9900 858.0000 1.0000
55.0000 853.0000 1.0000
55.0100 867.0000 1.0000
55.0200 835.0000 1.0000
55.0300 897.0000 1.0000
55.0400 884.0000 1.0000
55.0500 897.0000 1.0000
55.0600 898.0000 1.0000
55.0700 906.0000 1.0000
55.0800 897.0000 1.0000
55.0900 925.0000 1.0000
55.1000 942.0000 1.0000
55.1100 928.0000 1.0000
55.1200 970.0000 1.0000
55.1300 899.0000 1.0000
55.1400 998.0000 1.0000
55.1500 1017.0000 1.0000
55.1600 1001.0000 1.0000
55.1700 996.0000 1.0000
55.1800 1052.0000 1.0000
55.1900 1063.0000 1.0000
55.2000 1087.0000 1.0000
55.2100 1099.0000 1.0000
55.2200 1131.0000 1.0000
55.2300 1121.0000 1.0000
55.2400 1205.0000 1.0000
55.2500 1189.0000 1.0000
55.2600 1150.0000 1.0000
55.2700 1174.0000 1.0000
55.2800 1162.0000 1.0000
55.2900 1176.0000 1.0000
55.3000 1163.0000 1.0000
55.3100 1143.0000 1.0000
55.3200 1189.0000 1.0000
55.3300 1157.0000 1.0000
55.3400 1155.0000 1.0000
55.3500 1188.0000 1.0000
55.3600 1084.0000 1.0000
55.3700 1166.0000 1.0000
55.3800 1111.0000 1.0000
55.3900 1147.0000 1.0000
55.4000 1071.0000 1.0000
55.4100 1066.0000 1.0000
55.4200 1033.0000 1.0000
55.4300 1079.0000 1.0000
55.4400 1027.0000 1.0000
55.4500 1058.0000 1.0000
55.4600 1002.0000 1.0000
55.4700 1016.0000 1.0000
55.4800 959.0000 1.0000
55.4900 907.0000 1.0000
55.5000 914.0000 1.0000
55.5100 930.0000 1.0000
55.5200 899.0000 1.0000
55.5300 924.0000 1.0000
55.5400 938.0000 1.0000
55.5500 907.0000 1.0000
55.5600 913.0000 1.0000
55.5700 884.0000 1.0000
55.5800 856.0000 1.0000
55.5900 886.0000 1.0000
55.6000 864.0000 1.0000
55.6100 847.0000 1.0000
55.6200 852.0000 1.0000
55.6300 838.0000 1.0000
55.6400 802.0000 1.0000
55.6500 828.0000 1.0000
55.6600 772.0000 1.0000
55.6700 858.0000 1.0000
55.6800 833.0000 1.0000
55.6900 782.0000 1.0000
55.7000 802.0000 1.0000
55.7100 767.0000 1.0000
55.7200 785.0000 1.0000
55.7300 788.0000 1.0000
55.7400 777.0000 1.0000
55.7500 809.0000 1.0000
55.7600 792.0000 1.0000
55.7700 793.0000 1.0000
55.7800 796.0000 1.0000
55.7900 824.0000 1.0000
55.8000 788.0000 1.0000
55.8100 793.0000 1.0000
55.8200 806.0000 1.0000
55.8300 764.0000 1.0000
55.8400 758.0000 1.0000
55.8500 774.0000 1.0000
55.8600 772.0000 1.0000
55.8700 813.0000 1.0000
55.8800 788.0000 1.0000
55.8900 751.0000 1.0000
55.9000 844.0000 1.0000
55.9100 794.0000 1.0000
55.9200 818.0000 1.0000
55.9300 764.0000 1.0000
55.9400 737.0000 1.0000
55.9500 745.0000 1.0000
55.9600 783.0000 1.0000
55.9700 764.0000 1.0000
55.9800 733.0000 1.0000
55.9900 772.0000 1.0000
56.0000 764.0000 1.0000
56.0100 747.0000 1.0000
56.0200 773.0000 1.0000
56.0300 729.0000 1.0000
56.0400 789.0000 1.0000
56.0500 735.0000 1.0000
56.0600 754.0000 1.0000
56.0700 764.0000 1.0000
56.0800 772.0000 1.0000
56.0900 761.0000 1.0000
56.1000 753.0000 1.0000
56.1100 755.0000 1.0000
56.1200 740.0000 1.0000
56.1300 714.0000 1.0000
56.1400 742.0000 1.0000
56.1500 742.0000 1.0000
56.1600 765.0000 1.0000
56.1700 749.0000 1.0000
56.1800 749.0000 1.0000
56.1900 731.0000 1.0000
56.2000 749.0000 1.0000
56.2100 781.0000 1.0000
56.2200 759.0000 1.0000
56.2300 782.0000 1.0000
56.2400 746.0000 1.0000
56.2500 719.0000 1.0000
56.2600 784.0000 1.0000
56.2700 753.0000 1.0000
56.2800 757.0000 1.0000
56.2900 764.0000 1.0000
56.3000 718.0000 1.0000
56.3100 743.0000 1.0000
56.3200 745.0000 1.0000
56.3300 749.0000 1.0000
56.3400 800.0000 1.0000
56.3500 765.0000 1.0000
56.3600 766.0000 1.0000
56.3700 745.0000 1.0000
56.3800 737.0000 1.0000
56.3900 764.0000 1.0000
56.4000 759.0000 1.0000
56.4100 763.0000 1.0000
56.4200 717.0000 1.0000
56.4300 803.0000 1.0000
56.4400 764.0000 1.0000
56.4500 798.0000 1.0000
56.4600 742.0000 1.0000
56.4700 740.0000 1.0000
56.4800 717.0000 1.0000
56.4900 750.0000 1.0000
56.5000 742.0000 1.0000
56.5100 731.0000 1.0000
56.5200 749.0000 1.0000
56.5300 736.0000 1.0000
56.5400 767.0000 1.0000
56.5500 749.0000 1.0000
56.5600 722.0000 1.0000
56.5700 767.0000 1.0000
56.5800 758.0000 1.0000
56.5900 756.0000 1.0000
56.6000 742.0000 1.0000
56.6100 737.0000 1.0000
56.6200 759.0000 1.0000
56.6300 781.0000 1.0000
56.6400 786.0000 1.0000
56.6500 723.0000 1.0000
56.6600 766.0000 1.0000
56.6700 722.0000 1.0000
56.6800 711.0000 1.0000
56.6900 801.0000 1.0000
56.7000 750.0000 1.0000
56.7100 749.0000 1.0000
56.7200 738.0000 1.0000
56.7300 751.0000 1.0000
56.7400 736.0000 1.0000
56.7500 724.0000 1.0000
56.7600 746.0000 1.0000
56.7700 763.0000 1.0000
56.7800 743.0000 1.0000
56.7900 724.0000 1.0000
56.8000 786.0000 1.0000
56.8100 754.0000 1.0000
56.8200 798.0000 1.0000
56.8300 751.0000 1.0000
56.8400 715.0000 1.0000
56.8500 751.0000 1.0000
56.8600 716.0000 1.0000
56.8700 741.0000 1.0000
56.8800 753.0000 1.0000
56.8900 805.0000 1.0000
56.9000 776.0000 1.0000
56.9100 765.0000 1.0000
56.9200 771.0000 1.0000
56.9300 756.0000 1.0000
56.9400 741.0000 1.0000
56.9500 743.0000 1.0000
56.9600 741.0000 1.0000
56.9700 769.0000 1.0000
56.9800 754.0000 1.0000
56.9900 771.0000 1.0000
57.0000 784.0000 1.0000
57.0100 743.0000 1.0000
57.0200 727.0000 1.0000
57.0300 728.0000 1.0000
57.0400 739.0000 1.0000
57.0500 782.0000 1.0000
57.0600 796.0000 1.0000
57.0700 813.0000 1.0000
57.0800 797.0000 1.0000
57.0900 797.0000 1.0000
57.1000 784.0000 1.0000
57.1100 729.0000 1.0000
57.1200 753.0000 1.0000
57.1300 736.0000 1.0000
57.1400 740.0000 1.0000
57.1500 775.0000 1.0000
57.1600 768.0000 1.0000
57.1700 786.0000 1.0000
57.1800 748.0000 1.0000
57.1900 753.0000 1.0000
57.2000 778.0000 1.0000
57.2100 733.0000 1.0000
57.2200 747.0000 1.0000
57.2300 708.0000 1.0000
57.2400 769.0000 1.0000
57.2500 765.0000 1.0000
57.2600 753.0000 1.0000
57.2700 755.0000 1.0000
57.2800 780.0000 1.0000
57.2900 734.0000 1.0000
57.3000 764.0000 1.0000
57.3100 762.0000 1.0000
57.3200 792.0000 1.0000
57.3300 698.0000 1.0000
57.3400 761.0000 1.0000
57.3500 742.0000 1.0000
57.3600 735.0000 1.0000
57.3700 777.0000 1.0000
57.3800 760.0000 1.0000
57.3900 732.0000 1.0000
57.4000 718.0000 1.0000
57.4100 773.0000 1.0000
57.4200 761.0000 1.0000
57.4300 754.0000 1.0000
57.4400 744.0000 1.0000
57.4500 701.0000 1.0000
57.4600 696.0000 1.0000
57.4700 807.0000 1.0000
57.4800 700.0000 1.0000
57.4900 794.0000 1.0000
57.5000 716.0000 1.0000
57.5100 748.0000 1.0000
57.5200 723.0000 1.0000
57.5300 780.0000 1.0000
57.5400 776.0000 1.0000
57.5500 771.0000 1.0000
57.5600 762.0000 1.0000
57.5700 778.0000 1.0000
57.5800 737.0000 1.0000
57.5900 752.0000 1.0000
57.6000 761.0000 1.0000
57.6100 709.0000 1.0000
57.6200 715.0000 1.0000
57.6300 726.0000 1.0000
57.6400 724.0000 1.0000
57.6500 784.0000 1.0000
57.6600 772.0000 1.0000
57.6700 721.0000 1.0000
57.6800 751.0000 1.0000
57.6900 698.0000 1.0000
57.7000 752.0000 1.0000
57.7100 725.0000 1.0000
57.7200 764.0000 1.0000
57.7300 738.0000 1.0000
57.7400 701.0000 1.0000
57.7500 756.0000 1.0000
57.7600 767.0000 1.0000
57.7700 735.0000 1.0000
57.7800 731.0000 1.0000
57.7900 746.0000 1.0000
57.8000 730.0000 1.0000
57.8100 746.0000 1.0000
57.8200 733.0000 1.0000
57.8300 723.0000 1.0000
57.8400 748.0000 1.0000
57.8500 709.0000 1.0000
57.8600 727.0000 1.0000
57.8700 727.0000 1.0000
57.8800 738.0000 1.0000
57.8900 725.0000 1.0000
57.9000 753.0000 1.0000
57.9100 796.0000 1.0000
57.9200 787.0000 1.0000
57.9300 786.0000 1.0000
57.9400 762.0000 1.0000
57.9500 806.0000 1.0000
57.9600 731.0000 1.0000
57.9700 754.0000 1.0000
57.9800 769.0000 1.0000
57.9900 783.0000 1.0000
58.0000 762.0000 1.0000
58.0100 749.0000 1.0000
58.0200 744.0000 1.0000
58.0300 731.0000 1.0000
58.0400 746.0000 1.0000
58.0500 763.0000 1.0000
58.0600 741.0000 1.0000
58.0700 764.0000 1.0000
58.0800 759.0000 1.0000
58.0900 780.0000 1.0000
58.1000 749.0000 1.0000
58.1100 743.0000 1.0000
58.1200 772.0000 1.0000
58.1300 742.0000 1.0000
58.1400 789.0000 1.0000
58.1500 756.0000 1.0000
58.1600 753.0000 1.0000
58.1700 745.0000 1.0000
58.1800 844.0000 1.0000
58.1900 794.0000 1.0000
58.2000 792.0000 1.0000
58.2100 738.0000 1.0000
58.2200 775.0000 1.0000
58.2300 782.0000 1.0000
58.2400 741.0000 1.0000
58.2500 751.0000 1.0000
58.2600 716.0000 1.0000
58.2700 775.0000 1.0000
58.2800 755.0000 1.0000
58.2900 754.0000 1.0000
58.3000 763.0000 1.0000
58.3100 746.0000 1.0000
58.3200 777.0000 1.0000
58.3300 760.0000 1.0000
58.3400 791.0000 1.0000
58.3500 803.0000 1.0000
58.3600 737.0000 1.0000
58.3700 800.0000 1.0000
58.3800 795.0000 1.0000
58.3900 762.0000 1.0000
58.4000 765.0000 1.0000
58.4100 798.0000 1.0000
58.4200 744.0000 1.0000
58.4300 786.0000 1.0000
58.4400 750.0000 1.0000
58.4500 727.0000 1.0000
58.4600 745.0000 1.0000
58.4700 746.0000 1.0000
58.4800 741.0000 1.0000
58.4900 737.0000 1.0000
58.5000 755.0000 1.0000
58.5100 721.0000 1.0000
58.5200 769.0000 1.0000
58.5300 783.0000 1.0000
58.5400 775.0000 1.0000
58.5500 727.0000 1.0000
58.5600 712.0000 1.0000
58.5700 786.0000 1.0000
58.5800 796.0000 1.0000
58.5900 779.0000 1.0000
58.6000 771.0000 1.0000
58.6100 753.0000 1.0000
58.6200 719.0000 1.0000
58.6300 720.0000 1.0000
58.6400 756.0000 1.0000
58.6500 739.0000 1.0000
58.6600 756.0000 1.0000
58.6700 765.0000 1.0000
58.6800 731.0000 1.0000
58.6900 738.0000 1.0000
58.7000 707.0000 1.0000
58.7100 772.0000 1.0000
58.7200 717.0000 1.0000
58.7300 769.0000 1.0000
58.7400 761.0000 1.0000
58.7500 736.0000 1.0000
58.7600 793.0000 1.0000
58.7700 733.0000 1.0000
58.7800 753.0000 1.0000
58.7900 778.0000 1.0000
58.8000 747.0000 1.0000
58.8100 756.0000 1.0000
58.8200 740.0000 1.0000
58.8300 775.0000 1.0000
58.8400 756.0000 1.0000
58.8500 729.0000 1.0000
58.8600 742.0000 1.0000
58.8700 788.0000 1.0000
58.8800 751.0000 1.0000
58.8900 730.0000 1.0000
58.9000 800.0000 1.0000
58.9100 750.0000 1.0000
58.9200 740.0000 1.0000
58.9300 748.0000 1.0000
58.9400 742.0000 1.0000
58.9500 738.0000 1.0000
58.9600 727.0000 1.0000
58.9700 764.0000 1.0000
58.9800 728.0000 1.0000
58.9900 724.0000 1.0000
59.0000 761.0000 1.0000
59.0100 768.0000 1.0000
59.0200 748.0000 1.0000
59.0300 731.0000 1.0000
59.0400 729.0000 1.0000
59.0500 706.0000 1.0000
59.0600 716.0000 1.0000
59.0700 738.0000 1.0000
59.0800 720.0000 1.0000
59.0900 717.0000 1.0000
59.1000 759.0000 1.0000
59.1100 755.0000 1.0000
59.1200 686.0000 1.0000
59.1300 767.0000 1.0000
59.1400 734.0000 1.0000
59.1500 752.0000 1.0000
59.1600 750.0000 1.0000
59.1700 743.0000 1.0000
59.1800 725.0000 1.0000
59.1900 774.0000 1.0000
59.2000 741.0000 1.0000
59.2100 779.0000 1.0000
59.2200 772.0000 1.0000
59.2300 763.0000 1.0000
59.2400 756.0000 1.0000
59.2500 779.0000 1.0000
59.2600 749.0000 1.0000
59.2700 719.0000 1.0000
59.2800 772.0000 1.0000
59.2900 760.0000 1.0000
59.3000 755.0000 1.0000
59.3100 734.0000 1.0000
59.3200 720.0000 1.0000
59.3300 764.0000 1.0000
59.3400 759.0000 1.0000
59.3500 797.0000 1.0000
59.3600 752.0000 1.0000
59.3700 787.0000 1.0000
59.3800 731.0000 1.0000
59.3900 737.0000 1.0000
59.4000 740.0000 1.0000
59.4100 749.0000 1.0000
59.4200 778.0000 1.0000
59.4300 763.0000 1.0000
59.4400 766.0000 1.0000
59.4500 721.0000 1.0000
59.4600 740.0000 1.0000
59.4700 730.0000 1.0000
59.4800 714.0000 1.0000
59.4900 724.0000 1.0000
59.5000 730.0000 1.0000
59.5100 761.0000 1.0000
59.5200 739.0000 1.0000
59.5300 768.0000 1.0000
59.5400 709.0000 1.0000
59.5500 808.0000 1.0000
59.5600 812.0000 1.0000
59.5700 722.0000 1.0000
59.5800 754.0000 1.0000
59.5900 732.0000 1.0000
59.6000 751.0000 1.0000
59.6100 750.0000 1.0000
59.6200 761.0000 1.0000
59.6300 755.0000 1.0000
59.6400 722.0000 1.0000
59.6500 738.0000 1.0000
59.6600 726.0000 1.0000
59.6700 756.0000 1.0000
59.6800 745.0000 1.0000
59.6900 789.0000 1.0000
59.7000 747.0000 1.0000
59.7100 744.0000 1.0000
59.7200 745.0000 1.0000
59.7300 766.0000 1.0000
59.7400 748.0000 1.0000
59.7500 721.0000 1.0000
59.7600 803.0000 1.0000
59.7700 756.0000 1.0000
59.7800 755.0000 1.0000
59.7900 725.0000 1.0000
59.8000 749.0000 1.0000
59.8100 779.0000 1.0000
59.8200 750.0000 1.0000
59.8300 722.0000 1.0000
59.8400 716.0000 1.0000
59.8500 755.0000 1.0000
59.8600 736.0000 1.0000
59.8700 750.0000 1.0000
59.8800 736.0000 1.0000
59.8900 762.0000 1.0000
59.9000 798.0000 1.0000
59.9100 714.0000 1.0000
59.9200 748.0000 1.0000
59.9300 723.0000 1.0000
59.9400 728.0000 1.0000
59.9500 755.0000 1.0000
59.9600 707.0000 1.0000
59.9700 713.0000 1.0000
59.9800 727.0000 1.0000
59.9900 762.0000 1.0000
60.0000 734.0000 1.0000
60.0100 725.0000 1.0000
60.0200 720.0000 1.0000
60.0300 733.0000 1.0000
60.0400 722.0000 1.0000
60.0500 743.0000 1.0000
60.0600 723.0000 1.0000
60.0700 761.0000 1.0000
60.0800 773.0000 1.0000
60.0900 744.0000 1.0000
60.1000 731.0000 1.0000
60.1100 728.0000 1.0000
60.1200 725.0000 1.0000
60.1300 725.0000 1.0000
60.1400 765.0000 1.0000
60.1500 716.0000 1.0000
60.1600 750.0000 1.0000
60.1700 750.0000 1.0000
60.1800 750.0000 1.0000
60.1900 751.0000 1.0000
60.2000 718.0000 1.0000
60.2100 729.0000 1.0000
60.2200 771.0000 1.0000
60.2300 797.0000 1.0000
60.2400 751.0000 1.0000
60.2500 764.0000 1.0000
60.2600 752.0000 1.0000
60.2700 760.0000 1.0000
60.2800 781.0000 1.0000
60.2900 768.0000 1.0000
60.3000 769.0000 1.0000
60.3100 717.0000 1.0000
60.3200 720.0000 1.0000
60.3300 762.0000 1.0000
60.3400 745.0000 1.0000
60.3500 716.0000 1.0000
60.3600 720.0000 1.0000
60.3700 769.0000 1.0000
60.3800 772.0000 1.0000
60.3900 721.0000 1.0000
60.4000 738.0000 1.0000
60.4100 744.0000 1.0000
60.4200 709.0000 1.0000
60.4300 755.0000 1.0000
60.4400 743.0000 1.0000
60.4500 754.0000 1.0000
60.4600 757.0000 1.0000
60.4700 730.0000 1.0000
60.4800 739.0000 1.0000
60.4900 710.0000 1.0000
60.5000 707.0000 1.0000
60.5100 776.0000 1.0000
60.5200 756.0000 1.0000
60.5300 773.0000 1.0000
60.5400 746.0000 1.0000
60.5500 764.0000 1.0000
60.5600 746.0000 1.0000
60.5700 741.0000 1.0000
60.5800 743.0000 1.0000
60.5900 704.0000 1.0000
60.6000 744.0000 1.0000
60.6100 756.0000 1.0000
60.6200 733.0000 1.0000
60.6300 753.0000 1.0000
60.6400 730.0000 1.0000
60.6500 732.0000 1.0000
60.6600 719.0000 1.0000
60.6700 711.0000 1.0000
60.6800 736.0000 1.0000
60.6900 699.0000 1.0000
60.7000 750.0000 1.0000
60.7100 743.0000 1.0000
60.7200 738.0000 1.0000
60.7300 712.0000 1.0000
60.7400 710.0000 1.0000
60.7500 754.0000 1.0000
60.7600 764.0000 1.0000
60.7700 739.0000 1.0000
60.7800 725.0000 1.0000
60.7900 746.0000 1.0000
60.8000 739.0000 1.0000
60.8100 776.0000 1.0000
60.8200 804.0000 1.0000
60.8300 774.0000 1.0000
60.8400 758.0000 1.0000
60.8500 742.0000 1.0000
60.8600 678.0000 1.0000
60.8700 754.0000 1.0000
60.8800 765.0000 1.0000
60.8900 742.0000 1.0000
60.9000 691.0000 1.0000
60.9100 726.0000 1.0000
60.9200 739.0000 1.0000
60.9300 729.0000 1.0000
60.9400 746.0000 1.0000
60.9500 777.0000 1.0000
60.9600 781.0000 1.0000
60.9700 721.0000 1.0000
60.9800 740.0000 1.0000
60.9900 735.0000 1.0000
61.0000 750.0000 1.0000
61.0100 754.0000 1.0000
61.0200 726.0000 1.0000
61.0300 730.0000 1.0000
61.0400 729.0000 1.0000
61.0500 712.0000 1.0000
61.0600 790.0000 1.0000
61.0700 746.0000 1.0000
61.0800 731.0000 1.0000
61.0900 737.0000 1.0000
61.1000 770.0000 1.0000
61.1100 755.0000 1.0000
61.1200 719.0000 1.0000
61.1300 745.0000 1.0000
61.1400 767.0000 1.0000
61.1500 784.0000 1.0000
61.1600 698.0000 1.0000
61.1700 680.0000 1.0000
61.1800 776.0000 1.0000
61.1900 777.0000 1.0000
61.2000 746.0000 1.0000
61.2100 771.0000 1.0000
61.2200 750.0000 1.0000
61.2300 752.0000 1.0000
61.2400 770.0000 1.0000
61.2500 791.0000 1.0000
61.2600 763.0000 1.0000
61.2700 757.0000 1.0000
61.2800 779.0000 1.0000
61.2900 720.0000 1.0000
61.3000 800.0000 1.0000
61.3100 725.0000 1.0000
61.3200 733.0000 1.0000
61.3300 744.0000 1.0000
61.3400 790.0000 1.0000
61.3500 753.0000 1.0000
61.3600 774.0000 1.0000
61.3700 740.0000 1.0000
61.3800 734.0000 1.0000
61.3900 793.0000 1.0000
61.4000 756.0000 1.0000
61.4100 820.0000 1.0000
61.4200 758.0000 1.0000
61.4300 769.0000 1.0000
61.4400 777.0000 1.0000
61.4500 764.0000 1.0000
61.4600 740.0000 1.0000
61.4700 776.0000 1.0000
61.4800 753.0000 1.0000
61.4900 798.0000 1.0000
61.5000 835.0000 1.0000
61.5100 798.0000 1.0000
61.5200 762.0000 1.0000
61.5300 783.0000 1.0000
61.5400 741.0000 1.0000
61.5500 758.0000 1.0000
61.5600 755.0000 1.0000
61.5700 812.0000 1.0000
61.5800 791.0000 1.0000
61.5900 793.0000 1.0000
61.6000 747.0000 1.0000
61.6100 746.0000 1.0000
61.6200 743.0000 1.0000
61.6300 751.0000 1.0000
61.6400 761.0000 1.0000
61.6500 785.0000 1.0000
61.6600 787.0000 1.0000
61.6700 801.0000 1.0000
61.6800 793.0000 1.0000
61.6900 791.0000 1.0000
61.7000 769.0000 1.0000
61.7100 813.0000 1.0000
61.7200 795.0000 1.0000
61.7300 834.0000 1.0000
61.7400 790.0000 1.0000
61.7500 843.0000 1.0000
61.7600 859.0000 1.0000
61.7700 840.0000 1.0000
61.7800 794.0000 1.0000
61.7900 828.0000 1.0000
61.8000 852.0000 1.0000
61.8100 846.0000 1.0000
61.8200 766.0000 1.0000
61.8300 877.0000 1.0000
61.8400 867.0000 1.0000
61.8500 853.0000 1.0000
61.8600 860.0000 1.0000
61.8700 853.0000 1.0000
61.8800 874.0000 1.0000
61.8900 836.0000 1.0000
61.9000 870.0000 1.0000
61.9100 896.0000 1.0000
61.9200 891.0000 1.0000
61.9300 847.0000 1.0000
61.9400 915.0000 1.0000
61.9500 904.0000 1.0000
61.9600 900.0000 1.0000
61.9700 950.0000 1.0000
61.9800 950.0000 1.0000
61.9900 958.0000 1.0000
62.0000 1000.0000 1.0000
62.0100 1018.0000 1.0000
62.0200 1037.0000 1.0000
62.0300 996.0000 1.0000
62.0400 1026.0000 1.0000
62.0500 1035.0000 1.0000
62.0600 1155.0000 1.0000
62.0700 1180.0000 1.0000
62.0800 1133.0000 1.0000
62.0900 1170.0000 1.0000
62.1000 1236.0000 1.0000
62.1100 1261.0000 1.0000
62.1200 1316.0000 1.0000
62.1300 1320.0000 1.0000
62.1400 1386.0000 1.0000
62.1500 1424.0000 1.0000
62.1600 1401.0000 1.0000
62.1700 1483.0000 1.0000
62.1800 1517.0000 1.0000
62.1900 1530.0000 1.0000
62.2000 1551.0000 1.0000
62.2100 1593.0000 1.0000
62.2200 1649.0000 1.0000
62.2300 1663.0000 1.0000
62.2400 1712.0000 1.0000
62.2500 1716.0000 1.0000
62.2600 1681.0000 1.0000
62.2700 1765.0000 1.0000
62.2800 1736.0000 1.0000
62.2900 1739.0000 1.0000
62.3000 1765.0000 1.0000
62.3100 1691.0000 1.0000
62.3200 1721.0000 1.0000
62.3300 1746.0000 1.0000
62.3400 1677.0000 1.0000
62.3500 1627.0000 1.0000
62.3600 1743.0000 1.0000
62.3700 1655.0000 1.0000
62.3800 1656.0000 1.0000
62.3900 1637.0000 1.0000
62.4000 1713.0000 1.0000
62.4100 1666.0000 1.0000
62.4200 1644.0000 1.0000
62.4300 1600.0000 1.0000
62.4400 1557.0000 1.0000
62.4500 1498.0000 1.0000
62.4600 1512.0000 1.0000
62.4700 1501.0000 1.0000
62.4800 1460.0000 1.0000
62.4900 1451.0000 1.0000
62.5000 1365.0000 1.0000
62.5100 1335.0000 1.0000
62.5200 1311.0000 1.0000
62.5300 1249.0000 1.0000
62.5400 1364.0000 1.0000
62.5500 1268.0000 1.0000
62.5600 1205.0000 1.0000
62.5700 1177.0000 1.0000
62.5800 1133.0000 1.0000
62.5900 1093.0000 1.0000
62.6000 1150.0000 1.0000
62.6100 1130.0000 1.0000
62.6200 1130.0000 1.0000
62.6300 1082.0000 1.0000
62.6400 1048.0000 1.0000
62.6500 1055.0000 1.0000
62.6600 938.0000 1.0000
62.6700 994.0000 1.0000
62.6800 1007.0000 1.0000
62.6900 982.0000 1.0000
62.7000 979.0000 1.0000
62.7100 974.0000 1.0000
62.7200 941.0000 1.0000
62.7300 933.0000 1.0000
62.7400 909.0000 1.0000
62.7500 909.0000 1.0000
62.7600 880.0000 1.0000
62.7700 921.0000 1.0000
62.7800 882.0000 1.0000
62.7900 887.0000 1.0000
62.8000 824.0000 1.0000
62.8100 893.0000 1.0000
62.8200 922.0000 1.0000
62.8300 900.0000 1.0000
62.8400 865.0000 1.0000
62.8500 863.0000 1.0000
62.8600 844.0000 1.0000
62.8700 800.0000 1.0000
62.8800 859.0000 1.0000
62.8900 827.0000 1.0000
62.9000 814.0000 1.0000
62.9100 833.0000 1.0000
62.9200 847.0000 1.0000
62.9300 876.0000 1.0000
62.9400 895.0000 1.0000
62.9500 810.0000 1.0000
62.9600 819.0000 1.0000
62.9700 811.0000 1.0000
62.9800 814.0000 1.0000
62.9900 854.0000 1.0000
63.0000 812.0000 1.0000
63.0100 846.0000 1.0000
63.0200 824.0000 1.0000
63.0300 824.0000 1.0000
63.0400 762.0000 1.0000
63.0500 813.0000 1.0000
63.0600 822.0000 1.0000
63.0700 783.0000 1.0000
63.0800 811.0000 1.0000
63.0900 823.0000 1.0000
63.1000 838.0000 1.0000
63.1100 810.0000 1.0000
63.1200 797.0000 1.0000
63.1300 812.0000 1.0000
63.1400 809.0000 1.0000
63.1500 836.0000 1.0000
63.1600 804.0000 1.0000
63.1700 788.0000 1.0000
63.1800 810.0000 1.0000
63.1900 828.0000 1.0000
63.2000 815.0000 1.0000
63.2100 833.0000 1.0000
63.2200 836.0000 1.0000
63.2300 784.0000 1.0000
63.2400 713.0000 1.0000
63.2500 745.0000 1.0000
63.2600 786.0000 1.0000
63.2700 740.0000 1.0000
63.2800 790.0000 1.0000
63.2900 711.0000 1.0000
63.3000 762.0000 1.0000
63.3100 777.0000 1.0000
63.3200 760.0000 1.0000
63.3300 804.0000 1.0000
63.3400 784.0000 1.0000
63.3500 756.0000 1.0000
63.3600 753.0000 1.0000
63.3700 770.0000 1.0000
63.3800 784.0000 1.0000
63.3900 805.0000 1.0000
63.4000 821.0000 1.0000
63.4100 778.0000 1.0000
63.4200 764.0000 1.0000
63.4300 752.0000 1.0000
63.4400 736.0000 1.0000
63.4500 753.0000 1.0000
63.4600 744.0000 1.0000
63.4700 733.0000 1.0000
63.4800 802.0000 1.0000
63.4900 767.0000 1.0000
63.5000 759.0000 1.0000
63.5100 769.0000 1.0000
63.5200 789.0000 1.0000
63.5300 777.0000 1.0000
63.5400 772.0000 1.0000
63.5500 796.0000 1.0000
63.5600 719.0000 1.0000
63.5700 751.0000 1.0000
63.5800 760.0000 1.0000
63.5900 747.0000 1.0000
63.6000 755.0000 1.0000
63.6100 720.0000 1.0000
63.6200 790.0000 1.0000
63.6300 797.0000 1.0000
63.6400 810.0000 1.0000
63.6500 771.0000 1.0000
63.6600 769.0000 1.0000
63.6700 808.0000 1.0000
63.6800 823.0000 1.0000
63.6900 746.0000 1.0000
63.7000 797.0000 1.0000
63.7100 769.0000 1.0000
63.7200 763.0000 1.0000
63.7300 766.0000 1.0000
63.7400 818.0000 1.0000
63.7500 767.0000 1.0000
63.7600 778.0000 1.0000
63.7700 810.0000 1.0000
63.7800 757.0000 1.0000
63.7900 756.0000 1.0000
63.8000 809.0000 1.0000
63.8100 770.0000 1.0000
63.8200 775.0000 1.0000
63.8300 771.0000 1.0000
63.8400 743.0000 1.0000
63.8500 744.0000 1.0000
63.8600 741.0000 1.0000
63.8700 765.0000 1.0000
63.8800 758.0000 1.0000
63.8900 787.0000 1.0000
63.9000 763.0000 1.0000
63.9100 774.0000 1.0000
63.9200 791.0000 1.0000
63.9300 741.0000 1.0000
63.9400 783.0000 1.0000
63.9500 788.0000 1.0000
63.9600 759.0000 1.0000
63.9700 764.0000 1.0000
63.9800 765.0000 1.0000
63.9900 814.0000 1.0000
64.0000 757.0000 1.0000
64.0100 777.0000 1.0000
64.0200 788.0000 1.0000
64.0300 767.0000 1.0000
64.0400 800.0000 1.0000
64.0500 788.0000 1.0000
64.0600 810.0000 1.0000
64.0700 766.0000 1.0000
64.0800 773.0000 1.0000
64.0900 765.0000 1.0000
64.1000 813.0000 1.0000
64.1100 830.0000 1.0000
64.1200 773.0000 1.0000
64.1300 751.0000 1.0000
64.1400 787.0000 1.0000
64.1500 800.0000 1.0000
64.1600 755.0000 1.0000
64.1700 802.0000 1.0000
64.1800 801.0000 1.0000
64.1900 795.0000 1.0000
64.2000 801.0000 1.0000
64.2100 799.0000 1.0000
64.2200 774.0000 1.0000
64.2300 785.0000 1.0000
64.2400 790.0000 1.0000
64.2500 800.0000 1.0000
64.2600 792.0000 1.0000
64.2700 833.0000 1.0000
64.2800 787.0000 1.0000
64.2900 804.0000 1.0000
64.3000 791.0000 1.0000
64.3100 811.0000 1.0000
64.3200 815.0000 1.0000
64.3300 821.0000 1.0000
64.3400 841.0000 1.0000
64.3500 847.0000 1.0000
64.3600 800.0000 1.0000
64.3700 859.0000 1.0000
64.3800 863.0000 1.0000
64.3900 851.0000 1.0000
64.4000 866.0000 1.0000
64.4100 829.0000 1.0000
64.4200 870.0000 1.0000
64.4300 853.0000 1.0000
64.4400 870.0000 1.0000
64.4500 866.0000 1.0000
64.4600 842.0000 1.0000
64.4700 869.0000 1.0000
64.4800 900.0000 1.0000
64.4900 898.0000 1.0000
64.5000 897.0000 1.0000
64.5100 893.0000 1.0000
64.5200 881.0000 1.0000
64.5300 946.0000 1.0000
64.5400 900.0000 1.0000
64.5500 889.0000 1.0000
64.5600 915.0000 1.0000
64.5700 1000.0000 1.0000
64.5800 937.0000 1.0000
64.5900 899.0000 1.0000
64.6000 898.0000 1.0000
64.6100 988.0000 1.0000
64.6200 989.0000 1.0000
64.6300 966.0000 1.0000
64.6400 980.0000 1.0000
64.6500 999.0000 1.0000
64.6600 980.0000 1.0000
64.6700 973.0000 1.0000
64.6800 941.0000 1.0000
64.6900 989.0000 1.0000
64.7000 999.0000 1.0000
64.7100 950.0000 1.0000
64.7200 988.0000 1.0000
64.7300 1032.0000 1.0000
64.7400 985.0000 1.0000
64.7500 976.0000 1.0000
64.7600 947.0000 1.0000
64.7700 984.0000 1.0000
64.7800 961.0000 1.0000
64.7900 961.0000 1.0000
64.8000 973.0000 1.0000
64.8100 931.0000 1.0000
64.8200 899.0000 1.0000
64.8300 949.0000 1.0000
64.8400 1001.0000 1.0000
64.8500 1010.0000 1.0000
64.8600 963.0000 1.0000
64.8700 922.0000 1.0000
64.8800 932.0000 1.0000
64.8900 950.0000 1.0000
64.9000 933.0000 1.0000
64.9100 950.0000 1.0000
64.9200 941.0000 1.0000
64.9300 960.0000 1.0000
64.9400 914.0000 1.0000
64.9500 849.0000 1.0000
64.9600 904.0000 1.0000
64.9700 932.0000 1.0000
64.9800 911.0000 1.0000
64.9900 916.0000 1.0000
65.0000 936.0000 1.0000
65.0100 917.0000 1.0000
65.0200 904.0000 1.0000
65.0300 844.0000 1.0000
65.0400 871.0000 1.0000
65.0500 884.0000 1.0000
65.0600 866.0000 1.0000
65.0700 832.0000 1.0000
65.0800 841.0000 1.0000
65.0900 876.0000 1.0000
65.1000 807.0000 1.0000
65.1100 828.0000 1.0000
65.1200 847.0000 1.0000
65.1300 808.0000 1.0000
65.1400 822.0000 1.0000
65.1500 814.0000 1.0000
65.1600 806.0000 1.0000
65.1700 846.0000 1.0000
65.1800 830.0000 1.0000
65.1900 845.0000 1.0000
65.2000 854.0000 1.0000
65.2100 823.0000 1.0000
65.2200 839.0000 1.0000
65.2300 769.0000 1.0000
65.2400 776.0000 1.0000
65.2500 810.0000 1.0000
65.2600 833.0000 1.0000
65.2700 832.0000 1.0000
65.2800 831.0000 1.0000
65.2900 844.0000 1.0000
65.3000 822.0000 1.0000
65.3100 795.0000 1.0000
65.3200 787.0000 1.0000
65.3300 816.0000 1.0000
65.3400 806.0000 1.0000
65.3500 762.0000 1.0000
65.3600 798.0000 1.0000
65.3700 827.0000 1.0000
65.3800 770.0000 1.0000
65.3900 767.0000 1.0000
65.4000 763.0000 1.0000
65.4100 789.0000 1.0000
65.4200 801.0000 1.0000
65.4300 786.0000 1.0000
65.4400 813.0000 1.0000
65.4500 823.0000 1.0000
65.4600 794.0000 1.0000
65.4700 757.0000 1.0000
65.4800 791.0000 1.0000
65.4900 787.0000 1.0000
65.5000 788.0000 1.0000
65.5100 817.0000 1.0000
65.5200 812.0000 1.0000
65.5300 801.0000 1.0000
65.5400 758.0000 1.0000
65.5500 775.0000 1.0000
65.5600 790.0000 1.0000
65.5700 754.0000 1.0000
65.5800 774.0000 1.0000
65.5900 788.0000 1.0000
65.6000 791.0000 1.0000
65.6100 811.0000 1.0000
65.6200 798.0000 1.0000
65.6300 787.0000 1.0000
65.6400 795.0000 1.0000
65.6500 847.0000 1.0000
65.6600 851.0000 1.0000
65.6700 824.0000 1.0000
65.6800 849.0000 1.0000
65.6900 830.0000 1.0000
65.7000 881.0000 1.0000
65.7100 862.0000 1.0000
65.7200 806.0000 1.0000
65.7300 796.0000 1.0000
65.7400 864.0000 1.0000
65.7500 851.0000 1.0000
65.7600 839.0000 1.0000
65.7700 892.0000 1.0000
65.7800 879.0000 1.0000
65.7900 860.0000 1.0000
65.8000 817.0000 1.0000
65.8100 820.0000 1.0000
65.8200 878.0000 1.0000
65.8300 898.0000 1.0000
65.8400 903.0000 1.0000
65.8500 940.0000 1.0000
65.8600 913.0000 1.0000
65.8700 890.0000 1.0000
65.8800 941.0000 1.0000
65.8900 944.0000 1.0000
65.9000 950.0000 1.0000
65.9100 1014.0000 1.0000
65.9200 1034.0000 1.0000
65.9300 956.0000 1.0000
65.9400 991.0000 1.0000
65.9500 1038.0000 1.0000
65.9600 1066.0000 1.0000
65.9700 1103.0000 1.0000
65.9800 1032.0000 1.0000
65.9900 1103.0000 1.0000
66.0000 1170.0000 1.0000
66.0100 1231.0000 1.0000
66.0200 1224.0000 1.0000
66.0300 1299.0000 1.0000
66.0400 1266.0000 1.0000
66.0500 1369.0000 1.0000
66.0600 1376.0000 1.0000
66.0700 1452.0000 1.0000
66.0800 1470.0000 1.0000
66.0900 1549.0000 1.0000
66.1000 1655.0000 1.0000
66.1100 1734.0000 1.0000
66.1200 1789.0000 1.0000
66.1300 1940.0000 1.0000
66.1400 2021.0000 1.0000
66.1500 2188.0000 1.0000
66.1600 2335.0000 1.0000
66.1700 2400.0000 1.0000
66.1800 2491.0000 1.0000
66.1900 2564.0000 1.0000
66.2000 2649.0000 1.0000
66.2100 2656.0000 1.0000
66.2200 2777.0000 1.0000
66.2300 2732.0000 1.0000
66.2400 2802.0000 1.0000
66.2500 2761.0000 1.0000
66.2600 2691.0000 1.0000
66.2700 2731.0000 1.0000
66.2800 2667.0000 1.0000
66.2900 2594.0000 1.0000
66.3000 2510.0000 1.0000
66.3100 2550.0000 1.0000
66.3200 2516.0000 1.0000
66.3300 2500.0000 1.0000
66.3400 2455.0000 1.0000
66.3500 2418.0000 1.0000
66.3600 2352.0000 1.0000
66.3700 2461.0000 1.0000
66.3800 2347.0000 1.0000
66.3900 2351.0000 1.0000
66.4000 2296.0000 1.0000
66.4100 2271.0000 1.0000
66.4200 2260.0000 1.0000
66.4300 2145.0000 1.0000
66.4400 2101.0000 1.0000
66.4500 2097.0000 1.0000
66.4600 1984.0000 1.0000
66.4700 1953.0000 1.0000
66.4800 1760.0000 1.0000
66.4900 1691.0000 1.0000
66.5000 1687.0000 1.0000
66.5100 1676.0000 1.0000
66.5200 1602.0000 1.0000
66.5300 1516.0000 1.0000
66.5400 1408.0000 1.0000
66.5500 1357.0000 1.0000
66.5600 1356.0000 1.0000
66.5700 1323.0000 1.0000
66.5800 1289.0000 1.0000
66.5900 1308.0000 1.0000
66.6000 1282.0000 1.0000
66.6100 1144.0000 1.0000
66.6200 1123.0000 1.0000
66.6300 1183.0000 1.0000
66.6400 1103.0000 1.0000
66.6500 1136.0000 1.0000
66.6600 1081.0000 1.0000
66.6700 1019.0000 1.0000
66.6800 1033.0000 1.0000
66.6900 986.0000 1.0000
66.7000 964.0000 1.0000
66.7100 978.0000 1.0000
66.7200 948.0000 1.0000
66.7300 948.0000 1.0000
66.7400 972.0000 1.0000
66.7500 936.0000 1.0000
66.7600 893.0000 1.0000
66.7700 882.0000 1.0000
66.7800 890.0000 1.0000
66.7900 917.0000 1.0000
66.8000 851.0000 1.0000
66.8100 860.0000 1.0000
66.8200 891.0000 1.0000
66.8300 812.0000 1.0000
66.8400 851.0000 1.0000
66.8500 811.0000 1.0000
66.8600 799.0000 1.0000
66.8700 795.0000 1.0000
66.8800 806.0000 1.0000
66.8900 778.0000 1.0000
66.9000 811.0000 1.0000
66.9100 809.0000 1.0000
66.9200 779.0000 1.0000
66.9300 782.0000 1.0000
66.9400 777.0000 1.0000
66.9500 803.0000 1.0000
66.9600 816.0000 1.0000
66.9700 827.0000 1.0000
66.9800 779.0000 1.0000
66.9900 742.0000 1.0000
67.0000 782.0000 1.0000
67.0100 796.0000 1.0000
67.0200 780.0000 1.0000
67.0300 770.0000 1.0000
67.0400 738.0000 1.0000
67.0500 730.0000 1.0000
67.0600 711.0000 1.0000
67.0700 766.0000 1.0000
67.0800 741.0000 1.0000
67.0900 757.0000 1.0000
67.1000 744.0000 1.0000
67.1100 754.0000 1.0000
67.1200 752.0000 1.0000
67.1300 736.0000 1.0000
67.1400 733.0000 1.0000
67.1500 736.0000 1.0000
67.1600 716.0000 1.0000
67.1700 758.0000 1.0000
67.1800 719.0000 1.0000
67.1900 697.0000 1.0000
67.2000 703.0000 1.0000
67.2100 683.0000 1.0000
67.2200 728.0000 1.0000
67.2300 717.0000 1.0000
67.2400 696.0000 1.0000
67.2500 734.0000 1.0000
67.2600 736.0000 1.0000
67.2700 741.0000 1.0000
67.2800 757.0000 1.0000
67.2900 725.0000 1.0000
67.3000 717.0000 1.0000
67.3100 693.0000 1.0000
67.3200 696.0000 1.0000
67.3300 724.0000 1.0000
67.3400 733.0000 1.0000
67.3500 720.0000 1.0000
67.3600 747.0000 1.0000
67.3700 738.0000 1.0000
67.3800 713.0000 1.0000
67.3900 738.0000 1.0000
67.4000 721.0000 1.0000
67.4100 740.0000 1.0000
67.4200 697.0000 1.0000
67.4300 667.0000 1.0000
67.4400 720.0000 1.0000
67.4500 648.0000 1.0000
67.4600 713.0000 1.0000
67.4700 743.0000 1.0000
67.4800 721.0000 1.0000
67.4900 716.0000 1.0000
67.5000 721.0000 1.0000
67.5100 742.0000 1.0000
67.5200 711.0000 1.0000
67.5300 734.0000 1.0000
67.5400 688.0000 1.0000
67.5500 690.0000 1.0000
67.5600 702.0000 1.0000
67.5700 718.0000 1.0000
67.5800 727.0000 1.0000
67.5900 692.0000 1.0000
67.6000 709.0000 1.0000
67.6100 745.0000 1.0000
67.6200 741.0000 1.0000
67.6300 694.0000 1.0000
67.6400 717.0000 1.0000
67.6500 717.0000 1.0000
67.6600 693.0000 1.0000
67.6700 683.0000 1.0000
67.6800 669.0000 1.0000
67.6900 712.0000 1.0000
67.7000 676.0000 1.0000
67.7100 738.0000 1.0000
67.7200 667.0000 1.0000
67.7300 700.0000 1.0000
67.7400 719.0000 1.0000
67.7500 689.0000 1.0000
67.7600 665.0000 1.0000
67.7700 673.0000 1.0000
67.7800 668.0000 1.0000
67.7900 719.0000 1.0000
67.8000 706.0000 1.0000
67.8100 702.0000 1.0000
67.8200 660.0000 1.0000
67.8300 704.0000 1.0000
67.8400 703.0000 1.0000
67.8500 689.0000 1.0000
67.8600 683.0000 1.0000
67.8700 719.0000 1.0000
67.8800 712.0000 1.0000
67.8900 675.0000 1.0000
67.9000 691.0000 1.0000
67.9100 710.0000 1.0000
67.9200 656.0000 1.0000
67.9300 699.0000 1.0000
67.9400 696.0000 1.0000
67.9500 649.0000 1.0000
67.9600 705.0000 1.0000
67.9700 661.0000 1.0000
67.9800 678.0000 1.0000
67.9900 719.0000 1.0000
68.0000 690.0000 1.0000
68.0100 678.0000 1.0000
68.0200 708.0000 1.0000
68.0300 690.0000 1.0000
68.0400 693.0000 1.0000
68.0500 697.0000 1.0000
68.0600 716.0000 1.0000
68.0700 712.0000 1.0000
68.0800 708.0000 1.0000
68.0900 680.0000 1.0000
68.1000 665.0000 1.0000
68.1100 721.0000 1.0000
68.1200 752.0000 1.0000
68.1300 667.0000 1.0000
68.1400 653.0000 1.0000
68.1500 708.0000 1.0000
68.1600 679.0000 1.0000
68.1700 707.0000 1.0000
68.1800 690.0000 1.0000
68.1900 714.0000 1.0000
68.2000 667.0000 1.0000
68.2100 664.0000 1.0000
68.2200 643.0000 1.0000
68.2300 661.0000 1.0000
68.2400 683.0000 1.0000
68.2500 713.0000 1.0000
68.2600 705.0000 1.0000
68.2700 712.0000 1.0000
68.2800 710.0000 1.0000
68.2900 710.0000 1.0000
68.3000 722.0000 1.0000
68.3100 687.0000 1.0000
68.3200 721.0000 1.0000
68.3300 676.0000 1.0000
68.3400 678.0000 1.0000
68.3500 741.0000 1.0000
68.3600 707.0000 1.0000
68.3700 681.0000 1.0000
68.3800 706.0000 1.0000
68.3900 711.0000 1.0000
68.4000 654.0000 1.0000
68.4100 665.0000 1.0000
68.4200 699.0000 1.0000
68.4300 669.0000 1.0000
68.4400 663.0000 1.0000
68.4500 690.0000 1.0000
68.4600 666.0000 1.0000
68.4700 674.0000 1.0000
68.4800 669.0000 1.0000
68.4900 651.0000 1.0000
68.5000 694.0000 1.0000
68.5100 714.0000 1.0000
68.5200 706.0000 1.0000
68.5300 701.0000 1.0000
68.5400 652.0000 1.0000
68.5500 677.0000 1.0000
68.5600 700.0000 1.0000
68.5700 665.0000 1.0000
68.5800 689.0000 1.0000
68.5900 651.0000 1.0000
68.6000 678.0000 1.0000
68.6100 655.0000 1.0000
68.6200 656.0000 1.0000
68.6300 690.0000 1.0000
68.6400 702.0000 1.0000
68.6500 667.0000 1.0000
68.6600 664.0000 1.0000
68.6700 682.0000 1.0000
68.6800 689.0000 1.0000
68.6900 688.0000 1.0000
68.7000 680.0000 1.0000
68.7100 643.0000 1.0000
68.7200 699.0000 1.0000
68.7300 687.0000 1.0000
68.7400 663.0000 1.0000
68.7500 642.0000 1.0000
68.7600 663.0000 1.0000
68.7700 647.0000 1.0000
68.7800 704.0000 1.0000
68.7900 646.0000 1.0000
68.8000 691.0000 1.0000
68.8100 682.0000 1.0000
68.8200 640.0000 1.0000
68.8300 651.0000 1.0000
68.8400 668.0000 1.0000
68.8500 652.0000 1.0000
68.8600 708.0000 1.0000
68.8700 697.0000 1.0000
68.8800 694.0000 1.0000
68.8900 657.0000 1.0000
68.9000 641.0000 1.0000
68.9100 682.0000 1.0000
68.9200 676.0000 1.0000
68.9300 656.0000 1.0000
68.9400 668.0000 1.0000
68.9500 718.0000 1.0000
68.9600 662.0000 1.0000
68.9700 655.0000 1.0000
68.9800 648.0000 1.0000
68.9900 656.0000 1.0000
69.0000 598.0000 1.0000
69.0100 646.0000 1.0000
69.0200 673.0000 1.0000
69.0300 680.0000 1.0000
69.0400 684.0000 1.0000
69.0500 644.0000 1.0000
69.0600 664.0000 1.0000
69.0700 703.0000 1.0000
69.0800 678.0000 1.0000
69.0900 649.0000 1.0000
69.1000 662.0000 1.0000
69.1100 677.0000 1.0000
69.1200 637.0000 1.0000
69.1300 662.0000 1.0000
69.1400 648.0000 1.0000
69.1500 666.0000 1.0000
69.1600 656.0000 1.0000
69.1700 704.0000 1.0000
69.1800 651.0000 1.0000
69.1900 659.0000 1.0000
69.2000 660.0000 1.0000
69.2100 673.0000 1.0000
69.2200 672.0000 1.0000
69.2300 677.0000 1.0000
69.2400 709.0000 1.0000
69.2500 673.0000 1.0000
69.2600 648.0000 1.0000
69.2700 660.0000 1.0000
69.2800 669.0000 1.0000
69.2900 670.0000 1.0000
69.3000 681.0000 1.0000
69.3100 660.0000 1.0000
69.3200 696.0000 1.0000
69.3300 665.0000 1.0000
69.3400 684.0000 1.0000
69.3500 683.0000 1.0000
69.3600 674.0000 1.0000
69.3700 675.0000 1.0000
69.3800 673.0000 1.0000
69.3900 678.0000 1.0000
69.4000 641.0000 1.0000
69.4100 655.0000 1.0000
69.4200 657.0000 1.0000
69.4300 662.0000 1.0000
69.4400 682.0000 1.0000
69.4500 684.0000 1.0000
69.4600 704.0000 1.0000
69.4700 695.0000 1.0000
69.4800 668.0000 1.0000
69.4900 693.0000 1.0000
69.5000 696.0000 1.0000
69.5100 660.0000 1.0000
69.5200 680.0000 1.0000
69.5300 703.0000 1.0000
69.5400 695.0000 1.0000
69.5500 661.0000 1.0000
69.5600 675.0000 1.0000
69.5700 653.0000 1.0000
69.5800 643.0000 1.0000
69.5900 679.0000 1.0000
69.6000 662.0000 1.0000
69.6100 708.0000 1.0000
69.6200 736.0000 1.0000
69.6300 676.0000 1.0000
69.6400 698.0000 1.0000
69.6500 696.0000 1.0000
69.6600 690.0000 1.0000
69.6700 678.0000 1.0000
69.6800 680.0000 1.0000
69.6900 691.0000 1.0000
69.7000 658.0000 1.0000
69.7100 655.0000 1.0000
69.7200 633.0000 1.0000
69.7300 657.0000 1.0000
69.7400 677.0000 1.0000
69.7500 662.0000 1.0000
69.7600 652.0000 1.0000
69.7700 667.0000 1.0000
69.7800 644.0000 1.0000
69.7900 658.0000 1.0000
69.8000 686.0000 1.0000
69.8100 667.0000 1.0000
69.8200 686.0000 1.0000
69.8300 674.0000 1.0000
69.8400 683.0000 1.0000
69.8500 660.0000 1.0000
69.8600 684.0000 1.0000
69.8700 653.0000 1.0000
69.8800 641.0000 1.0000
69.8900 644.0000 1.0000
69.9000 615.0000 1.0000
69.9100 659.0000 1.0000
69.9200 689.0000 1.0000
69.9300 670.0000 1.0000
69.9400 682.0000 1.0000
69.9500 654.0000 1.0000
69.9600 625.0000 1.0000
69.9700 654.0000 1.0000
69.9800 646.0000 1.0000
69.9900 655.0000 1.0000
70.0000 632.0000 1.0000
*RAS_INT_END
*RAS_TEMPERATURE_START
*RAS_TEMPERATURE_END
*RAS_DATA_END
