*RAS_DATA_START
*RAS_HEADER_START
*DISP_FMT_X "%.2f"
*DISP_FMT_Y "%.0f"
*DISP_FULLSCALE "14544.0000000000"
*DISP_LINE_COLOR "255.0000000000"
*DISP_LINE_STYLE "0.0000000000"
*DISP_LINE_WIDTH "0.2500000000"
*DISP_NOTE "測定データ-8"
*DISP_OFFSET_Y "0.0000000000"
*DISP_PEAKSEARCH_UNIT_Y "cps"
*DISP_RANGE_BOTTOM "0.0000000000"
*DISP_RANGE_LEFT "20.0000000000"
*DISP_RANGE_LOGCUTOFF "0.0100000000"
*DISP_RANGE_RIGHT "70.0000000000"
*DISP_RANGE_TOP "14544.0000000000"
*DISP_SCALE_MODE_Y "0.0000000000"
*DISP_TAB_NAME "2θ/θ"
*DISP_TITLE_Y "強度"
*DISP_UNIT_Y "cps"
*DISP_WINDOW_NAME "MSG_MACROENGINE"
*FILE_COMMENT " "
*FILE_MD5 ""
*FILE_MEMO " "
*FILE_OPERATOR "Administrator"
*FILE_SAMPLE " "
*FILE_TYPE "RAS_RAW"
*FILE_USERGROUP "システムマネージャ"
*FILE_VERSION "1.0000000000"
*HW_ATTACHMENT_ID "ATT0025"
*HW_ATTACHMENT_NAME "標準|Standard"
*HW_COUNTER_ID-0 "CUT0025"
*HW_COUNTER_ID-1 "CUT0020"
*HW_COUNTER_ID-2 "CUT0020"
*HW_COUNTER_ID-3 "CSL0021"
*HW_COUNTER_ID-4 "CMC0021"
*HW_COUNTER_NAME-0 "D/teX Ultra|D/teX Ultra"
*HW_COUNTER_NAME-1 "None|None"
*HW_COUNTER_NAME-2 "None|None"
*HW_COUNTER_NAME-3 "BBM|BBM"
*HW_COUNTER_NAME-4 "検出器モノクロメータ|Detector monochromator"
*HW_COUNTER_SELECT_NAME "D/teX Ultra|D/teX Ultra"
*HW_GONIOMETER_ID "GON0023"
*HW_GONIOMETER_NAME "SmartLab|SmartLab"
*HW_GONIOMETER_RADIUS-0 "90.0"
*HW_GONIOMETER_RADIUS-1 "114.0"
*HW_GONIOMETER_RADIUS-2 "190.0"
*HW_GONIOMETER_RADIUS-3 "300.0"
*HW_GONIOMETER_RADIUS-4 "187.0"
*HW_GONIOMETER_RADIUS-5 "300.0"
*HW_GONIOMETER_RADIUS-6 "113.0"
*HW_GONIOMETER_RADIUS-7 "331.0"
*HW_I_OPT_ID-0 "CBO0021"
*HW_I_OPT_ID-1 "ICR0023"
*HW_I_OPT_ID-2 "ISL0021"
*HW_I_OPT_ID-3 "ISO0021"
*HW_I_OPT_ID-4 "IAD0021"
*HW_I_OPT_ID-5 "IPR0001"
*HW_I_OPT_NAME-0 "CBOユニット|CBO unit"
*HW_I_OPT_NAME-1 "標準入射光学ユニット|Standard incident optical unit"
*HW_I_OPT_NAME-2 "標準入射スリットボックス|Standard incident slit box"
*HW_I_OPT_NAME-3 "入射平行スリット|Incident parallel slit"
*HW_I_OPT_NAME-4 "長手制限スリット|Length limiting slit"
*HW_I_OPT_NAME-5 "None|None"
*HW_R_ATTENUATER_AUTOMODE "0"
*HW_R_OPT_ID-0 "RSS0021"
*HW_R_OPT_ID-1 "RCR0023"
*HW_R_OPT_ID-2 "RSO0021"
*HW_R_OPT_ID-3 "RRS0021"
*HW_R_OPT_ID-4 "ATN0021"
*HW_R_OPT_ID-5 "RFL0021"
*HW_R_OPT_ID-6 "RAD0021"
*HW_R_OPT_NAME-0 "標準受光スリットボックス1|Standard receiving slit box # 1"
*HW_R_OPT_NAME-1 "標準受光光学ユニット1|Standard receiving unit # 1"
*HW_R_OPT_NAME-2 "標準受光光学ユニット2|Standard receiving optical unit # 2"
*HW_R_OPT_NAME-3 "標準受光スリットボックス2|Standard receiving slit box # 2"
*HW_R_OPT_NAME-4 "標準アッテネータ|Standard Attenuator"
*HW_R_OPT_NAME-5 "Cu Kβ|Cu K-beta"
*HW_R_OPT_NAME-6 "調整用受光スリット|Alignment receiving slit"
*HW_SAMPLE_HOLDER_ID "SMP0023"
*HW_SAMPLE_HOLDER_NAME "標準Zステージ|Standard Z stage"
*HW_XG_CURRENT_MAX "50"
*HW_XG_CURRENT_MIN "2"
*HW_XG_CURRENT_RESOLUTION "1"
*HW_XG_CURRENT_UNIT "mA"
*HW_XG_FOCUS "1mm x 10mm"
*HW_XG_FOCUS_TYPE "Normal"
*HW_XG_ID ""
*HW_XG_NAME "3kW 封入管(ID:1200)|3kW Sealed tube(ID:1200)"
*HW_XG_TARGET_ATOMIC_NUMBER "29.0000000000"
*HW_XG_TARGET_NAME "Cu"
*HW_XG_TYPE "Hermetic"
*HW_XG_VOLTAGE_MAX "60"
*HW_XG_VOLTAGE_MIN "20"
*HW_XG_VOLTAGE_RESOLUTION "1"
*HW_XG_VOLTAGE_UNIT "kV"
*HW_XG_WATT_MAX "1.500"
*HW_XG_WATT_UNIT "kW"
*HW_XG_WAVE_LENGTH_ALPHA1 "1.540593"
*HW_XG_WAVE_LENGTH_ALPHA2 "1.544414"
*HW_XG_WAVE_LENGTH_BETA "1.392250"
*MEAS_COND_AXIS_NAME-0 "2θ/θ"
*MEAS_COND_AXIS_NAME-1 "2θ"
*MEAS_COND_AXIS_NAME-2 "ω"
*MEAS_COND_AXIS_NAME-3 "Z"
*MEAS_COND_AXIS_NAME-4 "2θ/ω"
*MEAS_COND_AXIS_NAME-5 "θs"
*MEAS_COND_AXIS_NAME-6 "θd"
*MEAS_COND_AXIS_NAME-7 "Ts"
*MEAS_COND_AXIS_NAME-8 "CBO選択スリット"
*MEAS_COND_AXIS_NAME-9 "M"
*MEAS_COND_AXIS_NAME-10 "入射平行スリット"
*MEAS_COND_AXIS_NAME-11 "入射スリット"
*MEAS_COND_AXIS_NAME-12 ""
*MEAS_COND_AXIS_NAME-13 "Zs"
*MEAS_COND_AXIS_NAME-14 "入射光学素子"
*MEAS_COND_AXIS_NAME-15 "長手制限スリット"
*MEAS_COND_AXIS_NAME-16 "センタースリット"
*MEAS_COND_AXIS_NAME-17 "フィルター"
*MEAS_COND_AXIS_NAME-18 "受光スリット1"
*MEAS_COND_AXIS_NAME-19 "受光スリット2"
*MEAS_COND_AXIS_NAME-20 "受光光学素子"
*MEAS_COND_AXIS_NAME-21 "受光平行スリット"
*MEAS_COND_AXIS_NAME-22 "調整用受光スリット"
*MEAS_COND_AXIS_NAME-23 ""
*MEAS_COND_AXIS_NAME-24 ""
*MEAS_COND_AXIS_NAME-25 "Zd"
*MEAS_COND_AXIS_NAME-26 "アッテネータ"
*MEAS_COND_AXIS_NAME-27 "検出器モノクロメータ"
*MEAS_COND_AXIS_NAME-28 "モノクロメータスリット"
*MEAS_COND_AXIS_NAME-29 "プライマリビーム"
*MEAS_COND_AXIS_NAME-30 "PHA"
*MEAS_COND_AXIS_NAME_INTERNAL-0 "TwoThetaTheta"
*MEAS_COND_AXIS_NAME_INTERNAL-1 "TwoTheta"
*MEAS_COND_AXIS_NAME_INTERNAL-2 "Omega"
*MEAS_COND_AXIS_NAME_INTERNAL-3 "Z"
*MEAS_COND_AXIS_NAME_INTERNAL-4 "TwoThetaOmega"
*MEAS_COND_AXIS_NAME_INTERNAL-5 "ThetaS"
*MEAS_COND_AXIS_NAME_INTERNAL-6 "ThetaD"
*MEAS_COND_AXIS_NAME_INTERNAL-7 "Ts"
*MEAS_COND_AXIS_NAME_INTERNAL-8 "CBO"
*MEAS_COND_AXIS_NAME_INTERNAL-9 "CBO-M"
*MEAS_COND_AXIS_NAME_INTERNAL-10 "IncidentSollerSlit"
*MEAS_COND_AXIS_NAME_INTERNAL-11 "IncidentSlitBox"
*MEAS_COND_AXIS_NAME_INTERNAL-12 "IncidentSlitBox-_Axis"
*MEAS_COND_AXIS_NAME_INTERNAL-13 "Zs"
*MEAS_COND_AXIS_NAME_INTERNAL-14 "IncidentMonochromator"
*MEAS_COND_AXIS_NAME_INTERNAL-15 "IncidentAxdSlit"
*MEAS_COND_AXIS_NAME_INTERNAL-16 "CenterSlit"
*MEAS_COND_AXIS_NAME_INTERNAL-17 "Filter"
*MEAS_COND_AXIS_NAME_INTERNAL-18 "ReceivingSlitBox1"
*MEAS_COND_AXIS_NAME_INTERNAL-19 "ReceivingSlitBox2"
*MEAS_COND_AXIS_NAME_INTERNAL-20 "ReceivingOptics"
*MEAS_COND_AXIS_NAME_INTERNAL-21 "ReceivingSollerSlit"
*MEAS_COND_AXIS_NAME_INTERNAL-22 "ReceivingAxdSlit"
*MEAS_COND_AXIS_NAME_INTERNAL-23 "ReceivingSlitBox1-_Axis"
*MEAS_COND_AXIS_NAME_INTERNAL-24 "ReceivingSlitBox2-_Axis"
*MEAS_COND_AXIS_NAME_INTERNAL-25 "ReceivingSlitBox2-Zd"
*MEAS_COND_AXIS_NAME_INTERNAL-26 "Attenuator"
*MEAS_COND_AXIS_NAME_INTERNAL-27 "CounterMonochromator"
*MEAS_COND_AXIS_NAME_INTERNAL-28 "CounterSlit"
*MEAS_COND_AXIS_NAME_INTERNAL-29 "IncidentPrimary"
*MEAS_COND_AXIS_NAME_INTERNAL-30 "PHA"
*MEAS_COND_AXIS_NAME_MAGICNO-0 "83951616.0000000000"
*MEAS_COND_AXIS_NAME_MAGICNO-1 "268632064.0000000000"
*MEAS_COND_AXIS_NAME_MAGICNO-2 "268500992.0000000000"
*MEAS_COND_AXIS_NAME_MAGICNO-3 "285278208.0000000000"
*MEAS_COND_AXIS_NAME_MAGICNO-4 "83951616.0000000000"
*MEAS_COND_AXIS_NAME_MAGICNO-5 "131072.0000000000"
*MEAS_COND_AXIS_NAME_MAGICNO-6 "131072.0000000000"
*MEAS_COND_AXIS_NAME_MAGICNO-7 "318898176.0000000000"
*MEAS_COND_AXIS_NAME_MAGICNO-8 "20971521.0000000000"
*MEAS_COND_AXIS_NAME_MAGICNO-9 "285343744.0000000000"
*MEAS_COND_AXIS_NAME_MAGICNO-10 "20971521.0000000000"
*MEAS_COND_AXIS_NAME_MAGICNO-11 "22020097.0000000000"
*MEAS_COND_AXIS_NAME_MAGICNO-12 "25165824.0000000000"
*MEAS_COND_AXIS_NAME_MAGICNO-13 "318898176.0000000000"
*MEAS_COND_AXIS_NAME_MAGICNO-14 "1.0000000000"
*MEAS_COND_AXIS_NAME_MAGICNO-15 "20971521.0000000000"
*MEAS_COND_AXIS_NAME_MAGICNO-16 "20971521.0000000000"
*MEAS_COND_AXIS_NAME_MAGICNO-17 "20971521.0000000000"
*MEAS_COND_AXIS_NAME_MAGICNO-18 "23068673.0000000000"
*MEAS_COND_AXIS_NAME_MAGICNO-19 "23068673.0000000000"
*MEAS_COND_AXIS_NAME_MAGICNO-20 "20971521.0000000000"
*MEAS_COND_AXIS_NAME_MAGICNO-21 "20971521.0000000000"
*MEAS_COND_AXIS_NAME_MAGICNO-22 "20971521.0000000000"
*MEAS_COND_AXIS_NAME_MAGICNO-23 "25165824.0000000000"
*MEAS_COND_AXIS_NAME_MAGICNO-24 "25165824.0000000000"
*MEAS_COND_AXIS_NAME_MAGICNO-25 "285343744.0000000000"
*MEAS_COND_AXIS_NAME_MAGICNO-26 "17301505.0000000000"
*MEAS_COND_AXIS_NAME_MAGICNO-27 "20971521.0000000000"
*MEAS_COND_AXIS_NAME_MAGICNO-28 "20971521.0000000000"
*MEAS_COND_AXIS_NAME_MAGICNO-29 "20971521.0000000000"
*MEAS_COND_AXIS_NAME_MAGICNO-30 "0.0000000000"
*MEAS_COND_AXIS_OFFSET-0 "-"
*MEAS_COND_AXIS_OFFSET-1 "-0.1081000000"
*MEAS_COND_AXIS_OFFSET-2 "0.3758000000"
*MEAS_COND_AXIS_OFFSET-3 "-"
*MEAS_COND_AXIS_OFFSET-4 "-"
*MEAS_COND_AXIS_OFFSET-5 "0.3758000000"
*MEAS_COND_AXIS_OFFSET-6 "-0.4839000000"
*MEAS_COND_AXIS_OFFSET-7 "-"
*MEAS_COND_AXIS_OFFSET-8 "-"
*MEAS_COND_AXIS_OFFSET-9 "-"
*MEAS_COND_AXIS_OFFSET-10 "-"
*MEAS_COND_AXIS_OFFSET-11 "-"
*MEAS_COND_AXIS_OFFSET-12 "-"
*MEAS_COND_AXIS_OFFSET-13 "-"
*MEAS_COND_AXIS_OFFSET-14 "-"
*MEAS_COND_AXIS_OFFSET-15 "-"
*MEAS_COND_AXIS_OFFSET-16 "-"
*MEAS_COND_AXIS_OFFSET-17 "-"
*MEAS_COND_AXIS_OFFSET-18 "-"
*MEAS_COND_AXIS_OFFSET-19 "-"
*MEAS_COND_AXIS_OFFSET-20 "-"
*MEAS_COND_AXIS_OFFSET-21 "-"
*MEAS_COND_AXIS_OFFSET-22 "-"
*MEAS_COND_AXIS_OFFSET-23 "-"
*MEAS_COND_AXIS_OFFSET-24 "-"
*MEAS_COND_AXIS_OFFSET-25 "-"
*MEAS_COND_AXIS_OFFSET-26 "-"
*MEAS_COND_AXIS_OFFSET-27 "-"
*MEAS_COND_AXIS_OFFSET-28 "-"
*MEAS_COND_AXIS_OFFSET-29 "-"
*MEAS_COND_AXIS_OFFSET-30 "-"
*MEAS_COND_AXIS_POSITION-0 "0.0000000000"
*MEAS_COND_AXIS_POSITION-1 "0.0000000000"
*MEAS_COND_AXIS_POSITION-2 "0.0000000000"
*MEAS_COND_AXIS_POSITION-3 "-0.5500000000"
*MEAS_COND_AXIS_POSITION-4 "0.0000000000"
*MEAS_COND_AXIS_POSITION-5 "0.0000000000"
*MEAS_COND_AXIS_POSITION-6 "0.0000000000"
*MEAS_COND_AXIS_POSITION-7 "-0.4278800000"
*MEAS_COND_AXIS_POSITION-8 "BB"
*MEAS_COND_AXIS_POSITION-9 "0.0000000000"
*MEAS_COND_AXIS_POSITION-10 "Soller_slit_5.0deg"
*MEAS_COND_AXIS_POSITION-11 "2/3deg"
*MEAS_COND_AXIS_POSITION-12 "2.2088000000"
*MEAS_COND_AXIS_POSITION-13 "-0.4140600000"
*MEAS_COND_AXIS_POSITION-14 "0.0000000000"
*MEAS_COND_AXIS_POSITION-15 "10.0mm"
*MEAS_COND_AXIS_POSITION-16 "None"
*MEAS_COND_AXIS_POSITION-17 "Cu_K-beta"
*MEAS_COND_AXIS_POSITION-18 "13.000mm"
*MEAS_COND_AXIS_POSITION-19 "13.000mm"
*MEAS_COND_AXIS_POSITION-20 "No_unit"
*MEAS_COND_AXIS_POSITION-21 "Soller_slit_5.0deg"
*MEAS_COND_AXIS_POSITION-22 "None"
*MEAS_COND_AXIS_POSITION-23 "13.0000000000"
*MEAS_COND_AXIS_POSITION-24 "13.0000000000"
*MEAS_COND_AXIS_POSITION-25 "0.0109400000"
*MEAS_COND_AXIS_POSITION-26 "Open"
*MEAS_COND_AXIS_POSITION-27 "None"
*MEAS_COND_AXIS_POSITION-28 "None"
*MEAS_COND_AXIS_POSITION-29 "None"
*MEAS_COND_AXIS_POSITION-30 "38.0000000000"
*MEAS_COND_AXIS_UNIT-0 "deg"
*MEAS_COND_AXIS_UNIT-1 "deg"
*MEAS_COND_AXIS_UNIT-2 "deg"
*MEAS_COND_AXIS_UNIT-3 "mm"
*MEAS_COND_AXIS_UNIT-4 "deg"
*MEAS_COND_AXIS_UNIT-5 "deg"
*MEAS_COND_AXIS_UNIT-6 "deg"
*MEAS_COND_AXIS_UNIT-7 "mm"
*MEAS_COND_AXIS_UNIT-8 ""
*MEAS_COND_AXIS_UNIT-9 "pulse"
*MEAS_COND_AXIS_UNIT-10 ""
*MEAS_COND_AXIS_UNIT-11 ""
*MEAS_COND_AXIS_UNIT-12 "mm"
*MEAS_COND_AXIS_UNIT-13 "mm"
*MEAS_COND_AXIS_UNIT-14 ""
*MEAS_COND_AXIS_UNIT-15 ""
*MEAS_COND_AXIS_UNIT-16 ""
*MEAS_COND_AXIS_UNIT-17 ""
*MEAS_COND_AXIS_UNIT-18 ""
*MEAS_COND_AXIS_UNIT-19 ""
*MEAS_COND_AXIS_UNIT-20 ""
*MEAS_COND_AXIS_UNIT-21 ""
*MEAS_COND_AXIS_UNIT-22 ""
*MEAS_COND_AXIS_UNIT-23 "mm"
*MEAS_COND_AXIS_UNIT-24 "mm"
*MEAS_COND_AXIS_UNIT-25 "mm"
*MEAS_COND_AXIS_UNIT-26 ""
*MEAS_COND_AXIS_UNIT-27 ""
*MEAS_COND_AXIS_UNIT-28 ""
*MEAS_COND_AXIS_UNIT-29 ""
*MEAS_COND_AXIS_UNIT-30 "div"
*MEAS_COND_COUNTER_CNTLOSS_CORR "0.0000000000"
*MEAS_COND_COUNTER_PHABASE "38.0000000000"
*MEAS_COND_COUNTER_PHAWINDOW "16.0000000000"
*MEAS_COND_COUNTER_PHA_UNIT "div"
*MEAS_COND_COUNTER_TAUDIFF "30.0000000000"
*MEAS_COND_COUNTER_TAUINT "0.0000000000"
*MEAS_COND_IRRADIATION_MODE "OFF"
*MEAS_COND_IRRADIATION_WIDTH ""
*MEAS_COND_OPT_ATTR "集中法"
*MEAS_COND_OPT_NAME "@集中法"
*MEAS_COND_UNSYMMETRIC_MODE "OFF"
*MEAS_COND_XG_CURRENT "30.0000000000"
*MEAS_COND_XG_VOLTAGE "40.0000000000"
*MEAS_COND_XG_WAVE_TYPE "Ka"
*MEAS_DATA_COUNT "5001.0000000000"
*MEAS_SCAN_AXIS_X "2θ/θ"
*MEAS_SCAN_AXIS_X_INTERNAL "TwoThetaTheta"
*MEAS_SCAN_END_TIME "07/08/21 19:48:48"
*MEAS_SCAN_MODE "CONTINUOUS"
*MEAS_SCAN_MONITOR "0"
*MEAS_SCAN_RESOLUTION_X "0.0002"
*MEAS_SCAN_SPEED "1.0"
*MEAS_SCAN_SPEED_UNIT "deg/min"
*MEAS_SCAN_START "20.0000000000"
*MEAS_SCAN_START_TIME "07/08/21 18:55:55"
*MEAS_SCAN_STEP "0.0100000000"
*MEAS_SCAN_STOP "70.0000000000"
*MEAS_SCAN_UNIT_X "deg"
*MEAS_SCAN_UNIT_Y "counts"
*RAS_HEADER_END
*RAS_INT_START
20.0000 1541.0000 1.0000
20.0100 1586.0000 1.0000
20.0200 1556.0000 1.0000
20.0300 1616.0000 1.0000
20.0400 1578.0000 1.0000
20.0500 1554.0000 1.0000
20.0600 1535.0000 1.0000
20.0700 1545.0000 1.0000
20.0800 1577.0000 1.0000
20.0900 1594.0000 1.0000
20.1000 1543.0000 1.0000
20.1100 1564.0000 1.0000
20.1200 1566.0000 1.0000
20.1300 1527.0000 1.0000
20.1400 1549.0000 1.0000
20.1500 1572.0000 1.0000
20.1600 1548.0000 1.0000
20.1700 1564.0000 1.0000
20.1800 1574.0000 1.0000
20.1900 1603.0000 1.0000
20.2000 1527.0000 1.0000
20.2100 1591.0000 1.0000
20.2200 1554.0000 1.0000
20.2300 1594.0000 1.0000
20.2400 1562.0000 1.0000
20.2500 1525.0000 1.0000
20.2600 1553.0000 1.0000
20.2700 1599.0000 1.0000
20.2800 1523.0000 1.0000
20.2900 1599.0000 1.0000
20.3000 1638.0000 1.0000
20.3100 1560.0000 1.0000
20.3200 1508.0000 1.0000
20.3300 1552.0000 1.0000
20.3400 1566.0000 1.0000
20.3500 1530.0000 1.0000
20.3600 1550.0000 1.0000
20.3700 1559.0000 1.0000
20.3800 1518.0000 1.0000
20.3900 1491.0000 1.0000
20.4000 1534.0000 1.0000
20.4100 1538.0000 1.0000
20.4200 1526.0000 1.0000
20.4300 1567.0000 1.0000
20.4400 1525.0000 1.0000
20.4500 1607.0000 1.0000
20.4600 1499.0000 1.0000
20.4700 1566.0000 1.0000
20.4800 1512.0000 1.0000
20.4900 1568.0000 1.0000
20.5000 1607.0000 1.0000
20.5100 1535.0000 1.0000
20.5200 1581.0000 1.0000
20.5300 1553.0000 1.0000
20.5400 1582.0000 1.0000
20.5500 1608.0000 1.0000
20.5600 1559.0000 1.0000
20.5700 1533.0000 1.0000
20.5800 1573.0000 1.0000
20.5900 1582.0000 1.0000
20.6000 1579.0000 1.0000
20.6100 1572.0000 1.0000
20.6200 1562.0000 1.0000
20.6300 1523.0000 1.0000
20.6400 1576.0000 1.0000
20.6500 1602.0000 1.0000
20.6600 1528.0000 1.0000
20.6700 1521.0000 1.0000
20.6800 1555.0000 1.0000
20.6900 1567.0000 1.0000
20.7000 1608.0000 1.0000
20.7100 1589.0000 1.0000
20.7200 1601.0000 1.0000
20.7300 1624.0000 1.0000
20.7400 1645.0000 1.0000
20.7500 1599.0000 1.0000
20.7600 1550.0000 1.0000
20.7700 1573.0000 1.0000
20.7800 1567.0000 1.0000
20.7900 1537.0000 1.0000
20.8000 1544.0000 1.0000
20.8100 1570.0000 1.0000
20.8200 1509.0000 1.0000
20.8300 1528.0000 1.0000
20.8400 1634.0000 1.0000
20.8500 1711.0000 1.0000
20.8600 1607.0000 1.0000
20.8700 1555.0000 1.0000
20.8800 1547.0000 1.0000
20.8900 1576.0000 1.0000
20.9000 1632.0000 1.0000
20.9100 1564.0000 1.0000
20.9200 1612.0000 1.0000
20.9300 1605.0000 1.0000
20.9400 1535.0000 1.0000
20.9500 1609.0000 1.0000
20.9600 1565.0000 1.0000
20.9700 1605.0000 1.0000
20.9800 1570.0000 1.0000
20.9900 1566.0000 1.0000
21.0000 1551.0000 1.0000
21.0100 1564.0000 1.0000
21.0200 1537.0000 1.0000
21.0300 1588.0000 1.0000
21.0400 1574.0000 1.0000
21.0500 1581.0000 1.0000
21.0600 1575.0000 1.0000
21.0700 1568.0000 1.0000
21.0800 1565.0000 1.0000
21.0900 1559.0000 1.0000
21.1000 1579.0000 1.0000
21.1100 1570.0000 1.0000
21.1200 1616.0000 1.0000
21.1300 1631.0000 1.0000
21.1400 1649.0000 1.0000
21.1500 1593.0000 1.0000
21.1600 1543.0000 1.0000
21.1700 1516.0000 1.0000
21.1800 1603.0000 1.0000
21.1900 1577.0000 1.0000
21.2000 1520.0000 1.0000
21.2100 1568.0000 1.0000
21.2200 1606.0000 1.0000
21.2300 1563.0000 1.0000
21.2400 1579.0000 1.0000
21.2500 1585.0000 1.0000
21.2600 1560.0000 1.0000
21.2700 1505.0000 1.0000
21.2800 1553.0000 1.0000
21.2900 1574.0000 1.0000
21.3000 1587.0000 1.0000
21.3100 1583.0000 1.0000
21.3200 1587.0000 1.0000
21.3300 1547.0000 1.0000
21.3400 1598.0000 1.0000
21.3500 1570.0000 1.0000
21.3600 1558.0000 1.0000
21.3700 1614.0000 1.0000
21.3800 1594.0000 1.0000
21.3900 1598.0000 1.0000
21.4000 1590.0000 1.0000
21.4100 1573.0000 1.0000
21.4200 1578.0000 1.0000
21.4300 1635.0000 1.0000
21.4400 1585.0000 1.0000
21.4500 1529.0000 1.0000
21.4600 1578.0000 1.0000
21.4700 1555.0000 1.0000
21.4800 1540.0000 1.0000
21.4900 1536.0000 1.0000
21.5000 1644.0000 1.0000
21.5100 1620.0000 1.0000
21.5200 1582.0000 1.0000
21.5300 1554.0000 1.0000
21.5400 1613.0000 1.0000
21.5500 1554.0000 1.0000
21.5600 1598.0000 1.0000
21.5700 1600.0000 1.0000
21.5800 1559.0000 1.0000
21.5900 1572.0000 1.0000
21.6000 1586.0000 1.0000
21.6100 1556.0000 1.0000
21.6200 1566.0000 1.0000
21.6300 1580.0000 1.0000
21.6400 1571.0000 1.0000
21.6500 1601.0000 1.0000
21.6600 1633.0000 1.0000
21.6700 1511.0000 1.0000
21.6800 1585.0000 1.0000
21.6900 1572.0000 1.0000
21.7000 1594.0000 1.0000
21.7100 1551.0000 1.0000
21.7200 1612.0000 1.0000
21.7300 1669.0000 1.0000
21.7400 1609.0000 1.0000
21.7500 1543.0000 1.0000
21.7600 1545.0000 1.0000
21.7700 1600.0000 1.0000
21.7800 1613.0000 1.0000
21.7900 1599.0000 1.0000
21.8000 1633.0000 1.0000
21.8100 1594.0000 1.0000
21.8200 1571.0000 1.0000
21.8300 1583.0000 1.0000
21.8400 1575.0000 1.0000
21.8500 1579.0000 1.0000
21.8600 1564.0000 1.0000
21.8700 1579.0000 1.0000
21.8800 1675.0000 1.0000
21.8900 1581.0000 1.0000
21.9000 1585.0000 1.0000
21.9100 1586.0000 1.0000
21.9200 1553.0000 1.0000
21.9300 1550.0000 1.0000
21.9400 1523.0000 1.0000
21.9500 1554.0000 1.0000
21.9600 1579.0000 1.0000
21.9700 1576.0000 1.0000
21.9800 1584.0000 1.0000
21.9900 1561.0000 1.0000
22.0000 1533.0000 1.0000
22.0100 1577.0000 1.0000
22.0200 1600.0000 1.0000
22.0300 1565.0000 1.0000
22.0400 1591.0000 1.0000
22.0500 1657.0000 1.0000
22.0600 1671.0000 1.0000
22.0700 1519.0000 1.0000
22.0800 1539.0000 1.0000
22.0900 1601.0000 1.0000
22.1000 1530.0000 1.0000
22.1100 1522.0000 1.0000
22.1200 1564.0000 1.0000
22.1300 1554.0000 1.0000
22.1400 1618.0000 1.0000
22.1500 1626.0000 1.0000
22.1600 1574.0000 1.0000
22.1700 1626.0000 1.0000
22.1800 1581.0000 1.0000
22.1900 1671.0000 1.0000
22.2000 1665.0000 1.0000
22.2100 1561.0000 1.0000
22.2200 1561.0000 1.0000
22.2300 1614.0000 1.0000
22.2400 1611.0000 1.0000
22.2500 1593.0000 1.0000
22.2600 1639.0000 1.0000
22.2700 1668.0000 1.0000
22.2800 1612.0000 1.0000
22.2900 1622.0000 1.0000
22.3000 1615.0000 1.0000
22.3100 1638.0000 1.0000
22.3200 1573.0000 1.0000
22.3300 1608.0000 1.0000
22.3400 1597.0000 1.0000
22.3500 1568.0000 1.0000
22.3600 1543.0000 1.0000
22.3700 1639.0000 1.0000
22.3800 1622.0000 1.0000
22.3900 1602.0000 1.0000
22.4000 1523.0000 1.0000
22.4100 1581.0000 1.0000
22.4200 1637.0000 1.0000
22.4300 1628.0000 1.0000
22.4400 1535.0000 1.0000
22.4500 1575.0000 1.0000
22.4600 1610.0000 1.0000
22.4700 1642.0000 1.0000
22.4800 1646.0000 1.0000
22.4900 1594.0000 1.0000
22.5000 1548.0000 1.0000
22.5100 1591.0000 1.0000
22.5200 1614.0000 1.0000
22.5300 1580.0000 1.0000
22.5400 1556.0000 1.0000
22.5500 1568.0000 1.0000
22.5600 1565.0000 1.0000
22.5700 1512.0000 1.0000
22.5800 1629.0000 1.0000
22.5900 1609.0000 1.0000
22.6000 1523.0000 1.0000
22.6100 1678.0000 1.0000
22.6200 1649.0000 1.0000
22.6300 1668.0000 1.0000
22.6400 1582.0000 1.0000
22.6500 1575.0000 1.0000
22.6600 1569.0000 1.0000
22.6700 1582.0000 1.0000
22.6800 1617.0000 1.0000
22.6900 1564.0000 1.0000
22.7000 1557.0000 1.0000
22.7100 1626.0000 1.0000
22.7200 1594.0000 1.0000
22.7300 1615.0000 1.0000
22.7400 1678.0000 1.0000
22.7500 1678.0000 1.0000
22.7600 1589.0000 1.0000
22.7700 1654.0000 1.0000
22.7800 1635.0000 1.0000
22.7900 1582.0000 1.0000
22.8000 1617.0000 1.0000
22.8100 1632.0000 1.0000
22.8200 1656.0000 1.0000
22.8300 1640.0000 1.0000
22.8400 1603.0000 1.0000
22.8500 1618.0000 1.0000
22.8600 1640.0000 1.0000
22.8700 1591.0000 1.0000
22.8800 1619.0000 1.0000
22.8900 1635.0000 1.0000
22.9000 1559.0000 1.0000
22.9100 1622.0000 1.0000
22.9200 1594.0000 1.0000
22.9300 1596.0000 1.0000
22.9400 1595.0000 1.0000
22.9500 1608.0000 1.0000
22.9600 1597.0000 1.0000
22.9700 1594.0000 1.0000
22.9800 1631.0000 1.0000
22.9900 1617.0000 1.0000
23.0000 1540.0000 1.0000
23.0100 1572.0000 1.0000
23.0200 1613.0000 1.0000
23.0300 1607.0000 1.0000
23.0400 1599.0000 1.0000
23.0500 1598.0000 1.0000
23.0600 1632.0000 1.0000
23.0700 1636.0000 1.0000
23.0800 1618.0000 1.0000
23.0900 1639.0000 1.0000
23.1000 1609.0000 1.0000
23.1100 1616.0000 1.0000
23.1200 1593.0000 1.0000
23.1300 1701.0000 1.0000
23.1400 1626.0000 1.0000
23.1500 1725.0000 1.0000
23.1600 1629.0000 1.0000
23.1700 1602.0000 1.0000
23.1800 1644.0000 1.0000
23.1900 1588.0000 1.0000
23.2000 1625.0000 1.0000
23.2100 1612.0000 1.0000
23.2200 1628.0000 1.0000
23.2300 1649.0000 1.0000
23.2400 1620.0000 1.0000
23.2500 1608.0000 1.0000
23.2600 1612.0000 1.0000
23.2700 1622.0000 1.0000
23.2800 1596.0000 1.0000
23.2900 1653.0000 1.0000
23.3000 1587.0000 1.0000
23.3100 1656.0000 1.0000
23.3200 1566.0000 1.0000
23.3300 1558.0000 1.0000
23.3400 1601.0000 1.0000
23.3500 1627.0000 1.0000
23.3600 1616.0000 1.0000
23.3700 1656.0000 1.0000
23.3800 1712.0000 1.0000
23.3900 1617.0000 1.0000
23.4000 1637.0000 1.0000
23.4100 1595.0000 1.0000
23.4200 1558.0000 1.0000
23.4300 1619.0000 1.0000
23.4400 1620.0000 1.0000
23.4500 1577.0000 1.0000
23.4600 1592.0000 1.0000
23.4700 1669.0000 1.0000
23.4800 1668.0000 1.0000
23.4900 1626.0000 1.0000
23.5000 1625.0000 1.0000
23.5100 1654.0000 1.0000
23.5200 1578.0000 1.0000
23.5300 1626.0000 1.0000
23.5400 1598.0000 1.0000
23.5500 1637.0000 1.0000
23.5600 1632.0000 1.0000
23.5700 1632.0000 1.0000
23.5800 1535.0000 1.0000
23.5900 1601.0000 1.0000
23.6000 1611.0000 1.0000
23.6100 1610.0000 1.0000
23.6200 1589.0000 1.0000
23.6300 1607.0000 1.0000
23.6400 1683.0000 1.0000
23.6500 1649.0000 1.0000
23.6600 1633.0000 1.0000
23.6700 1611.0000 1.0000
23.6800 1613.0000 1.0000
23.6900 1608.0000 1.0000
23.7000 1652.0000 1.0000
23.7100 1636.0000 1.0000
23.7200 1707.0000 1.0000
23.7300 1660.0000 1.0000
23.7400 1627.0000 1.0000
23.7500 1583.0000 1.0000
23.7600 1569.0000 1.0000
23.7700 1617.0000 1.0000
23.7800 1655.0000 1.0000
23.7900 1654.0000 1.0000
23.8000 1591.0000 1.0000
23.8100 1598.0000 1.0000
23.8200 1654.0000 1.0000
23.8300 1647.0000 1.0000
23.8400 1599.0000 1.0000
23.8500 1646.0000 1.0000
23.8600 1658.0000 1.0000
23.8700 1672.0000 1.0000
23.8800 1687.0000 1.0000
23.8900 1626.0000 1.0000
23.9000 1649.0000 1.0000
23.9100 1678.0000 1.0000
23.9200 1652.0000 1.0000
23.9300 1654.0000 1.0000
23.9400 1687.0000 1.0000
23.9500 1696.0000 1.0000
23.9600 1714.0000 1.0000
23.9700 1704.0000 1.0000
23.9800 1650.0000 1.0000
23.9900 1605.0000 1.0000
24.0000 1600.0000 1.0000
24.0100 1627.0000 1.0000
24.0200 1653.0000 1.0000
24.0300 1672.0000 1.0000
24.0400 1639.0000 1.0000
24.0500 1595.0000 1.0000
24.0600 1673.0000 1.0000
24.0700 1680.0000 1.0000
24.0800 1698.0000 1.0000
24.0900 1668.0000 1.0000
24.1000 1553.0000 1.0000
24.1100 1623.0000 1.0000
24.1200 1638.0000 1.0000
24.1300 1672.0000 1.0000
24.1400 1668.0000 1.0000
24.1500 1665.0000 1.0000
24.1600 1682.0000 1.0000
24.1700 1639.0000 1.0000
24.1800 1570.0000 1.0000
24.1900 1640.0000 1.0000
24.2000 1674.0000 1.0000
24.2100 1639.0000 1.0000
24.2200 1582.0000 1.0000
24.2300 1684.0000 1.0000
24.2400 1619.0000 1.0000
24.2500 1620.0000 1.0000
24.2600 1644.0000 1.0000
24.2700 1668.0000 1.0000
24.2800 1685.0000 1.0000
24.2900 1702.0000 1.0000
24.3000 1589.0000 1.0000
24.3100 1680.0000 1.0000
24.3200 1631.0000 1.0000
24.3300 1692.0000 1.0000
24.3400 1631.0000 1.0000
24.3500 1670.0000 1.0000
24.3600 1664.0000 1.0000
24.3700 1659.0000 1.0000
24.3800 1629.0000 1.0000
24.3900 1650.0000 1.0000
24.4000 1668.0000 1.0000
24.4100 1659.0000 1.0000
24.4200 1627.0000 1.0000
24.4300 1613.0000 1.0000
24.4400 1698.0000 1.0000
24.4500 1683.0000 1.0000
24.4600 1612.0000 1.0000
24.4700 1598.0000 1.0000
24.4800 1668.0000 1.0000
24.4900 1649.0000 1.0000
24.5000 1641.0000 1.0000
24.5100 1689.0000 1.0000
24.5200 1661.0000 1.0000
24.5300 1648.0000 1.0000
24.5400 1611.0000 1.0000
24.5500 1708.0000 1.0000
24.5600 1679.0000 1.0000
24.5700 1717.0000 1.0000
24.5800 1730.0000 1.0000
24.5900 1641.0000 1.0000
24.6000 1679.0000 1.0000
24.6100 1682.0000 1.0000
24.6200 1667.0000 1.0000
24.6300 1710.0000 1.0000
24.6400 1741.0000 1.0000
24.6500 1614.0000 1.0000
24.6600 1663.0000 1.0000
24.6700 1683.0000 1.0000
24.6800 1702.0000 1.0000
24.6900 1666.0000 1.0000
24.7000 1668.0000 1.0000
24.7100 1709.0000 1.0000
24.7200 1682.0000 1.0000
24.7300 1720.0000 1.0000
24.7400 1713.0000 1.0000
24.7500 1718.0000 1.0000
24.7600 1592.0000 1.0000
24.7700 1623.0000 1.0000
24.7800 1646.0000 1.0000
24.7900 1670.0000 1.0000
24.8000 1720.0000 1.0000
24.8100 1801.0000 1.0000
24.8200 1656.0000 1.0000
24.8300 1713.0000 1.0000
24.8400 1717.0000 1.0000
24.8500 1649.0000 1.0000
24.8600 1718.0000 1.0000
24.8700 1684.0000 1.0000
24.8800 1673.0000 1.0000
24.8900 1730.0000 1.0000
24.9000 1703.0000 1.0000
24.9100 1682.0000 1.0000
24.9200 1668.0000 1.0000
24.9300 1714.0000 1.0000
24.9400 1784.0000 1.0000
24.9500 1760.0000 1.0000
24.9600 1703.0000 1.0000
24.9700 1746.0000 1.0000
24.9800 1714.0000 1.0000
24.9900 1733.0000 1.0000
25.0000 1701.0000 1.0000
25.0100 1766.0000 1.0000
25.0200 1675.0000 1.0000
25.0300 1759.0000 1.0000
25.0400 1683.0000 1.0000
25.0500 1662.0000 1.0000
25.0600 1695.0000 1.0000
25.0700 1704.0000 1.0000
25.0800 1681.0000 1.0000
25.0900 1703.0000 1.0000
25.1000 1762.0000 1.0000
25.1100 1730.0000 1.0000
25.1200 1737.0000 1.0000
25.1300 1659.0000 1.0000
25.1400 1716.0000 1.0000
25.1500 1706.0000 1.0000
25.1600 1721.0000 1.0000
25.1700 1711.0000 1.0000
25.1800 1702.0000 1.0000
25.1900 1666.0000 1.0000
25.2000 1772.0000 1.0000
25.2100 1693.0000 1.0000
25.2200 1667.0000 1.0000
25.2300 1740.0000 1.0000
25.2400 1753.0000 1.0000
25.2500 1715.0000 1.0000
25.2600 1675.0000 1.0000
25.2700 1672.0000 1.0000
25.2800 1723.0000 1.0000
25.2900 1619.0000 1.0000
25.3000 1712.0000 1.0000
25.3100 1774.0000 1.0000
25.3200 1651.0000 1.0000
25.3300 1619.0000 1.0000
25.3400 1708.0000 1.0000
25.3500 1757.0000 1.0000
25.3600 1783.0000 1.0000
25.3700 1707.0000 1.0000
25.3800 1666.0000 1.0000
25.3900 1708.0000 1.0000
25.4000 1703.0000 1.0000
25.4100 1688.0000 1.0000
25.4200 1703.0000 1.0000
25.4300 1695.0000 1.0000
25.4400 1720.0000 1.0000
25.4500 1696.0000 1.0000
25.4600 1709.0000 1.0000
25.4700 1710.0000 1.0000
25.4800 1675.0000 1.0000
25.4900 1749.0000 1.0000
25.5000 1700.0000 1.0000
25.5100 1667.0000 1.0000
25.5200 1750.0000 1.0000
25.5300 1703.0000 1.0000
25.5400 1735.0000 1.0000
25.5500 1658.0000 1.0000
25.5600 1719.0000 1.0000
25.5700 1706.0000 1.0000
25.5800 1653.0000 1.0000
25.5900 1585.0000 1.0000
25.6000 1720.0000 1.0000
25.6100 1721.0000 1.0000
25.6200 1685.0000 1.0000
25.6300 1646.0000 1.0000
25.6400 1695.0000 1.0000
25.6500 1687.0000 1.0000
25.6600 1672.0000 1.0000
25.6700 1676.0000 1.0000
25.6800 1617.0000 1.0000
25.6900 1672.0000 1.0000
25.7000 1706.0000 1.0000
25.7100 1662.0000 1.0000
25.7200 1718.0000 1.0000
25.7300 1741.0000 1.0000
25.7400 1738.0000 1.0000
25.7500 1724.0000 1.0000
25.7600 1766.0000 1.0000
25.7700 1681.0000 1.0000
25.7800 1657.0000 1.0000
25.7900 1694.0000 1.0000
25.8000 1657.0000 1.0000
25.8100 1653.0000 1.0000
25.8200 1712.0000 1.0000
25.8300 1705.0000 1.0000
25.8400 1666.0000 1.0000
25.8500 1703.0000 1.0000
25.8600 1684.0000 1.0000
25.8700 1746.0000 1.0000
25.8800 1687.0000 1.0000
25.8900 1738.0000 1.0000
25.9000 1777.0000 1.0000
25.9100 1711.0000 1.0000
25.9200 1656.0000 1.0000
25.9300 1671.0000 1.0000
25.9400 1724.0000 1.0000
25.9500 1692.0000 1.0000
25.9600 1679.0000 1.0000
25.9700 1668.0000 1.0000
25.9800 1689.0000 1.0000
25.9900 1724.0000 1.0000
26.0000 1649.0000 1.0000
26.0100 1702.0000 1.0000
26.0200 1712.0000 1.0000
26.0300 1653.0000 1.0000
26.0400 1710.0000 1.0000
26.0500 1715.0000 1.0000
26.0600 1634.0000 1.0000
26.0700 1723.0000 1.0000
26.0800 1684.0000 1.0000
26.0900 1676.0000 1.0000
26.1000 1701.0000 1.0000
26.1100 1689.0000 1.0000
26.1200 1688.0000 1.0000
26.1300 1656.0000 1.0000
26.1400 1709.0000 1.0000
26.1500 1684.0000 1.0000
26.1600 1718.0000 1.0000
26.1700 1734.0000 1.0000
26.1800 1687.0000 1.0000
26.1900 1702.0000 1.0000
26.2000 1687.0000 1.0000
26.2100 1713.0000 1.0000
26.2200 1709.0000 1.0000
26.2300 1695.0000 1.0000
26.2400 1681.0000 1.0000
26.2500 1757.0000 1.0000
26.2600 1701.0000 1.0000
26.2700 1708.0000 1.0000
26.2800 1713.0000 1.0000
26.2900 1735.0000 1.0000
26.3000 1832.0000 1.0000
26.3100 1730.0000 1.0000
26.3200 1721.0000 1.0000
26.3300 1764.0000 1.0000
26.3400 1706.0000 1.0000
26.3500 1724.0000 1.0000
26.3600 1732.0000 1.0000
26.3700 1781.0000 1.0000
26.3800 1748.0000 1.0000
26.3900 1713.0000 1.0000
26.4000 1706.0000 1.0000
26.4100 1751.0000 1.0000
26.4200 1706.0000 1.0000
26.4300 1776.0000 1.0000
26.4400 1815.0000 1.0000
26.4500 1793.0000 1.0000
26.4600 1733.0000 1.0000
26.4700 1737.0000 1.0000
26.4800 1751.0000 1.0000
26.4900 1754.0000 1.0000
26.5000 1834.0000 1.0000
26.5100 1778.0000 1.0000
26.5200 1719.0000 1.0000
26.5300 1759.0000 1.0000
26.5400 1794.0000 1.0000
26.5500 1774.0000 1.0000
26.5600 1769.0000 1.0000
26.5700 1832.0000 1.0000
26.5800 1818.0000 1.0000
26.5900 1812.0000 1.0000
26.6000 1795.0000 1.0000
26.6100 1821.0000 1.0000
26.6200 1732.0000 1.0000
26.6300 1808.0000 1.0000
26.6400 1791.0000 1.0000
26.6500 1782.0000 1.0000
26.6600 1786.0000 1.0000
26.6700 1780.0000 1.0000
26.6800 1849.0000 1.0000
26.6900 1829.0000 1.0000
26.7000 1824.0000 1.0000
26.7100 1831.0000 1.0000
26.7200 1840.0000 1.0000
26.7300 1881.0000 1.0000
26.7400 1871.0000 1.0000
26.7500 1867.0000 1.0000
26.7600 1823.0000 1.0000
26.7700 1818.0000 1.0000
26.7800 1837.0000 1.0000
26.7900 1902.0000 1.0000
26.8000 1919.0000 1.0000
26.8100 1832.0000 1.0000
26.8200 1821.0000 1.0000
26.8300 1866.0000 1.0000
26.8400 1873.0000 1.0000
26.8500 1829.0000 1.0000
26.8600 1931.0000 1.0000
26.8700 1911.0000 1.0000
26.8800 1999.0000 1.0000
26.8900 1949.0000 1.0000
26.9000 1891.0000 1.0000
26.9100 2016.0000 1.0000
26.9200 1950.0000 1.0000
26.9300 1993.0000 1.0000
26.9400 2029.0000 1.0000
26.9500 2102.0000 1.0000
26.9600 2093.0000 1.0000
26.9700 2065.0000 1.0000
26.9800 2138.0000 1.0000
26.9900 2113.0000 1.0000
27.0000 2119.0000 1.0000
27.0100 2167.0000 1.0000
27.0200 2154.0000 1.0000
27.0300 2223.0000 1.0000
27.0400 2241.0000 1.0000
27.0500 2310.0000 1.0000
27.0600 2362.0000 1.0000
27.0700 2406.0000 1.0000
27.0800 2572.0000 1.0000
27.0900 2468.0000 1.0000
27.1000 2555.0000 1.0000
27.1100 2498.0000 1.0000
27.1200 2650.0000 1.0000
27.1300 2743.0000 1.0000
27.1400 2925.0000 1.0000
27.1500 2947.0000 1.0000
27.1600 3069.0000 1.0000
27.1700 3163.0000 1.0000
27.1800 3305.0000 1.0000
27.1900 3400.0000 1.0000
27.2000 3469.0000 1.0000
27.2100 3632.0000 1.0000
27.2200 3859.0000 1.0000
27.2300 4077.0000 1.0000
27.2400 4285.0000 1.0000
27.2500 4533.0000 1.0000
27.2600 4708.0000 1.0000
27.2700 4954.0000 1.0000
27.2800 5140.0000 1.0000
27.2900 5275.0000 1.0000
27.3000 5539.0000 1.0000
27.3100 5956.0000 1.0000
27.3200 5958.0000 1.0000
27.3300 6273.0000 1.0000
27.3400 6459.0000 1.0000
27.3500 6482.0000 1.0000
27.3600 6535.0000 1.0000
27.3700 6509.0000 1.0000
27.3800 6248.0000 1.0000
27.3900 6113.0000 1.0000
27.4000 6038.0000 1.0000
27.4100 5798.0000 1.0000
27.4200 5633.0000 1.0000
27.4300 5393.0000 1.0000
27.4400 5103.0000 1.0000
27.4500 4748.0000 1.0000
27.4600 4465.0000 1.0000
27.4700 4318.0000 1.0000
27.4800 4113.0000 1.0000
27.4900 3809.0000 1.0000
27.5000 3637.0000 1.0000
27.5100 3461.0000 1.0000
27.5200 3420.0000 1.0000
27.5300 3287.0000 1.0000
27.5400 3131.0000 1.0000
27.5500 2997.0000 1.0000
27.5600 2943.0000 1.0000
27.5700 2874.0000 1.0000
27.5800 2830.0000 1.0000
27.5900 2692.0000 1.0000
27.6000 2568.0000 1.0000
27.6100 2531.0000 1.0000
27.6200 2393.0000 1.0000
27.6300 2372.0000 1.0000
27.6400 2346.0000 1.0000
27.6500 2333.0000 1.0000
27.6600 2278.0000 1.0000
27.6700 2207.0000 1.0000
27.6800 2222.0000 1.0000
27.6900 2141.0000 1.0000
27.7000 2104.0000 1.0000
27.7100 2077.0000 1.0000
27.7200 2057.0000 1.0000
27.7300 2066.0000 1.0000
27.7400 1936.0000 1.0000
27.7500 1989.0000 1.0000
27.7600 1969.0000 1.0000
27.7700 1990.0000 1.0000
27.7800 1965.0000 1.0000
27.7900 1953.0000 1.0000
27.8000 1988.0000 1.0000
27.8100 1948.0000 1.0000
27.8200 1990.0000 1.0000
27.8300 1933.0000 1.0000
27.8400 1881.0000 1.0000
27.8500 1908.0000 1.0000
27.8600 1803.0000 1.0000
27.8700 1871.0000 1.0000
27.8800 1907.0000 1.0000
27.8900 1782.0000 1.0000
27.9000 1790.0000 1.0000
27.9100 1828.0000 1.0000
27.9200 1811.0000 1.0000
27.9300 1835.0000 1.0000
27.9400 1824.0000 1.0000
27.9500 1852.0000 1.0000
27.9600 1831.0000 1.0000
27.9700 1706.0000 1.0000
27.9800 1746.0000 1.0000
27.9900 1816.0000 1.0000
28.0000 1787.0000 1.0000
28.0100 1708.0000 1.0000
28.0200 1802.0000 1.0000
28.0300 1794.0000 1.0000
28.0400 1788.0000 1.0000
28.0500 1719.0000 1.0000
28.0600 1735.0000 1.0000
28.0700 1724.0000 1.0000
28.0800 1708.0000 1.0000
28.0900 1805.0000 1.0000
28.1000 1782.0000 1.0000
28.1100 1780.0000 1.0000
28.1200 1730.0000 1.0000
28.1300 1786.0000 1.0000
28.1400 1739.0000 1.0000
28.1500 1750.0000 1.0000
28.1600 1709.0000 1.0000
28.1700 1683.0000 1.0000
28.1800 1661.0000 1.0000
28.1900 1754.0000 1.0000
28.2000 1732.0000 1.0000
28.2100 1698.0000 1.0000
28.2200 1725.0000 1.0000
28.2300 1683.0000 1.0000
28.2400 1669.0000 1.0000
28.2500 1638.0000 1.0000
28.2600 1679.0000 1.0000
28.2700 1624.0000 1.0000
28.2800 1746.0000 1.0000
28.2900 1687.0000 1.0000
28.3000 1702.0000 1.0000
28.3100 1768.0000 1.0000
28.3200 1715.0000 1.0000
28.3300 1674.0000 1.0000
28.3400 1677.0000 1.0000
28.3500 1737.0000 1.0000
28.3600 1662.0000 1.0000
28.3700 1649.0000 1.0000
28.3800 1686.0000 1.0000
28.3900 1688.0000 1.0000
28.4000 1662.0000 1.0000
28.4100 1644.0000 1.0000
28.4200 1667.0000 1.0000
28.4300 1681.0000 1.0000
28.4400 1633.0000 1.0000
28.4500 1702.0000 1.0000
28.4600 1644.0000 1.0000
28.4700 1669.0000 1.0000
28.4800 1639.0000 1.0000
28.4900 1729.0000 1.0000
28.5000 1686.0000 1.0000
28.5100 1667.0000 1.0000
28.5200 1657.0000 1.0000
28.5300 1678.0000 1.0000
28.5400 1678.0000 1.0000
28.5500 1653.0000 1.0000
28.5600 1620.0000 1.0000
28.5700 1620.0000 1.0000
28.5800 1673.0000 1.0000
28.5900 1600.0000 1.0000
28.6000 1629.0000 1.0000
28.6100 1649.0000 1.0000
28.6200 1642.0000 1.0000
28.6300 1633.0000 1.0000
28.6400 1669.0000 1.0000
28.6500 1677.0000 1.0000
28.6600 1605.0000 1.0000
28.6700 1559.0000 1.0000
28.6800 1607.0000 1.0000
28.6900 1651.0000 1.0000
28.7000 1678.0000 1.0000
28.7100 1703.0000 1.0000
28.7200 1621.0000 1.0000
28.7300 1636.0000 1.0000
28.7400 1588.0000 1.0000
28.7500 1655.0000 1.0000
28.7600 1599.0000 1.0000
28.7700 1597.0000 1.0000
28.7800 1646.0000 1.0000
28.7900 1621.0000 1.0000
28.8000 1701.0000 1.0000
28.8100 1650.0000 1.0000
28.8200 1636.0000 1.0000
28.8300 1632.0000 1.0000
28.8400 1595.0000 1.0000
28.8500 1588.0000 1.0000
28.8600 1612.0000 1.0000
28.8700 1665.0000 1.0000
28.8800 1608.0000 1.0000
28.8900 1623.0000 1.0000
28.9000 1645.0000 1.0000
28.9100 1608.0000 1.0000
28.9200 1546.0000 1.0000
28.9300 1640.0000 1.0000
28.9400 1567.0000 1.0000
28.9500 1622.0000 1.0000
28.9600 1627.0000 1.0000
28.9700 1567.0000 1.0000
28.9800 1558.0000 1.0000
28.9900 1591.0000 1.0000
29.0000 1576.0000 1.0000
29.0100 1646.0000 1.0000
29.0200 1621.0000 1.0000
29.0300 1577.0000 1.0000
29.0400 1622.0000 1.0000
29.0500 1599.0000 1.0000
29.0600 1556.0000 1.0000
29.0700 1627.0000 1.0000
29.0800 1624.0000 1.0000
29.0900 1586.0000 1.0000
29.1000 1684.0000 1.0000
29.1100 1670.0000 1.0000
29.1200 1589.0000 1.0000
29.1300 1643.0000 1.0000
29.1400 1575.0000 1.0000
29.1500 1529.0000 1.0000
29.1600 1573.0000 1.0000
29.1700 1615.0000 1.0000
29.1800 1600.0000 1.0000
29.1900 1643.0000 1.0000
29.2000 1619.0000 1.0000
29.2100 1612.0000 1.0000
29.2200 1580.0000 1.0000
29.2300 1595.0000 1.0000
29.2400 1640.0000 1.0000
29.2500 1627.0000 1.0000
29.2600 1555.0000 1.0000
29.2700 1578.0000 1.0000
29.2800 1588.0000 1.0000
29.2900 1622.0000 1.0000
29.3000 1594.0000 1.0000
29.3100 1575.0000 1.0000
29.3200 1538.0000 1.0000
29.3300 1598.0000 1.0000
29.3400 1580.0000 1.0000
29.3500 1568.0000 1.0000
29.3600 1556.0000 1.0000
29.3700 1589.0000 1.0000
29.3800 1531.0000 1.0000
29.3900 1497.0000 1.0000
29.4000 1556.0000 1.0000
29.4100 1588.0000 1.0000
29.4200 1608.0000 1.0000
29.4300 1613.0000 1.0000
29.4400 1562.0000 1.0000
29.4500 1592.0000 1.0000
29.4600 1563.0000 1.0000
29.4700 1533.0000 1.0000
29.4800 1563.0000 1.0000
29.4900 1553.0000 1.0000
29.5000 1594.0000 1.0000
29.5100 1518.0000 1.0000
29.5200 1528.0000 1.0000
29.5300 1586.0000 1.0000
29.5400 1588.0000 1.0000
29.5500 1511.0000 1.0000
29.5600 1530.0000 1.0000
29.5700 1544.0000 1.0000
29.5800 1608.0000 1.0000
29.5900 1531.0000 1.0000
29.6000 1543.0000 1.0000
29.6100 1541.0000 1.0000
29.6200 1562.0000 1.0000
29.6300 1555.0000 1.0000
29.6400 1538.0000 1.0000
29.6500 1570.0000 1.0000
29.6600 1568.0000 1.0000
29.6700 1578.0000 1.0000
29.6800 1550.0000 1.0000
29.6900 1553.0000 1.0000
29.7000 1570.0000 1.0000
29.7100 1546.0000 1.0000
29.7200 1601.0000 1.0000
29.7300 1583.0000 1.0000
29.7400 1553.0000 1.0000
29.7500 1576.0000 1.0000
29.7600 1597.0000 1.0000
29.7700 1594.0000 1.0000
29.7800 1565.0000 1.0000
29.7900 1583.0000 1.0000
29.8000 1538.0000 1.0000
29.8100 1528.0000 1.0000
29.8200 1559.0000 1.0000
29.8300 1515.0000 1.0000
29.8400 1509.0000 1.0000
29.8500 1556.0000 1.0000
29.8600 1564.0000 1.0000
29.8700 1519.0000 1.0000
29.8800 1540.0000 1.0000
29.8900 1514.0000 1.0000
29.9000 1588.0000 1.0000
29.9100 1579.0000 1.0000
29.9200 1609.0000 1.0000
29.9300 1524.0000 1.0000
29.9400 1473.0000 1.0000
29.9500 1440.0000 1.0000
29.9600 1522.0000 1.0000
29.9700 1550.0000 1.0000
29.9800 1526.0000 1.0000
29.9900 1476.0000 1.0000
30.0000 1558.0000 1.0000
30.0100 1556.0000 1.0000
30.0200 1481.0000 1.0000
30.0300 1458.0000 1.0000
30.0400 1488.0000 1.0000
30.0500 1468.0000 1.0000
30.0600 1506.0000 1.0000
30.0700 1549.0000 1.0000
30.0800 1480.0000 1.0000
30.0900 1572.0000 1.0000
30.1000 1508.0000 1.0000
30.1100 1533.0000 1.0000
30.1200 1532.0000 1.0000
30.1300 1513.0000 1.0000
30.1400 1555.0000 1.0000
30.1500 1548.0000 1.0000
30.1600 1512.0000 1.0000
30.1700 1526.0000 1.0000
30.1800 1565.0000 1.0000
30.1900 1570.0000 1.0000
30.2000 1553.0000 1.0000
30.2100 1553.0000 1.0000
30.2200 1488.0000 1.0000
30.2300 1511.0000 1.0000
30.2400 1538.0000 1.0000
30.2500 1554.0000 1.0000
30.2600 1513.0000 1.0000
30.2700 1511.0000 1.0000
30.2800 1453.0000 1.0000
30.2900 1486.0000 1.0000
30.3000 1504.0000 1.0000
30.3100 1498.0000 1.0000
30.3200 1571.0000 1.0000
30.3300 1583.0000 1.0000
30.3400 1520.0000 1.0000
30.3500 1475.0000 1.0000
30.3600 1492.0000 1.0000
30.3700 1498.0000 1.0000
30.3800 1557.0000 1.0000
30.3900 1520.0000 1.0000
30.4000 1532.0000 1.0000
30.4100 1453.0000 1.0000
30.4200 1466.0000 1.0000
30.4300 1510.0000 1.0000
30.4400 1520.0000 1.0000
30.4500 1506.0000 1.0000
30.4600 1426.0000 1.0000
30.4700 1439.0000 1.0000
30.4800 1471.0000 1.0000
30.4900 1508.0000 1.0000
30.5000 1527.0000 1.0000
30.5100 1497.0000 1.0000
30.5200 1521.0000 1.0000
30.5300 1532.0000 1.0000
30.5400 1526.0000 1.0000
30.5500 1522.0000 1.0000
30.5600 1450.0000 1.0000
30.5700 1513.0000 1.0000
30.5800 1513.0000 1.0000
30.5900 1435.0000 1.0000
30.6000 1468.0000 1.0000
30.6100 1532.0000 1.0000
30.6200 1532.0000 1.0000
30.6300 1511.0000 1.0000
30.6400 1526.0000 1.0000
30.6500 1456.0000 1.0000
30.6600 1496.0000 1.0000
30.6700 1542.0000 1.0000
30.6800 1524.0000 1.0000
30.6900 1482.0000 1.0000
30.7000 1511.0000 1.0000
30.7100 1531.0000 1.0000
30.7200 1481.0000 1.0000
30.7300 1414.0000 1.0000
30.7400 1526.0000 1.0000
30.7500 1448.0000 1.0000
30.7600 1432.0000 1.0000
30.7700 1393.0000 1.0000
30.7800 1504.0000 1.0000
30.7900 1511.0000 1.0000
30.8000 1535.0000 1.0000
30.8100 1475.0000 1.0000
30.8200 1493.0000 1.0000
30.8300 1420.0000 1.0000
30.8400 1434.0000 1.0000
30.8500 1475.0000 1.0000
30.8600 1516.0000 1.0000
30.8700 1457.0000 1.0000
30.8800 1455.0000 1.0000
30.8900 1516.0000 1.0000
30.9000 1468.0000 1.0000
30.9100 1485.0000 1.0000
30.9200 1469.0000 1.0000
30.9300 1489.0000 1.0000
30.9400 1426.0000 1.0000
30.9500 1438.0000 1.0000
30.9600 1461.0000 1.0000
30.9700 1484.0000 1.0000
30.9800 1463.0000 1.0000
30.9900 1449.0000 1.0000
31.0000 1454.0000 1.0000
31.0100 1491.0000 1.0000
31.0200 1464.0000 1.0000
31.0300 1420.0000 1.0000
31.0400 1495.0000 1.0000
31.0500 1451.0000 1.0000
31.0600 1417.0000 1.0000
31.0700 1449.0000 1.0000
31.0800 1480.0000 1.0000
31.0900 1476.0000 1.0000
31.1000 1450.0000 1.0000
31.1100 1480.0000 1.0000
31.1200 1503.0000 1.0000
31.1300 1545.0000 1.0000
31.1400 1415.0000 1.0000
31.1500 1434.0000 1.0000
31.1600 1481.0000 1.0000
31.1700 1496.0000 1.0000
31.1800 1478.0000 1.0000
31.1900 1455.0000 1.0000
31.2000 1497.0000 1.0000
31.2100 1531.0000 1.0000
31.2200 1462.0000 1.0000
31.2300 1400.0000 1.0000
31.2400 1459.0000 1.0000
31.2500 1422.0000 1.0000
31.2600 1434.0000 1.0000
31.2700 1442.0000 1.0000
31.2800 1469.0000 1.0000
31.2900 1463.0000 1.0000
31.3000 1431.0000 1.0000
31.3100 1430.0000 1.0000
31.3200 1464.0000 1.0000
31.3300 1451.0000 1.0000
31.3400 1484.0000 1.0000
31.3500 1459.0000 1.0000
31.3600 1491.0000 1.0000
31.3700 1427.0000 1.0000
31.3800 1394.0000 1.0000
31.3900 1427.0000 1.0000
31.4000 1497.0000 1.0000
31.4100 1430.0000 1.0000
31.4200 1474.0000 1.0000
31.4300 1437.0000 1.0000
31.4400 1381.0000 1.0000
31.4500 1424.0000 1.0000
31.4600 1455.0000 1.0000
31.4700 1390.0000 1.0000
31.4800 1402.0000 1.0000
31.4900 1480.0000 1.0000
31.5000 1499.0000 1.0000
31.5100 1469.0000 1.0000
31.5200 1460.0000 1.0000
31.5300 1470.0000 1.0000
31.5400 1493.0000 1.0000
31.5500 1493.0000 1.0000
31.5600 1449.0000 1.0000
31.5700 1442.0000 1.0000
31.5800 1427.0000 1.0000
31.5900 1429.0000 1.0000
31.6000 1392.0000 1.0000
31.6100 1447.0000 1.0000
31.6200 1477.0000 1.0000
31.6300 1452.0000 1.0000
31.6400 1419.0000 1.0000
31.6500 1407.0000 1.0000
31.6600 1507.0000 1.0000
31.6700 1429.0000 1.0000
31.6800 1427.0000 1.0000
31.6900 1464.0000 1.0000
31.7000 1420.0000 1.0000
31.7100 1446.0000 1.0000
31.7200 1515.0000 1.0000
31.7300 1438.0000 1.0000
31.7400 1412.0000 1.0000
31.7500 1399.0000 1.0000
31.7600 1470.0000 1.0000
31.7700 1520.0000 1.0000
31.7800 1481.0000 1.0000
31.7900 1474.0000 1.0000
31.8000 1442.0000 1.0000
31.8100 1441.0000 1.0000
31.8200 1383.0000 1.0000
31.8300 1427.0000 1.0000
31.8400 1402.0000 1.0000
31.8500 1419.0000 1.0000
31.8600 1507.0000 1.0000
31.8700 1493.0000 1.0000
31.8800 1440.0000 1.0000
31.8900 1417.0000 1.0000
31.9000 1437.0000 1.0000
31.9100 1447.0000 1.0000
31.9200 1420.0000 1.0000
31.9300 1456.0000 1.0000
31.9400 1470.0000 1.0000
31.9500 1438.0000 1.0000
31.9600 1499.0000 1.0000
31.9700 1410.0000 1.0000
31.9800 1456.0000 1.0000
31.9900 1509.0000 1.0000
32.0000 1484.0000 1.0000
32.0100 1463.0000 1.0000
32.0200 1448.0000 1.0000
32.0300 1472.0000 1.0000
32.0400 1438.0000 1.0000
32.0500 1428.0000 1.0000
32.0600 1470.0000 1.0000
32.0700 1476.0000 1.0000
32.0800 1435.0000 1.0000
32.0900 1489.0000 1.0000
32.1000 1434.0000 1.0000
32.1100 1490.0000 1.0000
32.1200 1459.0000 1.0000
32.1300 1480.0000 1.0000
32.1400 1448.0000 1.0000
32.1500 1441.0000 1.0000
32.1600 1461.0000 1.0000
32.1700 1462.0000 1.0000
32.1800 1429.0000 1.0000
32.1900 1422.0000 1.0000
32.2000 1418.0000 1.0000
32.2100 1439.0000 1.0000
32.2200 1411.0000 1.0000
32.2300 1385.0000 1.0000
32.2400 1409.0000 1.0000
32.2500 1463.0000 1.0000
32.2600 1423.0000 1.0000
32.2700 1379.0000 1.0000
32.2800 1392.0000 1.0000
32.2900 1386.0000 1.0000
32.3000 1434.0000 1.0000
32.3100 1429.0000 1.0000
32.3200 1392.0000 1.0000
32.3300 1445.0000 1.0000
32.3400 1380.0000 1.0000
32.3500 1441.0000 1.0000
32.3600 1412.0000 1.0000
32.3700 1404.0000 1.0000
32.3800 1430.0000 1.0000
32.3900 1396.0000 1.0000
32.4000 1395.0000 1.0000
32.4100 1369.0000 1.0000
32.4200 1432.0000 1.0000
32.4300 1443.0000 1.0000
32.4400 1347.0000 1.0000
32.4500 1380.0000 1.0000
32.4600 1403.0000 1.0000
32.4700 1356.0000 1.0000
32.4800 1345.0000 1.0000
32.4900 1359.0000 1.0000
32.5000 1391.0000 1.0000
32.5100 1423.0000 1.0000
32.5200 1373.0000 1.0000
32.5300 1377.0000 1.0000
32.5400 1396.0000 1.0000
32.5500 1368.0000 1.0000
32.5600 1390.0000 1.0000
32.5700 1407.0000 1.0000
32.5800 1383.0000 1.0000
32.5900 1380.0000 1.0000
32.6000 1393.0000 1.0000
32.6100 1340.0000 1.0000
32.6200 1380.0000 1.0000
32.6300 1357.0000 1.0000
32.6400 1373.0000 1.0000
32.6500 1392.0000 1.0000
32.6600 1439.0000 1.0000
32.6700 1402.0000 1.0000
32.6800 1391.0000 1.0000
32.6900 1373.0000 1.0000
32.7000 1341.0000 1.0000
32.7100 1337.0000 1.0000
32.7200 1357.0000 1.0000
32.7300 1380.0000 1.0000
32.7400 1383.0000 1.0000
32.7500 1412.0000 1.0000
32.7600 1371.0000 1.0000
32.7700 1312.0000 1.0000
32.7800 1354.0000 1.0000
32.7900 1378.0000 1.0000
32.8000 1435.0000 1.0000
32.8100 1342.0000 1.0000
32.8200 1387.0000 1.0000
32.8300 1343.0000 1.0000
32.8400 1404.0000 1.0000
32.8500 1376.0000 1.0000
32.8600 1284.0000 1.0000
32.8700 1372.0000 1.0000
32.8800 1306.0000 1.0000
32.8900 1341.0000 1.0000
32.9000 1370.0000 1.0000
32.9100 1342.0000 1.0000
32.9200 1403.0000 1.0000
32.9300 1392.0000 1.0000
32.9400 1360.0000 1.0000
32.9500 1387.0000 1.0000
32.9600 1411.0000 1.0000
32.9700 1348.0000 1.0000
32.9800 1360.0000 1.0000
32.9900 1425.0000 1.0000
33.0000 1369.0000 1.0000
33.0100 1310.0000 1.0000
33.0200 1389.0000 1.0000
33.0300 1389.0000 1.0000
33.0400 1417.0000 1.0000
33.0500 1374.0000 1.0000
33.0600 1333.0000 1.0000
33.0700 1374.0000 1.0000
33.0800 1393.0000 1.0000
33.0900 1341.0000 1.0000
33.1000 1310.0000 1.0000
33.1100 1356.0000 1.0000
33.1200 1375.0000 1.0000
33.1300 1329.0000 1.0000
33.1400 1269.0000 1.0000
33.1500 1384.0000 1.0000
33.1600 1328.0000 1.0000
33.1700 1345.0000 1.0000
33.1800 1376.0000 1.0000
33.1900 1353.0000 1.0000
33.2000 1398.0000 1.0000
33.2100 1364.0000 1.0000
33.2200 1342.0000 1.0000
33.2300 1329.0000 1.0000
33.2400 1338.0000 1.0000
33.2500 1379.0000 1.0000
33.2600 1385.0000 1.0000
33.2700 1327.0000 1.0000
33.2800 1345.0000 1.0000
33.2900 1344.0000 1.0000
33.3000 1375.0000 1.0000
33.3100 1329.0000 1.0000
33.3200 1345.0000 1.0000
33.3300 1343.0000 1.0000
33.3400 1369.0000 1.0000
33.3500 1407.0000 1.0000
33.3600 1391.0000 1.0000
33.3700 1330.0000 1.0000
33.3800 1392.0000 1.0000
33.3900 1364.0000 1.0000
33.4000 1386.0000 1.0000
33.4100 1373.0000 1.0000
33.4200 1346.0000 1.0000
33.4300 1322.0000 1.0000
33.4400 1322.0000 1.0000
33.4500 1379.0000 1.0000
33.4600 1369.0000 1.0000
33.4700 1350.0000 1.0000
33.4800 1402.0000 1.0000
33.4900 1379.0000 1.0000
33.5000 1380.0000 1.0000
33.5100 1348.0000 1.0000
33.5200 1335.0000 1.0000
33.5300 1316.0000 1.0000
33.5400 1333.0000 1.0000
33.5500 1421.0000 1.0000
33.5600 1410.0000 1.0000
33.5700 1418.0000 1.0000
33.5800 1426.0000 1.0000
33.5900 1345.0000 1.0000
33.6000 1333.0000 1.0000
33.6100 1358.0000 1.0000
33.6200 1346.0000 1.0000
33.6300 1381.0000 1.0000
33.6400 1387.0000 1.0000
33.6500 1376.0000 1.0000
33.6600 1383.0000 1.0000
33.6700 1415.0000 1.0000
33.6800 1368.0000 1.0000
33.6900 1356.0000 1.0000
33.7000 1315.0000 1.0000
33.7100 1411.0000 1.0000
33.7200 1375.0000 1.0000
33.7300 1364.0000 1.0000
33.7400 1300.0000 1.0000
33.7500 1324.0000 1.0000
33.7600 1365.0000 1.0000
33.7700 1386.0000 1.0000
33.7800 1384.0000 1.0000
33.7900 1400.0000 1.0000
33.8000 1348.0000 1.0000
33.8100 1388.0000 1.0000
33.8200 1376.0000 1.0000
33.8300 1440.0000 1.0000
33.8400 1429.0000 1.0000
33.8500 1393.0000 1.0000
33.8600 1393.0000 1.0000
33.8700 1349.0000 1.0000
33.8800 1434.0000 1.0000
33.8900 1433.0000 1.0000
33.9000 1460.0000 1.0000
33.9100 1471.0000 1.0000
33.9200 1468.0000 1.0000
33.9300 1455.0000 1.0000
33.9400 1423.0000 1.0000
33.9500 1450.0000 1.0000
33.9600 1430.0000 1.0000
33.9700 1474.0000 1.0000
33.9800 1514.0000 1.0000
33.9900 1520.0000 1.0000
34.0000 1444.0000 1.0000
34.0100 1551.0000 1.0000
34.0200 1499.0000 1.0000
34.0300 1476.0000 1.0000
34.0400 1522.0000 1.0000
34.0500 1482.0000 1.0000
34.0600 1468.0000 1.0000
34.0700 1424.0000 1.0000
34.0800 1490.0000 1.0000
34.0900 1530.0000 1.0000
34.1000 1466.0000 1.0000
34.1100 1405.0000 1.0000
34.1200 1489.0000 1.0000
34.1300 1441.0000 1.0000
34.1400 1562.0000 1.0000
34.1500 1499.0000 1.0000
34.1600 1494.0000 1.0000
34.1700 1510.0000 1.0000
34.1800 1518.0000 1.0000
34.1900 1496.0000 1.0000
34.2000 1501.0000 1.0000
34.2100 1490.0000 1.0000
34.2200 1571.0000 1.0000
34.2300 1565.0000 1.0000
34.2400 1511.0000 1.0000
34.2500 1499.0000 1.0000
34.2600 1614.0000 1.0000
34.2700 1670.0000 1.0000
34.2800 1586.0000 1.0000
34.2900 1607.0000 1.0000
34.3000 1625.0000 1.0000
34.3100 1673.0000 1.0000
34.3200 1722.0000 1.0000
34.3300 1681.0000 1.0000
34.3400 1754.0000 1.0000
34.3500 1752.0000 1.0000
34.3600 1791.0000 1.0000
34.3700 1826.0000 1.0000
34.3800 1908.0000 1.0000
34.3900 1978.0000 1.0000
34.4000 1964.0000 1.0000
34.4100 2085.0000 1.0000
34.4200 2137.0000 1.0000
34.4300 2141.0000 1.0000
34.4400 2161.0000 1.0000
34.4500 2291.0000 1.0000
34.4600 2401.0000 1.0000
34.4700 2492.0000 1.0000
34.4800 2615.0000 1.0000
34.4900 2643.0000 1.0000
34.5000 2587.0000 1.0000
34.5100 2717.0000 1.0000
34.5200 2808.0000 1.0000
34.5300 2754.0000 1.0000
34.5400 2966.0000 1.0000
34.5500 2908.0000 1.0000
34.5600 2810.0000 1.0000
34.5700 2934.0000 1.0000
34.5800 2777.0000 1.0000
34.5900 2783.0000 1.0000
34.6000 2810.0000 1.0000
34.6100 2656.0000 1.0000
34.6200 2584.0000 1.0000
34.6300 2586.0000 1.0000
34.6400 2461.0000 1.0000
34.6500 2397.0000 1.0000
34.6600 2254.0000 1.0000
34.6700 2176.0000 1.0000
34.6800 2264.0000 1.0000
34.6900 2179.0000 1.0000
34.7000 2018.0000 1.0000
34.7100 1979.0000 1.0000
34.7200 1911.0000 1.0000
34.7300 1855.0000 1.0000
34.7400 1855.0000 1.0000
34.7500 1830.0000 1.0000
34.7600 1751.0000 1.0000
34.7700 1696.0000 1.0000
34.7800 1704.0000 1.0000
34.7900 1690.0000 1.0000
34.8000 1695.0000 1.0000
34.8100 1675.0000 1.0000
34.8200 1625.0000 1.0000
34.8300 1547.0000 1.0000
34.8400 1558.0000 1.0000
34.8500 1570.0000 1.0000
34.8600 1540.0000 1.0000
34.8700 1554.0000 1.0000
34.8800 1533.0000 1.0000
34.8900 1480.0000 1.0000
34.9000 1495.0000 1.0000
34.9100 1425.0000 1.0000
34.9200 1430.0000 1.0000
34.9300 1373.0000 1.0000
34.9400 1400.0000 1.0000
34.9500 1419.0000 1.0000
34.9600 1404.0000 1.0000
34.9700 1359.0000 1.0000
34.9800 1364.0000 1.0000
34.9900 1331.0000 1.0000
35.0000 1325.0000 1.0000
35.0100 1363.0000 1.0000
35.0200 1333.0000 1.0000
35.0300 1303.0000 1.0000
35.0400 1268.0000 1.0000
35.0500 1305.0000 1.0000
35.0600 1247.0000 1.0000
35.0700 1284.0000 1.0000
35.0800 1289.0000 1.0000
35.0900 1291.0000 1.0000
35.1000 1329.0000 1.0000
35.1100 1328.0000 1.0000
35.1200 1282.0000 1.0000
35.1300 1282.0000 1.0000
35.1400 1291.0000 1.0000
35.1500 1325.0000 1.0000
35.1600 1343.0000 1.0000
35.1700 1262.0000 1.0000
35.1800 1255.0000 1.0000
35.1900 1299.0000 1.0000
35.2000 1299.0000 1.0000
35.2100 1267.0000 1.0000
35.2200 1240.0000 1.0000
35.2300 1245.0000 1.0000
35.2400 1208.0000 1.0000
35.2500 1238.0000 1.0000
35.2600 1215.0000 1.0000
35.2700 1234.0000 1.0000
35.2800 1260.0000 1.0000
35.2900 1234.0000 1.0000
35.3000 1236.0000 1.0000
35.3100 1238.0000 1.0000
35.3200 1214.0000 1.0000
35.3300 1174.0000 1.0000
35.3400 1212.0000 1.0000
35.3500 1239.0000 1.0000
35.3600 1215.0000 1.0000
35.3700 1279.0000 1.0000
35.3800 1279.0000 1.0000
35.3900 1211.0000 1.0000
35.4000 1213.0000 1.0000
35.4100 1234.0000 1.0000
35.4200 1278.0000 1.0000
35.4300 1237.0000 1.0000
35.4400 1202.0000 1.0000
35.4500 1170.0000 1.0000
35.4600 1206.0000 1.0000
35.4700 1284.0000 1.0000
35.4800 1220.0000 1.0000
35.4900 1238.0000 1.0000
35.5000 1220.0000 1.0000
35.5100 1245.0000 1.0000
35.5200 1200.0000 1.0000
35.5300 1191.0000 1.0000
35.5400 1188.0000 1.0000
35.5500 1188.0000 1.0000
35.5600 1219.0000 1.0000
35.5700 1195.0000 1.0000
35.5800 1201.0000 1.0000
35.5900 1233.0000 1.0000
35.6000 1182.0000 1.0000
35.6100 1171.0000 1.0000
35.6200 1169.0000 1.0000
35.6300 1161.0000 1.0000
35.6400 1198.0000 1.0000
35.6500 1213.0000 1.0000
35.6600 1216.0000 1.0000
35.6700 1225.0000 1.0000
35.6800 1264.0000 1.0000
35.6900 1173.0000 1.0000
35.7000 1207.0000 1.0000
35.7100 1226.0000 1.0000
35.7200 1169.0000 1.0000
35.7300 1162.0000 1.0000
35.7400 1187.0000 1.0000
35.7500 1189.0000 1.0000
35.7600 1175.0000 1.0000
35.7700 1121.0000 1.0000
35.7800 1163.0000 1.0000
35.7900 1148.0000 1.0000
35.8000 1131.0000 1.0000
35.8100 1245.0000 1.0000
35.8200 1195.0000 1.0000
35.8300 1228.0000 1.0000
35.8400 1167.0000 1.0000
35.8500 1146.0000 1.0000
35.8600 1134.0000 1.0000
35.8700 1212.0000 1.0000
35.8800 1201.0000 1.0000
35.8900 1117.0000 1.0000
35.9000 1160.0000 1.0000
35.9100 1147.0000 1.0000
35.9200 1186.0000 1.0000
35.9300 1185.0000 1.0000
35.9400 1152.0000 1.0000
35.9500 1197.0000 1.0000
35.9600 1162.0000 1.0000
35.9700 1196.0000 1.0000
35.9800 1197.0000 1.0000
35.9900 1168.0000 1.0000
36.0000 1214.0000 1.0000
36.0100 1192.0000 1.0000
36.0200 1117.0000 1.0000
36.0300 1238.0000 1.0000
36.0400 1206.0000 1.0000
36.0500 1248.0000 1.0000
36.0600 1244.0000 1.0000
36.0700 1252.0000 1.0000
36.0800 1188.0000 1.0000
36.0900 1273.0000 1.0000
36.1000 1239.0000 1.0000
36.1100 1237.0000 1.0000
36.1200 1273.0000 1.0000
36.1300 1259.0000 1.0000
36.1400 1282.0000 1.0000
36.1500 1338.0000 1.0000
36.1600 1214.0000 1.0000
36.1700 1334.0000 1.0000
36.1800 1327.0000 1.0000
36.1900 1336.0000 1.0000
36.2000 1309.0000 1.0000
36.2100 1331.0000 1.0000
36.2200 1367.0000 1.0000
36.2300 1423.0000 1.0000
36.2400 1417.0000 1.0000
36.2500 1429.0000 1.0000
36.2600 1474.0000 1.0000
36.2700 1515.0000 1.0000
36.2800 1506.0000 1.0000
36.2900 1466.0000 1.0000
36.3000 1540.0000 1.0000
36.3100 1652.0000 1.0000
36.3200 1665.0000 1.0000
36.3300 1694.0000 1.0000
36.3400 1673.0000 1.0000
36.3500 1682.0000 1.0000
36.3600 1839.0000 1.0000
36.3700 1788.0000 1.0000
36.3800 1907.0000 1.0000
36.3900 1907.0000 1.0000
36.4000 1928.0000 1.0000
36.4100 1998.0000 1.0000
36.4200 2001.0000 1.0000
36.4300 2098.0000 1.0000
36.4400 2047.0000 1.0000
36.4500 2216.0000 1.0000
36.4600 2179.0000 1.0000
36.4700 2191.0000 1.0000
36.4800 2178.0000 1.0000
36.4900 2143.0000 1.0000
36.5000 2090.0000 1.0000
36.5100 2079.0000 1.0000
36.5200 2027.0000 1.0000
36.5300 2040.0000 1.0000
36.5400 1995.0000 1.0000
36.5500 1968.0000 1.0000
36.5600 1922.0000 1.0000
36.5700 1781.0000 1.0000
36.5800 1798.0000 1.0000
36.5900 1721.0000 1.0000
36.6000 1707.0000 1.0000
36.6100 1689.0000 1.0000
36.6200 1606.0000 1.0000
36.6300 1621.0000 1.0000
36.6400 1484.0000 1.0000
36.6500 1496.0000 1.0000
36.6600 1395.0000 1.0000
36.6700 1434.0000 1.0000
36.6800 1413.0000 1.0000
36.6900 1417.0000 1.0000
36.7000 1346.0000 1.0000
36.7100 1276.0000 1.0000
36.7200 1301.0000 1.0000
36.7300 1314.0000 1.0000
36.7400 1194.0000 1.0000
36.7500 1290.0000 1.0000
36.7600 1248.0000 1.0000
36.7700 1261.0000 1.0000
36.7800 1240.0000 1.0000
36.7900 1189.0000 1.0000
36.8000 1172.0000 1.0000
36.8100 1225.0000 1.0000
36.8200 1220.0000 1.0000
36.8300 1199.0000 1.0000
36.8400 1208.0000 1.0000
36.8500 1143.0000 1.0000
36.8600 1112.0000 1.0000
36.8700 1142.0000 1.0000
36.8800 1142.0000 1.0000
36.8900 1146.0000 1.0000
36.9000 1115.0000 1.0000
36.9100 1159.0000 1.0000
36.9200 1139.0000 1.0000
36.9300 1119.0000 1.0000
36.9400 1151.0000 1.0000
36.9500 1091.0000 1.0000
36.9600 1126.0000 1.0000
36.9700 1122.0000 1.0000
36.9800 1101.0000 1.0000
36.9900 1098.0000 1.0000
37.0000 1117.0000 1.0000
37.0100 1144.0000 1.0000
37.0200 1097.0000 1.0000
37.0300 1078.0000 1.0000
37.0400 1093.0000 1.0000
37.0500 1059.0000 1.0000
37.0600 1117.0000 1.0000
37.0700 1083.0000 1.0000
37.0800 1061.0000 1.0000
37.0900 1099.0000 1.0000
37.1000 1074.0000 1.0000
37.1100 1096.0000 1.0000
37.1200 1100.0000 1.0000
37.1300 1096.0000 1.0000
37.1400 1094.0000 1.0000
37.1500 1069.0000 1.0000
37.1600 1093.0000 1.0000
37.1700 1135.0000 1.0000
37.1800 1134.0000 1.0000
37.1900 1069.0000 1.0000
37.2000 1090.0000 1.0000
37.2100 1108.0000 1.0000
37.2200 1079.0000 1.0000
37.2300 1059.0000 1.0000
37.2400 1064.0000 1.0000
37.2500 1115.0000 1.0000
37.2600 1095.0000 1.0000
37.2700 1080.0000 1.0000
37.2800 1130.0000 1.0000
37.2900 1046.0000 1.0000
37.3000 1112.0000 1.0000
37.3100 1080.0000 1.0000
37.3200 1071.0000 1.0000
37.3300 1065.0000 1.0000
37.3400 1112.0000 1.0000
37.3500 1063.0000 1.0000
37.3600 1132.0000 1.0000
37.3700 1085.0000 1.0000
37.3800 1085.0000 1.0000
37.3900 1077.0000 1.0000
37.4000 1073.0000 1.0000
37.4100 1081.0000 1.0000
37.4200 1111.0000 1.0000
37.4300 1157.0000 1.0000
37.4400 1084.0000 1.0000
37.4500 1154.0000 1.0000
37.4600 1068.0000 1.0000
37.4700 1058.0000 1.0000
37.4800 1063.0000 1.0000
37.4900 1098.0000 1.0000
37.5000 1096.0000 1.0000
37.5100 1130.0000 1.0000
37.5200 1043.0000 1.0000
37.5300 1092.0000 1.0000
37.5400 1094.0000 1.0000
37.5500 1092.0000 1.0000
37.5600 1065.0000 1.0000
37.5700 1091.0000 1.0000
37.5800 1100.0000 1.0000
37.5900 1125.0000 1.0000
37.6000 1086.0000 1.0000
37.6100 1037.0000 1.0000
37.6200 1098.0000 1.0000
37.6300 1066.0000 1.0000
37.6400 1107.0000 1.0000
37.6500 1085.0000 1.0000
37.6600 1088.0000 1.0000
37.6700 1021.0000 1.0000
37.6800 1071.0000 1.0000
37.6900 1038.0000 1.0000
37.7000 1092.0000 1.0000
37.7100 1117.0000 1.0000
37.7200 1062.0000 1.0000
37.7300 1127.0000 1.0000
37.7400 1151.0000 1.0000
37.7500 1044.0000 1.0000
37.7600 1043.0000 1.0000
37.7700 1091.0000 1.0000
37.7800 1119.0000 1.0000
37.7900 1060.0000 1.0000
37.8000 1161.0000 1.0000
37.8100 1129.0000 1.0000
37.8200 1026.0000 1.0000
37.8300 1081.0000 1.0000
37.8400 1074.0000 1.0000
37.8500 1085.0000 1.0000
37.8600 1135.0000 1.0000
37.8700 1201.0000 1.0000
37.8800 1121.0000 1.0000
37.8900 1096.0000 1.0000
37.9000 1075.0000 1.0000
37.9100 1065.0000 1.0000
37.9200 1096.0000 1.0000
37.9300 1101.0000 1.0000
37.9400 1082.0000 1.0000
37.9500 1169.0000 1.0000
37.9600 1164.0000 1.0000
37.9700 1170.0000 1.0000
37.9800 1141.0000 1.0000
37.9900 1146.0000 1.0000
38.0000 1137.0000 1.0000
38.0100 1134.0000 1.0000
38.0200 1139.0000 1.0000
38.0300 1182.0000 1.0000
38.0400 1195.0000 1.0000
38.0500 1229.0000 1.0000
38.0600 1203.0000 1.0000
38.0700 1168.0000 1.0000
38.0800 1169.0000 1.0000
38.0900 1234.0000 1.0000
38.1000 1164.0000 1.0000
38.1100 1181.0000 1.0000
38.1200 1193.0000 1.0000
38.1300 1237.0000 1.0000
38.1400 1274.0000 1.0000
38.1500 1260.0000 1.0000
38.1600 1244.0000 1.0000
38.1700 1338.0000 1.0000
38.1800 1304.0000 1.0000
38.1900 1332.0000 1.0000
38.2000 1462.0000 1.0000
38.2100 1375.0000 1.0000
38.2200 1469.0000 1.0000
38.2300 1450.0000 1.0000
38.2400 1454.0000 1.0000
38.2500 1496.0000 1.0000
38.2600 1525.0000 1.0000
38.2700 1584.0000 1.0000
38.2800 1706.0000 1.0000
38.2900 1706.0000 1.0000
38.3000 1751.0000 1.0000
38.3100 1848.0000 1.0000
38.3200 1914.0000 1.0000
38.3300 1979.0000 1.0000
38.3400 1979.0000 1.0000
38.3500 2098.0000 1.0000
38.3600 2208.0000 1.0000
38.3700 2264.0000 1.0000
38.3800 2418.0000 1.0000
38.3900 2615.0000 1.0000
38.4000 2683.0000 1.0000
38.4100 2771.0000 1.0000
38.4200 2911.0000 1.0000
38.4300 3185.0000 1.0000
38.4400 3330.0000 1.0000
38.4500 3572.0000 1.0000
38.4600 3915.0000 1.0000
38.4700 4154.0000 1.0000
38.4800 4462.0000 1.0000
38.4900 4778.0000 1.0000
38.5000 5071.0000 1.0000
38.5100 5487.0000 1.0000
38.5200 5757.0000 1.0000
38.5300 6072.0000 1.0000
38.5400 6298.0000 1.0000
38.5500 6777.0000 1.0000
38.5600 7048.0000 1.0000
38.5700 7149.0000 1.0000
38.5800 7137.0000 1.0000
38.5900 7272.0000 1.0000
38.6000 7225.0000 1.0000
38.6100 7104.0000 1.0000
38.6200 7174.0000 1.0000
38.6300 7069.0000 1.0000
38.6400 6667.0000 1.0000
38.6500 6582.0000 1.0000
38.6600 6318.0000 1.0000
38.6700 6057.0000 1.0000
38.6800 5911.0000 1.0000
38.6900 5586.0000 1.0000
38.7000 5290.0000 1.0000
38.7100 4984.0000 1.0000
38.7200 4748.0000 1.0000
38.7300 4438.0000 1.0000
38.7400 4002.0000 1.0000
38.7500 3834.0000 1.0000
38.7600 3490.0000 1.0000
38.7700 3296.0000 1.0000
38.7800 3138.0000 1.0000
38.7900 2985.0000 1.0000
38.8000 2839.0000 1.0000
38.8100 2624.0000 1.0000
38.8200 2430.0000 1.0000
38.8300 2342.0000 1.0000
38.8400 2209.0000 1.0000
38.8500 2046.0000 1.0000
38.8600 2053.0000 1.0000
38.8700 1893.0000 1.0000
38.8800 1864.0000 1.0000
38.8900 1739.0000 1.0000
38.9000 1664.0000 1.0000
38.9100 1623.0000 1.0000
38.9200 1546.0000 1.0000
38.9300 1477.0000 1.0000
38.9400 1451.0000 1.0000
38.9500 1437.0000 1.0000
38.9600 1415.0000 1.0000
38.9700 1389.0000 1.0000
38.9800 1379.0000 1.0000
38.9900 1274.0000 1.0000
39.0000 1240.0000 1.0000
39.0100 1254.0000 1.0000
39.0200 1244.0000 1.0000
39.0300 1214.0000 1.0000
39.0400 1270.0000 1.0000
39.0500 1181.0000 1.0000
39.0600 1182.0000 1.0000
39.0700 1094.0000 1.0000
39.0800 1173.0000 1.0000
39.0900 1131.0000 1.0000
39.1000 1079.0000 1.0000
39.1100 1146.0000 1.0000
39.1200 1143.0000 1.0000
39.1300 1139.0000 1.0000
39.1400 1080.0000 1.0000
39.1500 1058.0000 1.0000
39.1600 1076.0000 1.0000
39.1700 1070.0000 1.0000
39.1800 1086.0000 1.0000
39.1900 1112.0000 1.0000
39.2000 1047.0000 1.0000
39.2100 1050.0000 1.0000
39.2200 1064.0000 1.0000
39.2300 983.0000 1.0000
39.2400 992.0000 1.0000
39.2500 1014.0000 1.0000
39.2600 1060.0000 1.0000
39.2700 1029.0000 1.0000
39.2800 1033.0000 1.0000
39.2900 1026.0000 1.0000
39.3000 1017.0000 1.0000
39.3100 1054.0000 1.0000
39.3200 979.0000 1.0000
39.3300 1056.0000 1.0000
39.3400 1043.0000 1.0000
39.3500 970.0000 1.0000
39.3600 989.0000 1.0000
39.3700 1008.0000 1.0000
39.3800 935.0000 1.0000
39.3900 983.0000 1.0000
39.4000 951.0000 1.0000
39.4100 1032.0000 1.0000
39.4200 998.0000 1.0000
39.4300 1048.0000 1.0000
39.4400 1004.0000 1.0000
39.4500 1017.0000 1.0000
39.4600 947.0000 1.0000
39.4700 946.0000 1.0000
39.4800 947.0000 1.0000
39.4900 984.0000 1.0000
39.5000 947.0000 1.0000
39.5100 995.0000 1.0000
39.5200 1017.0000 1.0000
39.5300 1037.0000 1.0000
39.5400 1004.0000 1.0000
39.5500 997.0000 1.0000
39.5600 996.0000 1.0000
39.5700 1017.0000 1.0000
39.5800 1045.0000 1.0000
39.5900 1029.0000 1.0000
39.6000 1047.0000 1.0000
39.6100 1003.0000 1.0000
39.6200 990.0000 1.0000
39.6300 1029.0000 1.0000
39.6400 1035.0000 1.0000
39.6500 1009.0000 1.0000
39.6600 998.0000 1.0000
39.6700 965.0000 1.0000
39.6800 943.0000 1.0000
39.6900 1013.0000 1.0000
39.7000 1006.0000 1.0000
39.7100 1046.0000 1.0000
39.7200 1017.0000 1.0000
39.7300 984.0000 1.0000
39.7400 982.0000 1.0000
39.7500 1019.0000 1.0000
39.7600 992.0000 1.0000
39.7700 985.0000 1.0000
39.7800 960.0000 1.0000
39.7900 926.0000 1.0000
39.8000 952.0000 1.0000
39.8100 980.0000 1.0000
39.8200 978.0000 1.0000
39.8300 966.0000 1.0000
39.8400 952.0000 1.0000
39.8500 993.0000 1.0000
39.8600 944.0000 1.0000
39.8700 958.0000 1.0000
39.8800 958.0000 1.0000
39.8900 958.0000 1.0000
39.9000 944.0000 1.0000
39.9100 991.0000 1.0000
39.9200 921.0000 1.0000
39.9300 915.0000 1.0000
39.9400 967.0000 1.0000
39.9500 957.0000 1.0000
39.9600 958.0000 1.0000
39.9700 945.0000 1.0000
39.9800 941.0000 1.0000
39.9900 902.0000 1.0000
40.0000 901.0000 1.0000
40.0100 923.0000 1.0000
40.0200 870.0000 1.0000
40.0300 892.0000 1.0000
40.0400 928.0000 1.0000
40.0500 950.0000 1.0000
40.0600 919.0000 1.0000
40.0700 957.0000 1.0000
40.0800 932.0000 1.0000
40.0900 888.0000 1.0000
40.1000 881.0000 1.0000
40.1100 896.0000 1.0000
40.1200 924.0000 1.0000
40.1300 880.0000 1.0000
40.1400 952.0000 1.0000
40.1500 919.0000 1.0000
40.1600 937.0000 1.0000
40.1700 940.0000 1.0000
40.1800 916.0000 1.0000
40.1900 929.0000 1.0000
40.2000 890.0000 1.0000
40.2100 907.0000 1.0000
40.2200 920.0000 1.0000
40.2300 925.0000 1.0000
40.2400 921.0000 1.0000
40.2500 889.0000 1.0000
40.2600 938.0000 1.0000
40.2700 914.0000 1.0000
40.2800 912.0000 1.0000
40.2900 917.0000 1.0000
40.3000 904.0000 1.0000
40.3100 898.0000 1.0000
40.3200 888.0000 1.0000
40.3300 880.0000 1.0000
40.3400 890.0000 1.0000
40.3500 906.0000 1.0000
40.3600 873.0000 1.0000
40.3700 838.0000 1.0000
40.3800 878.0000 1.0000
40.3900 891.0000 1.0000
40.4000 886.0000 1.0000
40.4100 919.0000 1.0000
40.4200 926.0000 1.0000
40.4300 907.0000 1.0000
40.4400 902.0000 1.0000
40.4500 947.0000 1.0000
40.4600 889.0000 1.0000
40.4700 891.0000 1.0000
40.4800 931.0000 1.0000
40.4900 914.0000 1.0000
40.5000 902.0000 1.0000
40.5100 918.0000 1.0000
40.5200 942.0000 1.0000
40.5300 891.0000 1.0000
40.5400 891.0000 1.0000
40.5500 896.0000 1.0000
40.5600 842.0000 1.0000
40.5700 904.0000 1.0000
40.5800 892.0000 1.0000
40.5900 930.0000 1.0000
40.6000 903.0000 1.0000
40.6100 843.0000 1.0000
40.6200 894.0000 1.0000
40.6300 856.0000 1.0000
40.6400 923.0000 1.0000
40.6500 900.0000 1.0000
40.6600 891.0000 1.0000
40.6700 911.0000 1.0000
40.6800 952.0000 1.0000
40.6900 917.0000 1.0000
40.7000 938.0000 1.0000
40.7100 887.0000 1.0000
40.7200 929.0000 1.0000
40.7300 943.0000 1.0000
40.7400 885.0000 1.0000
40.7500 863.0000 1.0000
40.7600 899.0000 1.0000
40.7700 871.0000 1.0000
40.7800 867.0000 1.0000
40.7900 885.0000 1.0000
40.8000 880.0000 1.0000
40.8100 896.0000 1.0000
40.8200 915.0000 1.0000
40.8300 864.0000 1.0000
40.8400 907.0000 1.0000
40.8500 872.0000 1.0000
40.8600 942.0000 1.0000
40.8700 890.0000 1.0000
40.8800 836.0000 1.0000
40.8900 840.0000 1.0000
40.9000 918.0000 1.0000
40.9100 889.0000 1.0000
40.9200 911.0000 1.0000
40.9300 898.0000 1.0000
40.9400 873.0000 1.0000
40.9500 908.0000 1.0000
40.9600 900.0000 1.0000
40.9700 874.0000 1.0000
40.9800 827.0000 1.0000
40.9900 887.0000 1.0000
41.0000 941.0000 1.0000
41.0100 888.0000 1.0000
41.0200 845.0000 1.0000
41.0300 910.0000 1.0000
41.0400 871.0000 1.0000
41.0500 887.0000 1.0000
41.0600 869.0000 1.0000
41.0700 912.0000 1.0000
41.0800 882.0000 1.0000
41.0900 916.0000 1.0000
41.1000 862.0000 1.0000
41.1100 889.0000 1.0000
41.1200 887.0000 1.0000
41.1300 887.0000 1.0000
41.1400 855.0000 1.0000
41.1500 892.0000 1.0000
41.1600 882.0000 1.0000
41.1700 899.0000 1.0000
41.1800 940.0000 1.0000
41.1900 859.0000 1.0000
41.2000 889.0000 1.0000
41.2100 887.0000 1.0000
41.2200 896.0000 1.0000
41.2300 858.0000 1.0000
41.2400 913.0000 1.0000
41.2500 845.0000 1.0000
41.2600 846.0000 1.0000
41.2700 900.0000 1.0000
41.2800 865.0000 1.0000
41.2900 864.0000 1.0000
41.3000 892.0000 1.0000
41.3100 888.0000 1.0000
41.3200 855.0000 1.0000
41.3300 873.0000 1.0000
41.3400 890.0000 1.0000
41.3500 887.0000 1.0000
41.3600 904.0000 1.0000
41.3700 835.0000 1.0000
41.3800 888.0000 1.0000
41.3900 917.0000 1.0000
41.4000 903.0000 1.0000
41.4100 880.0000 1.0000
41.4200 870.0000 1.0000
41.4300 882.0000 1.0000
41.4400 864.0000 1.0000
41.4500 860.0000 1.0000
41.4600 898.0000 1.0000
41.4700 910.0000 1.0000
41.4800 932.0000 1.0000
41.4900 905.0000 1.0000
41.5000 890.0000 1.0000
41.5100 848.0000 1.0000
41.5200 891.0000 1.0000
41.5300 858.0000 1.0000
41.5400 826.0000 1.0000
41.5500 882.0000 1.0000
41.5600 851.0000 1.0000
41.5700 904.0000 1.0000
41.5800 908.0000 1.0000
41.5900 927.0000 1.0000
41.6000 900.0000 1.0000
41.6100 937.0000 1.0000
41.6200 896.0000 1.0000
41.6300 874.0000 1.0000
41.6400 857.0000 1.0000
41.6500 864.0000 1.0000
41.6600 893.0000 1.0000
41.6700 824.0000 1.0000
41.6800 893.0000 1.0000
41.6900 861.0000 1.0000
41.7000 894.0000 1.0000
41.7100 870.0000 1.0000
41.7200 880.0000 1.0000
41.7300 908.0000 1.0000
41.7400 885.0000 1.0000
41.7500 846.0000 1.0000
41.7600 845.0000 1.0000
41.7700 887.0000 1.0000
41.7800 854.0000 1.0000
41.7900 881.0000 1.0000
41.8000 864.0000 1.0000
41.8100 872.0000 1.0000
41.8200 894.0000 1.0000
41.8300 889.0000 1.0000
41.8400 831.0000 1.0000
41.8500 850.0000 1.0000
41.8600 863.0000 1.0000
41.8700 880.0000 1.0000
41.8800 872.0000 1.0000
41.8900 902.0000 1.0000
41.9000 872.0000 1.0000
41.9100 857.0000 1.0000
41.9200 880.0000 1.0000
41.9300 918.0000 1.0000
41.9400 913.0000 1.0000
41.9500 910.0000 1.0000
41.9600 873.0000 1.0000
41.9700 914.0000 1.0000
41.9800 887.0000 1.0000
41.9900 808.0000 1.0000
42.0000 869.0000 1.0000
42.0100 886.0000 1.0000
42.0200 883.0000 1.0000
42.0300 852.0000 1.0000
42.0400 890.0000 1.0000
42.0500 891.0000 1.0000
42.0600 865.0000 1.0000
42.0700 901.0000 1.0000
42.0800 875.0000 1.0000
42.0900 900.0000 1.0000
42.1000 905.0000 1.0000
42.1100 854.0000 1.0000
42.1200 900.0000 1.0000
42.1300 935.0000 1.0000
42.1400 863.0000 1.0000
42.1500 876.0000 1.0000
42.1600 874.0000 1.0000
42.1700 795.0000 1.0000
42.1800 834.0000 1.0000
42.1900 839.0000 1.0000
42.2000 882.0000 1.0000
42.2100 911.0000 1.0000
42.2200 860.0000 1.0000
42.2300 863.0000 1.0000
42.2400 871.0000 1.0000
42.2500 890.0000 1.0000
42.2600 847.0000 1.0000
42.2700 848.0000 1.0000
42.2800 875.0000 1.0000
42.2900 891.0000 1.0000
42.3000 870.0000 1.0000
42.3100 831.0000 1.0000
42.3200 864.0000 1.0000
42.3300 845.0000 1.0000
42.3400 870.0000 1.0000
42.3500 893.0000 1.0000
42.3600 891.0000 1.0000
42.3700 899.0000 1.0000
42.3800 896.0000 1.0000
42.3900 869.0000 1.0000
42.4000 838.0000 1.0000
42.4100 818.0000 1.0000
42.4200 854.0000 1.0000
42.4300 836.0000 1.0000
42.4400 901.0000 1.0000
42.4500 836.0000 1.0000
42.4600 807.0000 1.0000
42.4700 826.0000 1.0000
42.4800 850.0000 1.0000
42.4900 875.0000 1.0000
42.5000 875.0000 1.0000
42.5100 846.0000 1.0000
42.5200 809.0000 1.0000
42.5300 878.0000 1.0000
42.5400 875.0000 1.0000
42.5500 862.0000 1.0000
42.5600 825.0000 1.0000
42.5700 896.0000 1.0000
42.5800 835.0000 1.0000
42.5900 869.0000 1.0000
42.6000 812.0000 1.0000
42.6100 848.0000 1.0000
42.6200 846.0000 1.0000
42.6300 897.0000 1.0000
42.6400 859.0000 1.0000
42.6500 847.0000 1.0000
42.6600 832.0000 1.0000
42.6700 902.0000 1.0000
42.6800 915.0000 1.0000
42.6900 854.0000 1.0000
42.7000 839.0000 1.0000
42.7100 853.0000 1.0000
42.7200 906.0000 1.0000
42.7300 882.0000 1.0000
42.7400 856.0000 1.0000
42.7500 898.0000 1.0000
42.7600 880.0000 1.0000
42.7700 841.0000 1.0000
42.7800 887.0000 1.0000
42.7900 792.0000 1.0000
42.8000 820.0000 1.0000
42.8100 895.0000 1.0000
42.8200 858.0000 1.0000
42.8300 854.0000 1.0000
42.8400 840.0000 1.0000
42.8500 822.0000 1.0000
42.8600 805.0000 1.0000
42.8700 856.0000 1.0000
42.8800 852.0000 1.0000
42.8900 845.0000 1.0000
42.9000 862.0000 1.0000
42.9100 888.0000 1.0000
42.9200 889.0000 1.0000
42.9300 837.0000 1.0000
42.9400 903.0000 1.0000
42.9500 918.0000 1.0000
42.9600 837.0000 1.0000
42.9700 820.0000 1.0000
42.9800 856.0000 1.0000
42.9900 915.0000 1.0000
43.0000 900.0000 1.0000
43.0100 879.0000 1.0000
43.0200 880.0000 1.0000
43.0300 882.0000 1.0000
43.0400 852.0000 1.0000
43.0500 867.0000 1.0000
43.0600 896.0000 1.0000
43.0700 886.0000 1.0000
43.0800 885.0000 1.0000
43.0900 895.0000 1.0000
43.1000 897.0000 1.0000
43.1100 859.0000 1.0000
43.1200 892.0000 1.0000
43.1300 872.0000 1.0000
43.1400 863.0000 1.0000
43.1500 902.0000 1.0000
43.1600 943.0000 1.0000
43.1700 888.0000 1.0000
43.1800 889.0000 1.0000
43.1900 966.0000 1.0000
43.2000 921.0000 1.0000
43.2100 915.0000 1.0000
43.2200 911.0000 1.0000
43.2300 924.0000 1.0000
43.2400 944.0000 1.0000
43.2500 922.0000 1.0000
43.2600 921.0000 1.0000
43.2700 966.0000 1.0000
43.2800 934.0000 1.0000
43.2900 936.0000 1.0000
43.3000 951.0000 1.0000
43.3100 959.0000 1.0000
43.3200 903.0000 1.0000
43.3300 951.0000 1.0000
43.3400 953.0000 1.0000
43.3500 907.0000 1.0000
43.3600 960.0000 1.0000
43.3700 920.0000 1.0000
43.3800 916.0000 1.0000
43.3900 937.0000 1.0000
43.4000 915.0000 1.0000
43.4100 946.0000 1.0000
43.4200 948.0000 1.0000
43.4300 929.0000 1.0000
43.4400 920.0000 1.0000
43.4500 819.0000 1.0000
43.4600 872.0000 1.0000
43.4700 849.0000 1.0000
43.4800 821.0000 1.0000
43.4900 874.0000 1.0000
43.5000 830.0000 1.0000
43.5100 856.0000 1.0000
43.5200 824.0000 1.0000
43.5300 887.0000 1.0000
43.5400 849.0000 1.0000
43.5500 832.0000 1.0000
43.5600 822.0000 1.0000
43.5700 851.0000 1.0000
43.5800 875.0000 1.0000
43.5900 878.0000 1.0000
43.6000 804.0000 1.0000
43.6100 882.0000 1.0000
43.6200 855.0000 1.0000
43.6300 820.0000 1.0000
43.6400 803.0000 1.0000
43.6500 834.0000 1.0000
43.6600 850.0000 1.0000
43.6700 824.0000 1.0000
43.6800 845.0000 1.0000
43.6900 841.0000 1.0000
43.7000 870.0000 1.0000
43.7100 825.0000 1.0000
43.7200 873.0000 1.0000
43.7300 844.0000 1.0000
43.7400 835.0000 1.0000
43.7500 788.0000 1.0000
43.7600 817.0000 1.0000
43.7700 847.0000 1.0000
43.7800 883.0000 1.0000
43.7900 818.0000 1.0000
43.8000 874.0000 1.0000
43.8100 838.0000 1.0000
43.8200 848.0000 1.0000
43.8300 909.0000 1.0000
43.8400 864.0000 1.0000
43.8500 839.0000 1.0000
43.8600 821.0000 1.0000
43.8700 810.0000 1.0000
43.8800 826.0000 1.0000
43.8900 854.0000 1.0000
43.9000 800.0000 1.0000
43.9100 834.0000 1.0000
43.9200 869.0000 1.0000
43.9300 864.0000 1.0000
43.9400 874.0000 1.0000
43.9500 836.0000 1.0000
43.9600 896.0000 1.0000
43.9700 862.0000 1.0000
43.9800 812.0000 1.0000
43.9900 819.0000 1.0000
44.0000 853.0000 1.0000
44.0100 846.0000 1.0000
44.0200 798.0000 1.0000
44.0300 825.0000 1.0000
44.0400 774.0000 1.0000
44.0500 831.0000 1.0000
44.0600 839.0000 1.0000
44.0700 837.0000 1.0000
44.0800 852.0000 1.0000
44.0900 810.0000 1.0000
44.1000 848.0000 1.0000
44.1100 811.0000 1.0000
44.1200 811.0000 1.0000
44.1300 873.0000 1.0000
44.1400 852.0000 1.0000
44.1500 822.0000 1.0000
44.1600 840.0000 1.0000
44.1700 848.0000 1.0000
44.1800 821.0000 1.0000
44.1900 856.0000 1.0000
44.2000 839.0000 1.0000
44.2100 867.0000 1.0000
44.2200 851.0000 1.0000
44.2300 838.0000 1.0000
44.2400 812.0000 1.0000
44.2500 821.0000 1.0000
44.2600 842.0000 1.0000
44.2700 847.0000 1.0000
44.2800 877.0000 1.0000
44.2900 844.0000 1.0000
44.3000 803.0000 1.0000
44.3100 878.0000 1.0000
44.3200 859.0000 1.0000
44.3300 865.0000 1.0000
44.3400 900.0000 1.0000
44.3500 840.0000 1.0000
44.3600 836.0000 1.0000
44.3700 841.0000 1.0000
44.3800 833.0000 1.0000
44.3900 819.0000 1.0000
44.4000 858.0000 1.0000
44.4100 841.0000 1.0000
44.4200 859.0000 1.0000
44.4300 832.0000 1.0000
44.4400 825.0000 1.0000
44.4500 866.0000 1.0000
44.4600 866.0000 1.0000
44.4700 815.0000 1.0000
44.4800 837.0000 1.0000
44.4900 849.0000 1.0000
44.5000 886.0000 1.0000
44.5100 842.0000 1.0000
44.5200 831.0000 1.0000
44.5300 812.0000 1.0000
44.5400 816.0000 1.0000
44.5500 831.0000 1.0000
44.5600 826.0000 1.0000
44.5700 831.0000 1.0000
44.5800 788.0000 1.0000
44.5900 776.0000 1.0000
44.6000 819.0000 1.0000
44.6100 836.0000 1.0000
44.6200 838.0000 1.0000
44.6300 818.0000 1.0000
44.6400 817.0000 1.0000
44.6500 804.0000 1.0000
44.6600 754.0000 1.0000
44.6700 794.0000 1.0000
44.6800 812.0000 1.0000
44.6900 809.0000 1.0000
44.7000 832.0000 1.0000
44.7100 811.0000 1.0000
44.7200 810.0000 1.0000
44.7300 843.0000 1.0000
44.7400 792.0000 1.0000
44.7500 823.0000 1.0000
44.7600 798.0000 1.0000
44.7700 811.0000 1.0000
44.7800 896.0000 1.0000
44.7900 807.0000 1.0000
44.8000 834.0000 1.0000
44.8100 792.0000 1.0000
44.8200 796.0000 1.0000
44.8300 799.0000 1.0000
44.8400 819.0000 1.0000
44.8500 825.0000 1.0000
44.8600 780.0000 1.0000
44.8700 817.0000 1.0000
44.8800 826.0000 1.0000
44.8900 794.0000 1.0000
44.9000 836.0000 1.0000
44.9100 843.0000 1.0000
44.9200 838.0000 1.0000
44.9300 853.0000 1.0000
44.9400 874.0000 1.0000
44.9500 795.0000 1.0000
44.9600 829.0000 1.0000
44.9700 803.0000 1.0000
44.9800 800.0000 1.0000
44.9900 788.0000 1.0000
45.0000 802.0000 1.0000
45.0100 807.0000 1.0000
45.0200 796.0000 1.0000
45.0300 786.0000 1.0000
45.0400 843.0000 1.0000
45.0500 795.0000 1.0000
45.0600 793.0000 1.0000
45.0700 819.0000 1.0000
45.0800 825.0000 1.0000
45.0900 856.0000 1.0000
45.1000 889.0000 1.0000
45.1100 793.0000 1.0000
45.1200 794.0000 1.0000
45.1300 825.0000 1.0000
45.1400 827.0000 1.0000
45.1500 790.0000 1.0000
45.1600 855.0000 1.0000
45.1700 832.0000 1.0000
45.1800 832.0000 1.0000
45.1900 848.0000 1.0000
45.2000 818.0000 1.0000
45.2100 868.0000 1.0000
45.2200 807.0000 1.0000
45.2300 834.0000 1.0000
45.2400 793.0000 1.0000
45.2500 782.0000 1.0000
45.2600 787.0000 1.0000
45.2700 795.0000 1.0000
45.2800 821.0000 1.0000
45.2900 807.0000 1.0000
45.3000 809.0000 1.0000
45.3100 811.0000 1.0000
45.3200 805.0000 1.0000
45.3300 841.0000 1.0000
45.3400 814.0000 1.0000
45.3500 834.0000 1.0000
45.3600 785.0000 1.0000
45.3700 819.0000 1.0000
45.3800 806.0000 1.0000
45.3900 798.0000 1.0000
45.4000 793.0000 1.0000
45.4100 796.0000 1.0000
45.4200 796.0000 1.0000
45.4300 823.0000 1.0000
45.4400 827.0000 1.0000
45.4500 828.0000 1.0000
45.4600 798.0000 1.0000
45.4700 799.0000 1.0000
45.4800 777.0000 1.0000
45.4900 839.0000 1.0000
45.5000 828.0000 1.0000
45.5100 733.0000 1.0000
45.5200 837.0000 1.0000
45.5300 820.0000 1.0000
45.5400 795.0000 1.0000
45.5500 786.0000 1.0000
45.5600 820.0000 1.0000
45.5700 835.0000 1.0000
45.5800 761.0000 1.0000
45.5900 771.0000 1.0000
45.6000 783.0000 1.0000
45.6100 752.0000 1.0000
45.6200 810.0000 1.0000
45.6300 793.0000 1.0000
45.6400 803.0000 1.0000
45.6500 785.0000 1.0000
45.6600 775.0000 1.0000
45.6700 767.0000 1.0000
45.6800 815.0000 1.0000
45.6900 801.0000 1.0000
45.7000 779.0000 1.0000
45.7100 777.0000 1.0000
45.7200 830.0000 1.0000
45.7300 796.0000 1.0000
45.7400 789.0000 1.0000
45.7500 838.0000 1.0000
45.7600 812.0000 1.0000
45.7700 801.0000 1.0000
45.7800 795.0000 1.0000
45.7900 807.0000 1.0000
45.8000 790.0000 1.0000
45.8100 813.0000 1.0000
45.8200 793.0000 1.0000
45.8300 780.0000 1.0000
45.8400 817.0000 1.0000
45.8500 862.0000 1.0000
45.8600 755.0000 1.0000
45.8700 795.0000 1.0000
45.8800 790.0000 1.0000
45.8900 806.0000 1.0000
45.9000 847.0000 1.0000
45.9100 819.0000 1.0000
45.9200 805.0000 1.0000
45.9300 800.0000 1.0000
45.9400 800.0000 1.0000
45.9500 803.0000 1.0000
45.9600 767.0000 1.0000
45.9700 814.0000 1.0000
45.9800 762.0000 1.0000
45.9900 781.0000 1.0000
46.0000 762.0000 1.0000
46.0100 785.0000 1.0000
46.0200 785.0000 1.0000
46.0300 761.0000 1.0000
46.0400 789.0000 1.0000
46.0500 794.0000 1.0000
46.0600 785.0000 1.0000
46.0700 783.0000 1.0000
46.0800 792.0000 1.0000
46.0900 807.0000 1.0000
46.1000 774.0000 1.0000
46.1100 785.0000 1.0000
46.1200 804.0000 1.0000
46.1300 799.0000 1.0000
46.1400 753.0000 1.0000
46.1500 818.0000 1.0000
46.1600 797.0000 1.0000
46.1700 818.0000 1.0000
46.1800 794.0000 1.0000
46.1900 766.0000 1.0000
46.2000 780.0000 1.0000
46.2100 801.0000 1.0000
46.2200 791.0000 1.0000
46.2300 826.0000 1.0000
46.2400 793.0000 1.0000
46.2500 767.0000 1.0000
46.2600 805.0000 1.0000
46.2700 793.0000 1.0000
46.2800 788.0000 1.0000
46.2900 806.0000 1.0000
46.3000 785.0000 1.0000
46.3100 732.0000 1.0000
46.3200 778.0000 1.0000
46.3300 775.0000 1.0000
46.3400 774.0000 1.0000
46.3500 770.0000 1.0000
46.3600 770.0000 1.0000
46.3700 788.0000 1.0000
46.3800 783.0000 1.0000
46.3900 766.0000 1.0000
46.4000 785.0000 1.0000
46.4100 795.0000 1.0000
46.4200 782.0000 1.0000
46.4300 814.0000 1.0000
46.4400 818.0000 1.0000
46.4500 744.0000 1.0000
46.4600 826.0000 1.0000
46.4700 773.0000 1.0000
46.4800 770.0000 1.0000
46.4900 819.0000 1.0000
46.5000 779.0000 1.0000
46.5100 780.0000 1.0000
46.5200 784.0000 1.0000
46.5300 808.0000 1.0000
46.5400 794.0000 1.0000
46.5500 746.0000 1.0000
46.5600 794.0000 1.0000
46.5700 808.0000 1.0000
46.5800 786.0000 1.0000
46.5900 815.0000 1.0000
46.6000 794.0000 1.0000
46.6100 761.0000 1.0000
46.6200 802.0000 1.0000
46.6300 764.0000 1.0000
46.6400 787.0000 1.0000
46.6500 766.0000 1.0000
46.6600 810.0000 1.0000
46.6700 774.0000 1.0000
46.6800 764.0000 1.0000
46.6900 746.0000 1.0000
46.7000 782.0000 1.0000
46.7100 808.0000 1.0000
46.7200 784.0000 1.0000
46.7300 814.0000 1.0000
46.7400 784.0000 1.0000
46.7500 763.0000 1.0000
46.7600 736.0000 1.0000
46.7700 778.0000 1.0000
46.7800 731.0000 1.0000
46.7900 735.0000 1.0000
46.8000 800.0000 1.0000
46.8100 805.0000 1.0000
46.8200 804.0000 1.0000
46.8300 798.0000 1.0000
46.8400 795.0000 1.0000
46.8500 735.0000 1.0000
46.8600 800.0000 1.0000
46.8700 769.0000 1.0000
46.8800 793.0000 1.0000
46.8900 776.0000 1.0000
46.9000 760.0000 1.0000
46.9100 805.0000 1.0000
46.9200 794.0000 1.0000
46.9300 801.0000 1.0000
46.9400 730.0000 1.0000
46.9500 765.0000 1.0000
46.9600 756.0000 1.0000
46.9700 789.0000 1.0000
46.9800 784.0000 1.0000
46.9900 810.0000 1.0000
47.0000 748.0000 1.0000
47.0100 806.0000 1.0000
47.0200 768.0000 1.0000
47.0300 806.0000 1.0000
47.0400 787.0000 1.0000
47.0500 800.0000 1.0000
47.0600 798.0000 1.0000
47.0700 811.0000 1.0000
47.0800 835.0000 1.0000
47.0900 790.0000 1.0000
47.1000 831.0000 1.0000
47.1100 797.0000 1.0000
47.1200 833.0000 1.0000
47.1300 769.0000 1.0000
47.1400 745.0000 1.0000
47.1500 776.0000 1.0000
47.1600 789.0000 1.0000
47.1700 776.0000 1.0000
47.1800 788.0000 1.0000
47.1900 756.0000 1.0000
47.2000 782.0000 1.0000
47.2100 764.0000 1.0000
47.2200 771.0000 1.0000
47.2300 726.0000 1.0000
47.2400 746.0000 1.0000
47.2500 800.0000 1.0000
47.2600 754.0000 1.0000
47.2700 788.0000 1.0000
47.2800 766.0000 1.0000
47.2900 790.0000 1.0000
47.3000 764.0000 1.0000
47.3100 756.0000 1.0000
47.3200 779.0000 1.0000
47.3300 763.0000 1.0000
47.3400 745.0000 1.0000
47.3500 762.0000 1.0000
47.3600 776.0000 1.0000
47.3700 724.0000 1.0000
47.3800 742.0000 1.0000
47.3900 750.0000 1.0000
47.4000 754.0000 1.0000
47.4100 748.0000 1.0000
47.4200 753.0000 1.0000
47.4300 749.0000 1.0000
47.4400 770.0000 1.0000
47.4500 783.0000 1.0000
47.4600 799.0000 1.0000
47.4700 733.0000 1.0000
47.4800 728.0000 1.0000
47.4900 767.0000 1.0000
47.5000 796.0000 1.0000
47.5100 752.0000 1.0000
47.5200 769.0000 1.0000
47.5300 779.0000 1.0000
47.5400 728.0000 1.0000
47.5500 749.0000 1.0000
47.5600 774.0000 1.0000
47.5700 720.0000 1.0000
47.5800 778.0000 1.0000
47.5900 770.0000 1.0000
47.6000 760.0000 1.0000
47.6100 708.0000 1.0000
47.6200 774.0000 1.0000
47.6300 748.0000 1.0000
47.6400 768.0000 1.0000
47.6500 755.0000 1.0000
47.6600 713.0000 1.0000
47.6700 736.0000 1.0000
47.6800 732.0000 1.0000
47.6900 751.0000 1.0000
47.7000 773.0000 1.0000
47.7100 747.0000 1.0000
47.7200 725.0000 1.0000
47.7300 744.0000 1.0000
47.7400 707.0000 1.0000
47.7500 727.0000 1.0000
47.7600 785.0000 1.0000
47.7700 807.0000 1.0000
47.7800 756.0000 1.0000
47.7900 743.0000 1.0000
47.8000 728.0000 1.0000
47.8100 743.0000 1.0000
47.8200 738.0000 1.0000
47.8300 756.0000 1.0000
47.8400 764.0000 1.0000
47.8500 776.0000 1.0000
47.8600 805.0000 1.0000
47.8700 720.0000 1.0000
47.8800 754.0000 1.0000
47.8900 762.0000 1.0000
47.9000 762.0000 1.0000
47.9100 789.0000 1.0000
47.9200 729.0000 1.0000
47.9300 713.0000 1.0000
47.9400 762.0000 1.0000
47.9500 752.0000 1.0000
47.9600 777.0000 1.0000
47.9700 743.0000 1.0000
47.9800 736.0000 1.0000
47.9900 733.0000 1.0000
48.0000 772.0000 1.0000
48.0100 745.0000 1.0000
48.0200 732.0000 1.0000
48.0300 762.0000 1.0000
48.0400 757.0000 1.0000
48.0500 746.0000 1.0000
48.0600 782.0000 1.0000
48.0700 745.0000 1.0000
48.0800 722.0000 1.0000
48.0900 738.0000 1.0000
48.1000 770.0000 1.0000
48.1100 785.0000 1.0000
48.1200 815.0000 1.0000
48.1300 783.0000 1.0000
48.1400 734.0000 1.0000
48.1500 754.0000 1.0000
48.1600 786.0000 1.0000
48.1700 737.0000 1.0000
48.1800 764.0000 1.0000
48.1900 732.0000 1.0000
48.2000 723.0000 1.0000
48.2100 761.0000 1.0000
48.2200 763.0000 1.0000
48.2300 780.0000 1.0000
48.2400 763.0000 1.0000
48.2500 777.0000 1.0000
48.2600 752.0000 1.0000
48.2700 757.0000 1.0000
48.2800 744.0000 1.0000
48.2900 748.0000 1.0000
48.3000 765.0000 1.0000
48.3100 751.0000 1.0000
48.3200 762.0000 1.0000
48.3300 784.0000 1.0000
48.3400 761.0000 1.0000
48.3500 730.0000 1.0000
48.3600 743.0000 1.0000
48.3700 758.0000 1.0000
48.3800 763.0000 1.0000
48.3900 764.0000 1.0000
48.4000 727.0000 1.0000
48.4100 771.0000 1.0000
48.4200 747.0000 1.0000
48.4300 753.0000 1.0000
48.4400 762.0000 1.0000
48.4500 720.0000 1.0000
48.4600 777.0000 1.0000
48.4700 733.0000 1.0000
48.4800 778.0000 1.0000
48.4900 785.0000 1.0000
48.5000 737.0000 1.0000
48.5100 714.0000 1.0000
48.5200 744.0000 1.0000
48.5300 756.0000 1.0000
48.5400 765.0000 1.0000
48.5500 755.0000 1.0000
48.5600 773.0000 1.0000
48.5700 766.0000 1.0000
48.5800 732.0000 1.0000
48.5900 718.0000 1.0000
48.6000 721.0000 1.0000
48.6100 741.0000 1.0000
48.6200 744.0000 1.0000
48.6300 720.0000 1.0000
48.6400 725.0000 1.0000
48.6500 702.0000 1.0000
48.6600 740.0000 1.0000
48.6700 763.0000 1.0000
48.6800 763.0000 1.0000
48.6900 758.0000 1.0000
48.7000 753.0000 1.0000
48.7100 742.0000 1.0000
48.7200 767.0000 1.0000
48.7300 725.0000 1.0000
48.7400 769.0000 1.0000
48.7500 766.0000 1.0000
48.7600 746.0000 1.0000
48.7700 752.0000 1.0000
48.7800 729.0000 1.0000
48.7900 741.0000 1.0000
48.8000 709.0000 1.0000
48.8100 760.0000 1.0000
48.8200 738.0000 1.0000
48.8300 730.0000 1.0000
48.8400 753.0000 1.0000
48.8500 774.0000 1.0000
48.8600 713.0000 1.0000
48.8700 761.0000 1.0000
48.8800 705.0000 1.0000
48.8900 745.0000 1.0000
48.9000 728.0000 1.0000
48.9100 691.0000 1.0000
48.9200 694.0000 1.0000
48.9300 709.0000 1.0000
48.9400 753.0000 1.0000
48.9500 692.0000 1.0000
48.9600 703.0000 1.0000
48.9700 751.0000 1.0000
48.9800 757.0000 1.0000
48.9900 741.0000 1.0000
49.0000 724.0000 1.0000
49.0100 755.0000 1.0000
49.0200 709.0000 1.0000
49.0300 713.0000 1.0000
49.0400 741.0000 1.0000
49.0500 726.0000 1.0000
49.0600 729.0000 1.0000
49.0700 711.0000 1.0000
49.0800 730.0000 1.0000
49.0900 747.0000 1.0000
49.1000 746.0000 1.0000
49.1100 765.0000 1.0000
49.1200 716.0000 1.0000
49.1300 712.0000 1.0000
49.1400 741.0000 1.0000
49.1500 762.0000 1.0000
49.1600 749.0000 1.0000
49.1700 758.0000 1.0000
49.1800 732.0000 1.0000
49.1900 715.0000 1.0000
49.2000 728.0000 1.0000
49.2100 774.0000 1.0000
49.2200 714.0000 1.0000
49.2300 735.0000 1.0000
49.2400 750.0000 1.0000
49.2500 743.0000 1.0000
49.2600 721.0000 1.0000
49.2700 794.0000 1.0000
49.2800 762.0000 1.0000
49.2900 757.0000 1.0000
49.3000 729.0000 1.0000
49.3100 778.0000 1.0000
49.3200 736.0000 1.0000
49.3300 752.0000 1.0000
49.3400 711.0000 1.0000
49.3500 663.0000 1.0000
49.3600 719.0000 1.0000
49.3700 707.0000 1.0000
49.3800 680.0000 1.0000
49.3900 767.0000 1.0000
49.4000 757.0000 1.0000
49.4100 746.0000 1.0000
49.4200 759.0000 1.0000
49.4300 746.0000 1.0000
49.4400 798.0000 1.0000
49.4500 733.0000 1.0000
49.4600 686.0000 1.0000
49.4700 724.0000 1.0000
49.4800 771.0000 1.0000
49.4900 702.0000 1.0000
49.5000 757.0000 1.0000
49.5100 736.0000 1.0000
49.5200 744.0000 1.0000
49.5300 717.0000 1.0000
49.5400 728.0000 1.0000
49.5500 703.0000 1.0000
49.5600 739.0000 1.0000
49.5700 734.0000 1.0000
49.5800 740.0000 1.0000
49.5900 713.0000 1.0000
49.6000 739.0000 1.0000
49.6100 755.0000 1.0000
49.6200 702.0000 1.0000
49.6300 717.0000 1.0000
49.6400 720.0000 1.0000
49.6500 735.0000 1.0000
49.6600 711.0000 1.0000
49.6700 704.0000 1.0000
49.6800 744.0000 1.0000
49.6900 728.0000 1.0000
49.7000 722.0000 1.0000
49.7100 700.0000 1.0000
49.7200 715.0000 1.0000
49.7300 737.0000 1.0000
49.7400 745.0000 1.0000
49.7500 695.0000 1.0000
49.7600 716.0000 1.0000
49.7700 736.0000 1.0000
49.7800 745.0000 1.0000
49.7900 707.0000 1.0000
49.8000 755.0000 1.0000
49.8100 748.0000 1.0000
49.8200 724.0000 1.0000
49.8300 730.0000 1.0000
49.8400 767.0000 1.0000
49.8500 749.0000 1.0000
49.8600 766.0000 1.0000
49.8700 715.0000 1.0000
49.8800 727.0000 1.0000
49.8900 740.0000 1.0000
49.9000 670.0000 1.0000
49.9100 723.0000 1.0000
49.9200 724.0000 1.0000
49.9300 746.0000 1.0000
49.9400 755.0000 1.0000
49.9500 724.0000 1.0000
49.9600 727.0000 1.0000
49.9700 743.0000 1.0000
49.9800 719.0000 1.0000
49.9900 709.0000 1.0000
50.0000 697.0000 1.0000
50.0100 686.0000 1.0000
50.0200 704.0000 1.0000
50.0300 708.0000 1.0000
50.0400 714.0000 1.0000
50.0500 748.0000 1.0000
50.0600 740.0000 1.0000
50.0700 746.0000 1.0000
50.0800 722.0000 1.0000
50.0900 719.0000 1.0000
50.1000 728.0000 1.0000
50.1100 763.0000 1.0000
50.1200 736.0000 1.0000
50.1300 756.0000 1.0000
50.1400 754.0000 1.0000
50.1500 728.0000 1.0000
50.1600 757.0000 1.0000
50.1700 729.0000 1.0000
50.1800 782.0000 1.0000
50.1900 731.0000 1.0000
50.2000 749.0000 1.0000
50.2100 747.0000 1.0000
50.2200 733.0000 1.0000
50.2300 738.0000 1.0000
50.2400 760.0000 1.0000
50.2500 753.0000 1.0000
50.2600 738.0000 1.0000
50.2700 724.0000 1.0000
50.2800 756.0000 1.0000
50.2900 719.0000 1.0000
50.3000 706.0000 1.0000
50.3100 726.0000 1.0000
50.3200 740.0000 1.0000
50.3300 767.0000 1.0000
50.3400 696.0000 1.0000
50.3500 737.0000 1.0000
50.3600 764.0000 1.0000
50.3700 745.0000 1.0000
50.3800 751.0000 1.0000
50.3900 768.0000 1.0000
50.4000 738.0000 1.0000
50.4100 738.0000 1.0000
50.4200 725.0000 1.0000
50.4300 759.0000 1.0000
50.4400 764.0000 1.0000
50.4500 766.0000 1.0000
50.4600 775.0000 1.0000
50.4700 774.0000 1.0000
50.4800 749.0000 1.0000
50.4900 723.0000 1.0000
50.5000 721.0000 1.0000
50.5100 758.0000 1.0000
50.5200 714.0000 1.0000
50.5300 750.0000 1.0000
50.5400 735.0000 1.0000
50.5500 735.0000 1.0000
50.5600 767.0000 1.0000
50.5700 776.0000 1.0000
50.5800 745.0000 1.0000
50.5900 747.0000 1.0000
50.6000 723.0000 1.0000
50.6100 754.0000 1.0000
50.6200 696.0000 1.0000
50.6300 740.0000 1.0000
50.6400 753.0000 1.0000
50.6500 695.0000 1.0000
50.6600 741.0000 1.0000
50.6700 748.0000 1.0000
50.6800 767.0000 1.0000
50.6900 722.0000 1.0000
50.7000 736.0000 1.0000
50.7100 745.0000 1.0000
50.7200 769.0000 1.0000
50.7300 746.0000 1.0000
50.7400 721.0000 1.0000
50.7500 691.0000 1.0000
50.7600 694.0000 1.0000
50.7700 726.0000 1.0000
50.7800 696.0000 1.0000
50.7900 720.0000 1.0000
50.8000 730.0000 1.0000
50.8100 732.0000 1.0000
50.8200 757.0000 1.0000
50.8300 748.0000 1.0000
50.8400 707.0000 1.0000
50.8500 716.0000 1.0000
50.8600 718.0000 1.0000
50.8700 733.0000 1.0000
50.8800 721.0000 1.0000
50.8900 715.0000 1.0000
50.9000 744.0000 1.0000
50.9100 733.0000 1.0000
50.9200 765.0000 1.0000
50.9300 744.0000 1.0000
50.9400 772.0000 1.0000
50.9500 717.0000 1.0000
50.9600 735.0000 1.0000
50.9700 704.0000 1.0000
50.9800 749.0000 1.0000
50.9900 739.0000 1.0000
51.0000 769.0000 1.0000
51.0100 713.0000 1.0000
51.0200 762.0000 1.0000
51.0300 726.0000 1.0000
51.0400 773.0000 1.0000
51.0500 727.0000 1.0000
51.0600 777.0000 1.0000
51.0700 812.0000 1.0000
51.0800 719.0000 1.0000
51.0900 750.0000 1.0000
51.1000 793.0000 1.0000
51.1100 737.0000 1.0000
51.1200 687.0000 1.0000
51.1300 700.0000 1.0000
51.1400 758.0000 1.0000
51.1500 746.0000 1.0000
51.1600 727.0000 1.0000
51.1700 733.0000 1.0000
51.1800 774.0000 1.0000
51.1900 737.0000 1.0000
51.2000 744.0000 1.0000
51.2100 720.0000 1.0000
51.2200 701.0000 1.0000
51.2300 727.0000 1.0000
51.2400 753.0000 1.0000
51.2500 731.0000 1.0000
51.2600 759.0000 1.0000
51.2700 724.0000 1.0000
51.2800 755.0000 1.0000
51.2900 780.0000 1.0000
51.3000 769.0000 1.0000
51.3100 776.0000 1.0000
51.3200 748.0000 1.0000
51.3300 770.0000 1.0000
51.3400 730.0000 1.0000
51.3500 759.0000 1.0000
51.3600 733.0000 1.0000
51.3700 712.0000 1.0000
51.3800 745.0000 1.0000
51.3900 797.0000 1.0000
51.4000 745.0000 1.0000
51.4100 752.0000 1.0000
51.4200 759.0000 1.0000
51.4300 736.0000 1.0000
51.4400 783.0000 1.0000
51.4500 765.0000 1.0000
51.4600 707.0000 1.0000
51.4700 737.0000 1.0000
51.4800 781.0000 1.0000
51.4900 708.0000 1.0000
51.5000 787.0000 1.0000
51.5100 779.0000 1.0000
51.5200 740.0000 1.0000
51.5300 751.0000 1.0000
51.5400 733.0000 1.0000
51.5500 737.0000 1.0000
51.5600 782.0000 1.0000
51.5700 811.0000 1.0000
51.5800 795.0000 1.0000
51.5900 766.0000 1.0000
51.6000 788.0000 1.0000
51.6100 783.0000 1.0000
51.6200 761.0000 1.0000
51.6300 765.0000 1.0000
51.6400 756.0000 1.0000
51.6500 732.0000 1.0000
51.6600 754.0000 1.0000
51.6700 738.0000 1.0000
51.6800 774.0000 1.0000
51.6900 779.0000 1.0000
51.7000 708.0000 1.0000
51.7100 780.0000 1.0000
51.7200 762.0000 1.0000
51.7300 809.0000 1.0000
51.7400 775.0000 1.0000
51.7500 739.0000 1.0000
51.7600 815.0000 1.0000
51.7700 793.0000 1.0000
51.7800 799.0000 1.0000
51.7900 794.0000 1.0000
51.8000 788.0000 1.0000
51.8100 769.0000 1.0000
51.8200 782.0000 1.0000
51.8300 812.0000 1.0000
51.8400 814.0000 1.0000
51.8500 775.0000 1.0000
51.8600 811.0000 1.0000
51.8700 800.0000 1.0000
51.8800 863.0000 1.0000
51.8900 827.0000 1.0000
51.9000 880.0000 1.0000
51.9100 903.0000 1.0000
51.9200 885.0000 1.0000
51.9300 891.0000 1.0000
51.9400 901.0000 1.0000
51.9500 903.0000 1.0000
51.9600 937.0000 1.0000
51.9700 922.0000 1.0000
51.9800 930.0000 1.0000
51.9900 986.0000 1.0000
52.0000 969.0000 1.0000
52.0100 1060.0000 1.0000
52.0200 1070.0000 1.0000
52.0300 1116.0000 1.0000
52.0400 1103.0000 1.0000
52.0500 1114.0000 1.0000
52.0600 1220.0000 1.0000
52.0700 1266.0000 1.0000
52.0800 1265.0000 1.0000
52.0900 1252.0000 1.0000
52.1000 1346.0000 1.0000
52.1100 1378.0000 1.0000
52.1200 1494.0000 1.0000
52.1300 1538.0000 1.0000
52.1400 1621.0000 1.0000
52.1500 1680.0000 1.0000
52.1600 1860.0000 1.0000
52.1700 1974.0000 1.0000
52.1800 2081.0000 1.0000
52.1900 2226.0000 1.0000
52.2000 2345.0000 1.0000
52.2100 2533.0000 1.0000
52.2200 2816.0000 1.0000
52.2300 3022.0000 1.0000
52.2400 3292.0000 1.0000
52.2500 3565.0000 1.0000
52.2600 3839.0000 1.0000
52.2700 4017.0000 1.0000
52.2800 4393.0000 1.0000
52.2900 4486.0000 1.0000
52.3000 4553.0000 1.0000
52.3100 4494.0000 1.0000
52.3200 4700.0000 1.0000
52.3300 4607.0000 1.0000
52.3400 4479.0000 1.0000
52.3500 4543.0000 1.0000
52.3600 4323.0000 1.0000
52.3700 4223.0000 1.0000
52.3800 4043.0000 1.0000
52.3900 3887.0000 1.0000
52.4000 3874.0000 1.0000
52.4100 3833.0000 1.0000
52.4200 3685.0000 1.0000
52.4300 3620.0000 1.0000
52.4400 3619.0000 1.0000
52.4500 3420.0000 1.0000
52.4600 3358.0000 1.0000
52.4700 3169.0000 1.0000
52.4800 2999.0000 1.0000
52.4900 2827.0000 1.0000
52.5000 2646.0000 1.0000
52.5100 2428.0000 1.0000
52.5200 2241.0000 1.0000
52.5300 2161.0000 1.0000
52.5400 1946.0000 1.0000
52.5500 1883.0000 1.0000
52.5600 1743.0000 1.0000
52.5700 1738.0000 1.0000
52.5800 1572.0000 1.0000
52.5900 1463.0000 1.0000
52.6000 1416.0000 1.0000
52.6100 1405.0000 1.0000
52.6200 1286.0000 1.0000
52.6300 1267.0000 1.0000
52.6400 1242.0000 1.0000
52.6500 1212.0000 1.0000
52.6600 1099.0000 1.0000
52.6700 1154.0000 1.0000
52.6800 1111.0000 1.0000
52.6900 1087.0000 1.0000
52.7000 1057.0000 1.0000
52.7100 1020.0000 1.0000
52.7200 1045.0000 1.0000
52.7300 985.0000 1.0000
52.7400 973.0000 1.0000
52.7500 914.0000 1.0000
52.7600 952.0000 1.0000
52.7700 935.0000 1.0000
52.7800 898.0000 1.0000
52.7900 865.0000 1.0000
52.8000 883.0000 1.0000
52.8100 941.0000 1.0000
52.8200 872.0000 1.0000
52.8300 876.0000 1.0000
52.8400 863.0000 1.0000
52.8500 868.0000 1.0000
52.8600 858.0000 1.0000
52.8700 834.0000 1.0000
52.8800 786.0000 1.0000
52.8900 798.0000 1.0000
52.9000 806.0000 1.0000
52.9100 831.0000 1.0000
52.9200 836.0000 1.0000
52.9300 839.0000 1.0000
52.9400 794.0000 1.0000
52.9500 777.0000 1.0000
52.9600 781.0000 1.0000
52.9700 789.0000 1.0000
52.9800 768.0000 1.0000
52.9900 801.0000 1.0000
53.0000 800.0000 1.0000
53.0100 792.0000 1.0000
53.0200 808.0000 1.0000
53.0300 766.0000 1.0000
53.0400 766.0000 1.0000
53.0500 782.0000 1.0000
53.0600 781.0000 1.0000
53.0700 793.0000 1.0000
53.0800 769.0000 1.0000
53.0900 744.0000 1.0000
53.1000 788.0000 1.0000
53.1100 727.0000 1.0000
53.1200 766.0000 1.0000
53.1300 725.0000 1.0000
53.1400 724.0000 1.0000
53.1500 729.0000 1.0000
53.1600 767.0000 1.0000
53.1700 754.0000 1.0000
53.1800 758.0000 1.0000
53.1900 787.0000 1.0000
53.2000 782.0000 1.0000
53.2100 742.0000 1.0000
53.2200 713.0000 1.0000
53.2300 753.0000 1.0000
53.2400 768.0000 1.0000
53.2500 710.0000 1.0000
53.2600 701.0000 1.0000
53.2700 742.0000 1.0000
53.2800 749.0000 1.0000
53.2900 747.0000 1.0000
53.3000 737.0000 1.0000
53.3100 754.0000 1.0000
53.3200 801.0000 1.0000
53.3300 760.0000 1.0000
53.3400 734.0000 1.0000
53.3500 715.0000 1.0000
53.3600 765.0000 1.0000
53.3700 722.0000 1.0000
53.3800 775.0000 1.0000
53.3900 756.0000 1.0000
53.4000 753.0000 1.0000
53.4100 732.0000 1.0000
53.4200 729.0000 1.0000
53.4300 712.0000 1.0000
53.4400 682.0000 1.0000
53.4500 720.0000 1.0000
53.4600 750.0000 1.0000
53.4700 723.0000 1.0000
53.4800 707.0000 1.0000
53.4900 679.0000 1.0000
53.5000 770.0000 1.0000
53.5100 725.0000 1.0000
53.5200 749.0000 1.0000
53.5300 751.0000 1.0000
53.5400 744.0000 1.0000
53.5500 744.0000 1.0000
53.5600 748.0000 1.0000
53.5700 735.0000 1.0000
53.5800 720.0000 1.0000
53.5900 718.0000 1.0000
53.6000 729.0000 1.0000
53.6100 733.0000 1.0000
53.6200 704.0000 1.0000
53.6300 688.0000 1.0000
53.6400 706.0000 1.0000
53.6500 691.0000 1.0000
53.6600 715.0000 1.0000
53.6700 672.0000 1.0000
53.6800 708.0000 1.0000
53.6900 702.0000 1.0000
53.7000 711.0000 1.0000
53.7100 716.0000 1.0000
53.7200 689.0000 1.0000
53.7300 679.0000 1.0000
53.7400 673.0000 1.0000
53.7500 706.0000 1.0000
53.7600 708.0000 1.0000
53.7700 710.0000 1.0000
53.7800 688.0000 1.0000
53.7900 695.0000 1.0000
53.8000 736.0000 1.0000
53.8100 739.0000 1.0000
53.8200 776.0000 1.0000
53.8300 709.0000 1.0000
53.8400 709.0000 1.0000
53.8500 720.0000 1.0000
53.8600 767.0000 1.0000
53.8700 714.0000 1.0000
53.8800 723.0000 1.0000
53.8900 676.0000 1.0000
53.9000 711.0000 1.0000
53.9100 733.0000 1.0000
53.9200 708.0000 1.0000
53.9300 727.0000 1.0000
53.9400 747.0000 1.0000
53.9500 693.0000 1.0000
53.9600 692.0000 1.0000
53.9700 699.0000 1.0000
53.9800 679.0000 1.0000
53.9900 706.0000 1.0000
54.0000 747.0000 1.0000
54.0100 740.0000 1.0000
54.0200 702.0000 1.0000
54.0300 683.0000 1.0000
54.0400 684.0000 1.0000
54.0500 735.0000 1.0000
54.0600 694.0000 1.0000
54.0700 713.0000 1.0000
54.0800 714.0000 1.0000
54.0900 736.0000 1.0000
54.1000 731.0000 1.0000
54.1100 677.0000 1.0000
54.1200 706.0000 1.0000
54.1300 716.0000 1.0000
54.1400 736.0000 1.0000
54.1500 695.0000 1.0000
54.1600 724.0000 1.0000
54.1700 719.0000 1.0000
54.1800 706.0000 1.0000
54.1900 715.0000 1.0000
54.2000 675.0000 1.0000
54.2100 739.0000 1.0000
54.2200 750.0000 1.0000
54.2300 713.0000 1.0000
54.2400 744.0000 1.0000
54.2500 714.0000 1.0000
54.2600 691.0000 1.0000
54.2700 714.0000 1.0000
54.2800 714.0000 1.0000
54.2900 679.0000 1.0000
54.3000 704.0000 1.0000
54.3100 762.0000 1.0000
54.3200 676.0000 1.0000
54.3300 709.0000 1.0000
54.3400 736.0000 1.0000
54.3500 720.0000 1.0000
54.3600 719.0000 1.0000
54.3700 677.0000 1.0000
54.3800 726.0000 1.0000
54.3900 733.0000 1.0000
54.4000 723.0000 1.0000
54.4100 717.0000 1.0000
54.4200 744.0000 1.0000
54.4300 708.0000 1.0000
54.4400 688.0000 1.0000
54.4500 713.0000 1.0000
54.4600 677.0000 1.0000
54.4700 723.0000 1.0000
54.4800 710.0000 1.0000
54.4900 676.0000 1.0000
54.5000 714.0000 1.0000
54.5100 708.0000 1.0000
54.5200 716.0000 1.0000
54.5300 715.0000 1.0000
54.5400 720.0000 1.0000
54.5500 761.0000 1.0000
54.5600 737.0000 1.0000
54.5700 680.0000 1.0000
54.5800 679.0000 1.0000
54.5900 689.0000 1.0000
54.6000 684.0000 1.0000
54.6100 734.0000 1.0000
54.6200 697.0000 1.0000
54.6300 747.0000 1.0000
54.6400 695.0000 1.0000
54.6500 728.0000 1.0000
54.6600 729.0000 1.0000
54.6700 742.0000 1.0000
54.6800 721.0000 1.0000
54.6900 758.0000 1.0000
54.7000 710.0000 1.0000
54.7100 738.0000 1.0000
54.7200 746.0000 1.0000
54.7300 691.0000 1.0000
54.7400 715.0000 1.0000
54.7500 709.0000 1.0000
54.7600 716.0000 1.0000
54.7700 724.0000 1.0000
54.7800 730.0000 1.0000
54.7900 760.0000 1.0000
54.8000 748.0000 1.0000
54.8100 738.0000 1.0000
54.8200 736.0000 1.0000
54.8300 751.0000 1.0000
54.8400 726.0000 1.0000
54.8500 739.0000 1.0000
54.8600 734.0000 1.0000
54.8700 730.0000 1.0000
54.8800 762.0000 1.0000
54.8900 788.0000 1.0000
54.9000 726.0000 1.0000
54.9100 780.0000 1.0000
54.9200 784.0000 1.0000
54.9300 806.0000 1.0000
54.9400 746.0000 1.0000
54.9500 767.0000 1.0000
54.9600 772.0000 1.0000
54.9700 748.0000 1.0000
54.9800 761.0000 1.0000
54.9900 786.0000 1.0000
55.0000 742.0000 1.0000
55.0100 781.0000 1.0000
55.0200 806.0000 1.0000
55.0300 785.0000 1.0000
55.0400 804.0000 1.0000
55.0500 795.0000 1.0000
55.0600 784.0000 1.0000
55.0700 821.0000 1.0000
55.0800 767.0000 1.0000
55.0900 820.0000 1.0000
55.1000 845.0000 1.0000
55.1100 837.0000 1.0000
55.1200 851.0000 1.0000
55.1300 851.0000 1.0000
55.1400 877.0000 1.0000
55.1500 887.0000 1.0000
55.1600 887.0000 1.0000
55.1700 946.0000 1.0000
55.1800 883.0000 1.0000
55.1900 852.0000 1.0000
55.2000 950.0000 1.0000
55.2100 906.0000 1.0000
55.2200 924.0000 1.0000
55.2300 953.0000 1.0000
55.2400 971.0000 1.0000
55.2500 1032.0000 1.0000
55.2600 948.0000 1.0000
55.2700 988.0000 1.0000
55.2800 1028.0000 1.0000
55.2900 1065.0000 1.0000
55.3000 1133.0000 1.0000
55.3100 1077.0000 1.0000
55.3200 1113.0000 1.0000
55.3300 1055.0000 1.0000
55.3400 1086.0000 1.0000
55.3500 1069.0000 1.0000
55.3600 1076.0000 1.0000
55.3700 1090.0000 1.0000
55.3800 1112.0000 1.0000
55.3900 1084.0000 1.0000
55.4000 1041.0000 1.0000
55.4100 1001.0000 1.0000
55.4200 1014.0000 1.0000
55.4300 1024.0000 1.0000
55.4400 1021.0000 1.0000
55.4500 997.0000 1.0000
55.4600 1001.0000 1.0000
55.4700 953.0000 1.0000
55.4800 941.0000 1.0000
55.4900 966.0000 1.0000
55.5000 953.0000 1.0000
55.5100 909.0000 1.0000
55.5200 955.0000 1.0000
55.5300 899.0000 1.0000
55.5400 920.0000 1.0000
55.5500 912.0000 1.0000
55.5600 895.0000 1.0000
55.5700 869.0000 1.0000
55.5800 887.0000 1.0000
55.5900 829.0000 1.0000
55.6000 810.0000 1.0000
55.6100 851.0000 1.0000
55.6200 825.0000 1.0000
55.6300 822.0000 1.0000
55.6400 767.0000 1.0000
55.6500 770.0000 1.0000
55.6600 775.0000 1.0000
55.6700 771.0000 1.0000
55.6800 756.0000 1.0000
55.6900 779.0000 1.0000
55.7000 771.0000 1.0000
55.7100 737.0000 1.0000
55.7200 754.0000 1.0000
55.7300 735.0000 1.0000
55.7400 779.0000 1.0000
55.7500 756.0000 1.0000
55.7600 758.0000 1.0000
55.7700 699.0000 1.0000
55.7800 738.0000 1.0000
55.7900 775.0000 1.0000
55.8000 753.0000 1.0000
55.8100 774.0000 1.0000
55.8200 743.0000 1.0000
55.8300 784.0000 1.0000
55.8400 750.0000 1.0000
55.8500 763.0000 1.0000
55.8600 754.0000 1.0000
55.8700 715.0000 1.0000
55.8800 719.0000 1.0000
55.8900 673.0000 1.0000
55.9000 737.0000 1.0000
55.9100 742.0000 1.0000
55.9200 699.0000 1.0000
55.9300 728.0000 1.0000
55.9400 678.0000 1.0000
55.9500 762.0000 1.0000
55.9600 678.0000 1.0000
55.9700 701.0000 1.0000
55.9800 679.0000 1.0000
55.9900 680.0000 1.0000
56.0000 677.0000 1.0000
56.0100 678.0000 1.0000
56.0200 670.0000 1.0000
56.0300 683.0000 1.0000
56.0400 727.0000 1.0000
56.0500 689.0000 1.0000
56.0600 716.0000 1.0000
56.0700 712.0000 1.0000
56.0800 686.0000 1.0000
56.0900 675.0000 1.0000
56.1000 686.0000 1.0000
56.1100 691.0000 1.0000
56.1200 715.0000 1.0000
56.1300 704.0000 1.0000
56.1400 688.0000 1.0000
56.1500 696.0000 1.0000
56.1600 706.0000 1.0000
56.1700 668.0000 1.0000
56.1800 684.0000 1.0000
56.1900 720.0000 1.0000
56.2000 695.0000 1.0000
56.2100 714.0000 1.0000
56.2200 651.0000 1.0000
56.2300 709.0000 1.0000
56.2400 696.0000 1.0000
56.2500 696.0000 1.0000
56.2600 686.0000 1.0000
56.2700 713.0000 1.0000
56.2800 681.0000 1.0000
56.2900 691.0000 1.0000
56.3000 707.0000 1.0000
56.3100 671.0000 1.0000
56.3200 675.0000 1.0000
56.3300 686.0000 1.0000
56.3400 700.0000 1.0000
56.3500 690.0000 1.0000
56.3600 677.0000 1.0000
56.3700 705.0000 1.0000
56.3800 667.0000 1.0000
56.3900 705.0000 1.0000
56.4000 709.0000 1.0000
56.4100 678.0000 1.0000
56.4200 707.0000 1.0000
56.4300 703.0000 1.0000
56.4400 674.0000 1.0000
56.4500 682.0000 1.0000
56.4600 698.0000 1.0000
56.4700 672.0000 1.0000
56.4800 700.0000 1.0000
56.4900 660.0000 1.0000
56.5000 632.0000 1.0000
56.5100 654.0000 1.0000
56.5200 686.0000 1.0000
56.5300 706.0000 1.0000
56.5400 690.0000 1.0000
56.5500 689.0000 1.0000
56.5600 662.0000 1.0000
56.5700 691.0000 1.0000
56.5800 663.0000 1.0000
56.5900 657.0000 1.0000
56.6000 651.0000 1.0000
56.6100 685.0000 1.0000
56.6200 677.0000 1.0000
56.6300 686.0000 1.0000
56.6400 685.0000 1.0000
56.6500 675.0000 1.0000
56.6600 681.0000 1.0000
56.6700 676.0000 1.0000
56.6800 673.0000 1.0000
56.6900 674.0000 1.0000
56.7000 659.0000 1.0000
56.7100 671.0000 1.0000
56.7200 629.0000 1.0000
56.7300 648.0000 1.0000
56.7400 672.0000 1.0000
56.7500 677.0000 1.0000
56.7600 692.0000 1.0000
56.7700 662.0000 1.0000
56.7800 665.0000 1.0000
56.7900 693.0000 1.0000
56.8000 713.0000 1.0000
56.8100 682.0000 1.0000
56.8200 673.0000 1.0000
56.8300 693.0000 1.0000
56.8400 692.0000 1.0000
56.8500 691.0000 1.0000
56.8600 665.0000 1.0000
56.8700 665.0000 1.0000
56.8800 665.0000 1.0000
56.8900 686.0000 1.0000
56.9000 656.0000 1.0000
56.9100 696.0000 1.0000
56.9200 692.0000 1.0000
56.9300 673.0000 1.0000
56.9400 667.0000 1.0000
56.9500 653.0000 1.0000
56.9600 705.0000 1.0000
56.9700 707.0000 1.0000
56.9800 685.0000 1.0000
56.9900 650.0000 1.0000
57.0000 709.0000 1.0000
57.0100 664.0000 1.0000
57.0200 682.0000 1.0000
57.0300 663.0000 1.0000
57.0400 684.0000 1.0000
57.0500 713.0000 1.0000
57.0600 671.0000 1.0000
57.0700 690.0000 1.0000
57.0800 703.0000 1.0000
57.0900 665.0000 1.0000
57.1000 657.0000 1.0000
57.1100 684.0000 1.0000
57.1200 697.0000 1.0000
57.1300 690.0000 1.0000
57.1400 699.0000 1.0000
57.1500 724.0000 1.0000
57.1600 696.0000 1.0000
57.1700 682.0000 1.0000
57.1800 691.0000 1.0000
57.1900 649.0000 1.0000
57.2000 671.0000 1.0000
57.2100 681.0000 1.0000
57.2200 697.0000 1.0000
57.2300 655.0000 1.0000
57.2400 667.0000 1.0000
57.2500 716.0000 1.0000
57.2600 701.0000 1.0000
57.2700 707.0000 1.0000
57.2800 684.0000 1.0000
57.2900 673.0000 1.0000
57.3000 672.0000 1.0000
57.3100 658.0000 1.0000
57.3200 661.0000 1.0000
57.3300 701.0000 1.0000
57.3400 696.0000 1.0000
57.3500 707.0000 1.0000
57.3600 678.0000 1.0000
57.3700 700.0000 1.0000
57.3800 706.0000 1.0000
57.3900 672.0000 1.0000
57.4000 652.0000 1.0000
57.4100 647.0000 1.0000
57.4200 680.0000 1.0000
57.4300 662.0000 1.0000
57.4400 642.0000 1.0000
57.4500 709.0000 1.0000
57.4600 676.0000 1.0000
57.4700 662.0000 1.0000
57.4800 657.0000 1.0000
57.4900 680.0000 1.0000
57.5000 700.0000 1.0000
57.5100 686.0000 1.0000
57.5200 688.0000 1.0000
57.5300 681.0000 1.0000
57.5400 686.0000 1.0000
57.5500 700.0000 1.0000
57.5600 689.0000 1.0000
57.5700 686.0000 1.0000
57.5800 684.0000 1.0000
57.5900 682.0000 1.0000
57.6000 710.0000 1.0000
57.6100 680.0000 1.0000
57.6200 693.0000 1.0000
57.6300 650.0000 1.0000
57.6400 660.0000 1.0000
57.6500 682.0000 1.0000
57.6600 676.0000 1.0000
57.6700 707.0000 1.0000
57.6800 699.0000 1.0000
57.6900 701.0000 1.0000
57.7000 717.0000 1.0000
57.7100 670.0000 1.0000
57.7200 644.0000 1.0000
57.7300 681.0000 1.0000
57.7400 694.0000 1.0000
57.7500 635.0000 1.0000
57.7600 642.0000 1.0000
57.7700 696.0000 1.0000
57.7800 652.0000 1.0000
57.7900 686.0000 1.0000
57.8000 683.0000 1.0000
57.8100 696.0000 1.0000
57.8200 715.0000 1.0000
57.8300 665.0000 1.0000
57.8400 690.0000 1.0000
57.8500 721.0000 1.0000
57.8600 680.0000 1.0000
57.8700 675.0000 1.0000
57.8800 695.0000 1.0000
57.8900 694.0000 1.0000
57.9000 682.0000 1.0000
57.9100 718.0000 1.0000
57.9200 683.0000 1.0000
57.9300 692.0000 1.0000
57.9400 747.0000 1.0000
57.9500 672.0000 1.0000
57.9600 687.0000 1.0000
57.9700 698.0000 1.0000
57.9800 690.0000 1.0000
57.9900 683.0000 1.0000
58.0000 667.0000 1.0000
58.0100 709.0000 1.0000
58.0200 660.0000 1.0000
58.0300 688.0000 1.0000
58.0400 645.0000 1.0000
58.0500 659.0000 1.0000
58.0600 637.0000 1.0000
58.0700 677.0000 1.0000
58.0800 668.0000 1.0000
58.0900 678.0000 1.0000
58.1000 665.0000 1.0000
58.1100 718.0000 1.0000
58.1200 714.0000 1.0000
58.1300 690.0000 1.0000
58.1400 709.0000 1.0000
58.1500 662.0000 1.0000
58.1600 667.0000 1.0000
58.1700 675.0000 1.0000
58.1800 680.0000 1.0000
58.1900 725.0000 1.0000
58.2000 764.0000 1.0000
58.2100 749.0000 1.0000
58.2200 671.0000 1.0000
58.2300 657.0000 1.0000
58.2400 703.0000 1.0000
58.2500 703.0000 1.0000
58.2600 663.0000 1.0000
58.2700 670.0000 1.0000
58.2800 662.0000 1.0000
58.2900 687.0000 1.0000
58.3000 714.0000 1.0000
58.3100 729.0000 1.0000
58.3200 698.0000 1.0000
58.3300 704.0000 1.0000
58.3400 690.0000 1.0000
58.3500 620.0000 1.0000
58.3600 665.0000 1.0000
58.3700 671.0000 1.0000
58.3800 700.0000 1.0000
58.3900 709.0000 1.0000
58.4000 707.0000 1.0000
58.4100 704.0000 1.0000
58.4200 709.0000 1.0000
58.4300 686.0000 1.0000
58.4400 667.0000 1.0000
58.4500 729.0000 1.0000
58.4600 731.0000 1.0000
58.4700 663.0000 1.0000
58.4800 694.0000 1.0000
58.4900 668.0000 1.0000
58.5000 698.0000 1.0000
58.5100 666.0000 1.0000
58.5200 682.0000 1.0000
58.5300 650.0000 1.0000
58.5400 689.0000 1.0000
58.5500 671.0000 1.0000
58.5600 680.0000 1.0000
58.5700 650.0000 1.0000
58.5800 669.0000 1.0000
58.5900 651.0000 1.0000
58.6000 620.0000 1.0000
58.6100 637.0000 1.0000
58.6200 636.0000 1.0000
58.6300 657.0000 1.0000
58.6400 640.0000 1.0000
58.6500 667.0000 1.0000
58.6600 699.0000 1.0000
58.6700 679.0000 1.0000
58.6800 670.0000 1.0000
58.6900 671.0000 1.0000
58.7000 637.0000 1.0000
58.7100 621.0000 1.0000
58.7200 684.0000 1.0000
58.7300 706.0000 1.0000
58.7400 636.0000 1.0000
58.7500 684.0000 1.0000
58.7600 679.0000 1.0000
58.7700 655.0000 1.0000
58.7800 677.0000 1.0000
58.7900 712.0000 1.0000
58.8000 671.0000 1.0000
58.8100 695.0000 1.0000
58.8200 659.0000 1.0000
58.8300 658.0000 1.0000
58.8400 669.0000 1.0000
58.8500 665.0000 1.0000
58.8600 680.0000 1.0000
58.8700 692.0000 1.0000
58.8800 676.0000 1.0000
58.8900 673.0000 1.0000
58.9000 689.0000 1.0000
58.9100 642.0000 1.0000
58.9200 676.0000 1.0000
58.9300 683.0000 1.0000
58.9400 701.0000 1.0000
58.9500 668.0000 1.0000
58.9600 673.0000 1.0000
58.9700 692.0000 1.0000
58.9800 656.0000 1.0000
58.9900 695.0000 1.0000
59.0000 700.0000 1.0000
59.0100 684.0000 1.0000
59.0200 659.0000 1.0000
59.0300 675.0000 1.0000
59.0400 619.0000 1.0000
59.0500 666.0000 1.0000
59.0600 698.0000 1.0000
59.0700 657.0000 1.0000
59.0800 661.0000 1.0000
59.0900 685.0000 1.0000
59.1000 665.0000 1.0000
59.1100 652.0000 1.0000
59.1200 692.0000 1.0000
59.1300 673.0000 1.0000
59.1400 654.0000 1.0000
59.1500 651.0000 1.0000
59.1600 675.0000 1.0000
59.1700 687.0000 1.0000
59.1800 687.0000 1.0000
59.1900 661.0000 1.0000
59.2000 650.0000 1.0000
59.2100 666.0000 1.0000
59.2200 657.0000 1.0000
59.2300 692.0000 1.0000
59.2400 675.0000 1.0000
59.2500 658.0000 1.0000
59.2600 655.0000 1.0000
59.2700 645.0000 1.0000
59.2800 700.0000 1.0000
59.2900 681.0000 1.0000
59.3000 682.0000 1.0000
59.3100 649.0000 1.0000
59.3200 668.0000 1.0000
59.3300 720.0000 1.0000
59.3400 672.0000 1.0000
59.3500 675.0000 1.0000
59.3600 663.0000 1.0000
59.3700 687.0000 1.0000
59.3800 666.0000 1.0000
59.3900 691.0000 1.0000
59.4000 653.0000 1.0000
59.4100 701.0000 1.0000
59.4200 721.0000 1.0000
59.4300 678.0000 1.0000
59.4400 716.0000 1.0000
59.4500 687.0000 1.0000
59.4600 682.0000 1.0000
59.4700 674.0000 1.0000
59.4800 672.0000 1.0000
59.4900 668.0000 1.0000
59.5000 648.0000 1.0000
59.5100 678.0000 1.0000
59.5200 656.0000 1.0000
59.5300 684.0000 1.0000
59.5400 694.0000 1.0000
59.5500 649.0000 1.0000
59.5600 702.0000 1.0000
59.5700 667.0000 1.0000
59.5800 675.0000 1.0000
59.5900 674.0000 1.0000
59.6000 697.0000 1.0000
59.6100 680.0000 1.0000
59.6200 670.0000 1.0000
59.6300 660.0000 1.0000
59.6400 672.0000 1.0000
59.6500 654.0000 1.0000
59.6600 664.0000 1.0000
59.6700 665.0000 1.0000
59.6800 685.0000 1.0000
59.6900 656.0000 1.0000
59.7000 679.0000 1.0000
59.7100 671.0000 1.0000
59.7200 671.0000 1.0000
59.7300 668.0000 1.0000
59.7400 680.0000 1.0000
59.7500 700.0000 1.0000
59.7600 664.0000 1.0000
59.7700 630.0000 1.0000
59.7800 650.0000 1.0000
59.7900 640.0000 1.0000
59.8000 686.0000 1.0000
59.8100 641.0000 1.0000
59.8200 658.0000 1.0000
59.8300 671.0000 1.0000
59.8400 649.0000 1.0000
59.8500 673.0000 1.0000
59.8600 652.0000 1.0000
59.8700 675.0000 1.0000
59.8800 659.0000 1.0000
59.8900 639.0000 1.0000
59.9000 686.0000 1.0000
59.9100 663.0000 1.0000
59.9200 656.0000 1.0000
59.9300 653.0000 1.0000
59.9400 632.0000 1.0000
59.9500 667.0000 1.0000
59.9600 664.0000 1.0000
59.9700 697.0000 1.0000
59.9800 684.0000 1.0000
59.9900 613.0000 1.0000
60.0000 638.0000 1.0000
60.0100 648.0000 1.0000
60.0200 642.0000 1.0000
60.0300 682.0000 1.0000
60.0400 669.0000 1.0000
60.0500 681.0000 1.0000
60.0600 674.0000 1.0000
60.0700 672.0000 1.0000
60.0800 640.0000 1.0000
60.0900 664.0000 1.0000
60.1000 664.0000 1.0000
60.1100 678.0000 1.0000
60.1200 640.0000 1.0000
60.1300 641.0000 1.0000
60.1400 637.0000 1.0000
60.1500 677.0000 1.0000
60.1600 650.0000 1.0000
60.1700 636.0000 1.0000
60.1800 630.0000 1.0000
60.1900 640.0000 1.0000
60.2000 685.0000 1.0000
60.2100 668.0000 1.0000
60.2200 673.0000 1.0000
60.2300 664.0000 1.0000
60.2400 677.0000 1.0000
60.2500 640.0000 1.0000
60.2600 658.0000 1.0000
60.2700 639.0000 1.0000
60.2800 699.0000 1.0000
60.2900 706.0000 1.0000
60.3000 660.0000 1.0000
60.3100 622.0000 1.0000
60.3200 635.0000 1.0000
60.3300 649.0000 1.0000
60.3400 656.0000 1.0000
60.3500 669.0000 1.0000
60.3600 657.0000 1.0000
60.3700 686.0000 1.0000
60.3800 651.0000 1.0000
60.3900 698.0000 1.0000
60.4000 705.0000 1.0000
60.4100 695.0000 1.0000
60.4200 688.0000 1.0000
60.4300 650.0000 1.0000
60.4400 661.0000 1.0000
60.4500 652.0000 1.0000
60.4600 658.0000 1.0000
60.4700 674.0000 1.0000
60.4800 690.0000 1.0000
60.4900 670.0000 1.0000
60.5000 637.0000 1.0000
60.5100 663.0000 1.0000
60.5200 659.0000 1.0000
60.5300 660.0000 1.0000
60.5400 647.0000 1.0000
60.5500 716.0000 1.0000
60.5600 692.0000 1.0000
60.5700 677.0000 1.0000
60.5800 688.0000 1.0000
60.5900 689.0000 1.0000
60.6000 634.0000 1.0000
60.6100 672.0000 1.0000
60.6200 685.0000 1.0000
60.6300 664.0000 1.0000
60.6400 665.0000 1.0000
60.6500 673.0000 1.0000
60.6600 684.0000 1.0000
60.6700 664.0000 1.0000
60.6800 679.0000 1.0000
60.6900 670.0000 1.0000
60.7000 666.0000 1.0000
60.7100 703.0000 1.0000
60.7200 690.0000 1.0000
60.7300 652.0000 1.0000
60.7400 610.0000 1.0000
60.7500 680.0000 1.0000
60.7600 678.0000 1.0000
60.7700 687.0000 1.0000
60.7800 624.0000 1.0000
60.7900 664.0000 1.0000
60.8000 657.0000 1.0000
60.8100 671.0000 1.0000
60.8200 678.0000 1.0000
60.8300 655.0000 1.0000
60.8400 666.0000 1.0000
60.8500 630.0000 1.0000
60.8600 648.0000 1.0000
60.8700 695.0000 1.0000
60.8800 656.0000 1.0000
60.8900 665.0000 1.0000
60.9000 676.0000 1.0000
60.9100 649.0000 1.0000
60.9200 672.0000 1.0000
60.9300 676.0000 1.0000
60.9400 697.0000 1.0000
60.9500 659.0000 1.0000
60.9600 660.0000 1.0000
60.9700 679.0000 1.0000
60.9800 664.0000 1.0000
60.9900 704.0000 1.0000
61.0000 705.0000 1.0000
61.0100 669.0000 1.0000
61.0200 638.0000 1.0000
61.0300 653.0000 1.0000
61.0400 637.0000 1.0000
61.0500 670.0000 1.0000
61.0600 624.0000 1.0000
61.0700 641.0000 1.0000
61.0800 641.0000 1.0000
61.0900 628.0000 1.0000
61.1000 664.0000 1.0000
61.1100 642.0000 1.0000
61.1200 673.0000 1.0000
61.1300 677.0000 1.0000
61.1400 704.0000 1.0000
61.1500 682.0000 1.0000
61.1600 660.0000 1.0000
61.1700 658.0000 1.0000
61.1800 665.0000 1.0000
61.1900 668.0000 1.0000
61.2000 689.0000 1.0000
61.2100 707.0000 1.0000
61.2200 684.0000 1.0000
61.2300 657.0000 1.0000
61.2400 657.0000 1.0000
61.2500 707.0000 1.0000
61.2600 640.0000 1.0000
61.2700 684.0000 1.0000
61.2800 657.0000 1.0000
61.2900 653.0000 1.0000
61.3000 678.0000 1.0000
61.3100 667.0000 1.0000
61.3200 677.0000 1.0000
61.3300 672.0000 1.0000
61.3400 661.0000 1.0000
61.3500 679.0000 1.0000
61.3600 677.0000 1.0000
61.3700 706.0000 1.0000
61.3800 679.0000 1.0000
61.3900 689.0000 1.0000
61.4000 702.0000 1.0000
61.4100 683.0000 1.0000
61.4200 736.0000 1.0000
61.4300 731.0000 1.0000
61.4400 678.0000 1.0000
61.4500 679.0000 1.0000
61.4600 646.0000 1.0000
61.4700 626.0000 1.0000
61.4800 710.0000 1.0000
61.4900 686.0000 1.0000
61.5000 670.0000 1.0000
61.5100 712.0000 1.0000
61.5200 719.0000 1.0000
61.5300 701.0000 1.0000
61.5400 686.0000 1.0000
61.5500 695.0000 1.0000
61.5600 665.0000 1.0000
61.5700 694.0000 1.0000
61.5800 660.0000 1.0000
61.5900 708.0000 1.0000
61.6000 725.0000 1.0000
61.6100 696.0000 1.0000
61.6200 704.0000 1.0000
61.6300 697.0000 1.0000
61.6400 709.0000 1.0000
61.6500 654.0000 1.0000
61.6600 657.0000 1.0000
61.6700 706.0000 1.0000
61.6800 685.0000 1.0000
61.6900 679.0000 1.0000
61.7000 721.0000 1.0000
61.7100 702.0000 1.0000
61.7200 715.0000 1.0000
61.7300 705.0000 1.0000
61.7400 698.0000 1.0000
61.7500 647.0000 1.0000
61.7600 728.0000 1.0000
61.7700 714.0000 1.0000
61.7800 719.0000 1.0000
61.7900 694.0000 1.0000
61.8000 733.0000 1.0000
61.8100 705.0000 1.0000
61.8200 746.0000 1.0000
61.8300 676.0000 1.0000
61.8400 757.0000 1.0000
61.8500 750.0000 1.0000
61.8600 748.0000 1.0000
61.8700 733.0000 1.0000
61.8800 771.0000 1.0000
61.8900 788.0000 1.0000
61.9000 779.0000 1.0000
61.9100 778.0000 1.0000
61.9200 796.0000 1.0000
61.9300 806.0000 1.0000
61.9400 800.0000 1.0000
61.9500 766.0000 1.0000
61.9600 795.0000 1.0000
61.9700 800.0000 1.0000
61.9800 791.0000 1.0000
61.9900 807.0000 1.0000
62.0000 839.0000 1.0000
62.0100 830.0000 1.0000
62.0200 830.0000 1.0000
62.0300 897.0000 1.0000
62.0400 925.0000 1.0000
62.0500 907.0000 1.0000
62.0600 901.0000 1.0000
62.0700 883.0000 1.0000
62.0800 910.0000 1.0000
62.0900 939.0000 1.0000
62.1000 979.0000 1.0000
62.1100 995.0000 1.0000
62.1200 1045.0000 1.0000
62.1300 1055.0000 1.0000
62.1400 1004.0000 1.0000
62.1500 1096.0000 1.0000
62.1600 1084.0000 1.0000
62.1700 1181.0000 1.0000
62.1800 1147.0000 1.0000
62.1900 1147.0000 1.0000
62.2000 1209.0000 1.0000
62.2100 1279.0000 1.0000
62.2200 1265.0000 1.0000
62.2300 1369.0000 1.0000
62.2400 1347.0000 1.0000
62.2500 1394.0000 1.0000
62.2600 1449.0000 1.0000
62.2700 1486.0000 1.0000
62.2800 1531.0000 1.0000
62.2900 1470.0000 1.0000
62.3000 1495.0000 1.0000
62.3100 1543.0000 1.0000
62.3200 1566.0000 1.0000
62.3300 1623.0000 1.0000
62.3400 1615.0000 1.0000
62.3500 1626.0000 1.0000
62.3600 1630.0000 1.0000
62.3700 1594.0000 1.0000
62.3800 1584.0000 1.0000
62.3900 1645.0000 1.0000
62.4000 1578.0000 1.0000
62.4100 1576.0000 1.0000
62.4200 1580.0000 1.0000
62.4300 1527.0000 1.0000
62.4400 1542.0000 1.0000
62.4500 1466.0000 1.0000
62.4600 1440.0000 1.0000
62.4700 1460.0000 1.0000
62.4800 1502.0000 1.0000
62.4900 1528.0000 1.0000
62.5000 1431.0000 1.0000
62.5100 1386.0000 1.0000
62.5200 1375.0000 1.0000
62.5300 1327.0000 1.0000
62.5400 1287.0000 1.0000
62.5500 1240.0000 1.0000
62.5600 1221.0000 1.0000
62.5700 1217.0000 1.0000
62.5800 1203.0000 1.0000
62.5900 1153.0000 1.0000
62.6000 1221.0000 1.0000
62.6100 1109.0000 1.0000
62.6200 1090.0000 1.0000
62.6300 1025.0000 1.0000
62.6400 1076.0000 1.0000
62.6500 1072.0000 1.0000
62.6600 1020.0000 1.0000
62.6700 999.0000 1.0000
62.6800 968.0000 1.0000
62.6900 918.0000 1.0000
62.7000 929.0000 1.0000
62.7100 933.0000 1.0000
62.7200 925.0000 1.0000
62.7300 905.0000 1.0000
62.7400 927.0000 1.0000
62.7500 918.0000 1.0000
62.7600 841.0000 1.0000
62.7700 819.0000 1.0000
62.7800 851.0000 1.0000
62.7900 786.0000 1.0000
62.8000 830.0000 1.0000
62.8100 796.0000 1.0000
62.8200 809.0000 1.0000
62.8300 795.0000 1.0000
62.8400 805.0000 1.0000
62.8500 831.0000 1.0000
62.8600 826.0000 1.0000
62.8700 807.0000 1.0000
62.8800 736.0000 1.0000
62.8900 755.0000 1.0000
62.9000 783.0000 1.0000
62.9100 797.0000 1.0000
62.9200 763.0000 1.0000
62.9300 701.0000 1.0000
62.9400 728.0000 1.0000
62.9500 705.0000 1.0000
62.9600 760.0000 1.0000
62.9700 801.0000 1.0000
62.9800 795.0000 1.0000
62.9900 738.0000 1.0000
63.0000 727.0000 1.0000
63.0100 716.0000 1.0000
63.0200 782.0000 1.0000
63.0300 767.0000 1.0000
63.0400 775.0000 1.0000
63.0500 760.0000 1.0000
63.0600 687.0000 1.0000
63.0700 710.0000 1.0000
63.0800 720.0000 1.0000
63.0900 727.0000 1.0000
63.1000 729.0000 1.0000
63.1100 719.0000 1.0000
63.1200 726.0000 1.0000
63.1300 738.0000 1.0000
63.1400 698.0000 1.0000
63.1500 715.0000 1.0000
63.1600 706.0000 1.0000
63.1700 694.0000 1.0000
63.1800 709.0000 1.0000
63.1900 714.0000 1.0000
63.2000 706.0000 1.0000
63.2100 723.0000 1.0000
63.2200 707.0000 1.0000
63.2300 741.0000 1.0000
63.2400 701.0000 1.0000
63.2500 739.0000 1.0000
63.2600 683.0000 1.0000
63.2700 659.0000 1.0000
63.2800 669.0000 1.0000
63.2900 699.0000 1.0000
63.3000 704.0000 1.0000
63.3100 679.0000 1.0000
63.3200 729.0000 1.0000
63.3300 691.0000 1.0000
63.3400 713.0000 1.0000
63.3500 686.0000 1.0000
63.3600 666.0000 1.0000
63.3700 755.0000 1.0000
63.3800 731.0000 1.0000
63.3900 708.0000 1.0000
63.4000 708.0000 1.0000
63.4100 684.0000 1.0000
63.4200 664.0000 1.0000
63.4300 690.0000 1.0000
63.4400 669.0000 1.0000
63.4500 682.0000 1.0000
63.4600 643.0000 1.0000
63.4700 679.0000 1.0000
63.4800 683.0000 1.0000
63.4900 680.0000 1.0000
63.5000 717.0000 1.0000
63.5100 671.0000 1.0000
63.5200 676.0000 1.0000
63.5300 701.0000 1.0000
63.5400 697.0000 1.0000
63.5500 697.0000 1.0000
63.5600 705.0000 1.0000
63.5700 660.0000 1.0000
63.5800 662.0000 1.0000
63.5900 714.0000 1.0000
63.6000 659.0000 1.0000
63.6100 691.0000 1.0000
63.6200 693.0000 1.0000
63.6300 706.0000 1.0000
63.6400 672.0000 1.0000
63.6500 626.0000 1.0000
63.6600 678.0000 1.0000
63.6700 693.0000 1.0000
63.6800 697.0000 1.0000
63.6900 683.0000 1.0000
63.7000 709.0000 1.0000
63.7100 695.0000 1.0000
63.7200 662.0000 1.0000
63.7300 626.0000 1.0000
63.7400 692.0000 1.0000
63.7500 691.0000 1.0000
63.7600 717.0000 1.0000
63.7700 633.0000 1.0000
63.7800 686.0000 1.0000
63.7900 687.0000 1.0000
63.8000 696.0000 1.0000
63.8100 700.0000 1.0000
63.8200 632.0000 1.0000
63.8300 636.0000 1.0000
63.8400 665.0000 1.0000
63.8500 642.0000 1.0000
63.8600 690.0000 1.0000
63.8700 689.0000 1.0000
63.8800 634.0000 1.0000
63.8900 643.0000 1.0000
63.9000 674.0000 1.0000
63.9100 667.0000 1.0000
63.9200 657.0000 1.0000
63.9300 665.0000 1.0000
63.9400 655.0000 1.0000
63.9500 678.0000 1.0000
63.9600 672.0000 1.0000
63.9700 678.0000 1.0000
63.9800 697.0000 1.0000
63.9900 699.0000 1.0000
64.0000 689.0000 1.0000
64.0100 662.0000 1.0000
64.0200 676.0000 1.0000
64.0300 697.0000 1.0000
64.0400 668.0000 1.0000
64.0500 671.0000 1.0000
64.0600 664.0000 1.0000
64.0700 674.0000 1.0000
64.0800 675.0000 1.0000
64.0900 663.0000 1.0000
64.1000 655.0000 1.0000
64.1100 704.0000 1.0000
64.1200 692.0000 1.0000
64.1300 664.0000 1.0000
64.1400 661.0000 1.0000
64.1500 695.0000 1.0000
64.1600 731.0000 1.0000
64.1700 675.0000 1.0000
64.1800 672.0000 1.0000
64.1900 707.0000 1.0000
64.2000 694.0000 1.0000
64.2100 705.0000 1.0000
64.2200 717.0000 1.0000
64.2300 717.0000 1.0000
64.2400 683.0000 1.0000
64.2500 682.0000 1.0000
64.2600 720.0000 1.0000
64.2700 717.0000 1.0000
64.2800 668.0000 1.0000
64.2900 724.0000 1.0000
64.3000 705.0000 1.0000
64.3100 693.0000 1.0000
64.3200 669.0000 1.0000
64.3300 706.0000 1.0000
64.3400 746.0000 1.0000
64.3500 706.0000 1.0000
64.3600 689.0000 1.0000
64.3700 733.0000 1.0000
64.3800 694.0000 1.0000
64.3900 722.0000 1.0000
64.4000 756.0000 1.0000
64.4100 699.0000 1.0000
64.4200 752.0000 1.0000
64.4300 732.0000 1.0000
64.4400 746.0000 1.0000
64.4500 761.0000 1.0000
64.4600 739.0000 1.0000
64.4700 762.0000 1.0000
64.4800 740.0000 1.0000
64.4900 750.0000 1.0000
64.5000 743.0000 1.0000
64.5100 809.0000 1.0000
64.5200 744.0000 1.0000
64.5300 774.0000 1.0000
64.5400 745.0000 1.0000
64.5500 800.0000 1.0000
64.5600 802.0000 1.0000
64.5700 789.0000 1.0000
64.5800 782.0000 1.0000
64.5900 836.0000 1.0000
64.6000 811.0000 1.0000
64.6100 813.0000 1.0000
64.6200 853.0000 1.0000
64.6300 875.0000 1.0000
64.6400 849.0000 1.0000
64.6500 888.0000 1.0000
64.6600 873.0000 1.0000
64.6700 875.0000 1.0000
64.6800 892.0000 1.0000
64.6900 822.0000 1.0000
64.7000 840.0000 1.0000
64.7100 915.0000 1.0000
64.7200 907.0000 1.0000
64.7300 936.0000 1.0000
64.7400 954.0000 1.0000
64.7500 929.0000 1.0000
64.7600 898.0000 1.0000
64.7700 905.0000 1.0000
64.7800 926.0000 1.0000
64.7900 954.0000 1.0000
64.8000 867.0000 1.0000
64.8100 993.0000 1.0000
64.8200 875.0000 1.0000
64.8300 905.0000 1.0000
64.8400 905.0000 1.0000
64.8500 977.0000 1.0000
64.8600 844.0000 1.0000
64.8700 862.0000 1.0000
64.8800 883.0000 1.0000
64.8900 933.0000 1.0000
64.9000 889.0000 1.0000
64.9100 892.0000 1.0000
64.9200 901.0000 1.0000
64.9300 865.0000 1.0000
64.9400 846.0000 1.0000
64.9500 821.0000 1.0000
64.9600 842.0000 1.0000
64.9700 852.0000 1.0000
64.9800 814.0000 1.0000
64.9900 800.0000 1.0000
65.0000 740.0000 1.0000
65.0100 779.0000 1.0000
65.0200 811.0000 1.0000
65.0300 762.0000 1.0000
65.0400 795.0000 1.0000
65.0500 796.0000 1.0000
65.0600 767.0000 1.0000
65.0700 772.0000 1.0000
65.0800 752.0000 1.0000
65.0900 748.0000 1.0000
65.1000 828.0000 1.0000
65.1100 796.0000 1.0000
65.1200 767.0000 1.0000
65.1300 766.0000 1.0000
65.1400 785.0000 1.0000
65.1500 752.0000 1.0000
65.1600 759.0000 1.0000
65.1700 754.0000 1.0000
65.1800 775.0000 1.0000
65.1900 749.0000 1.0000
65.2000 756.0000 1.0000
65.2100 718.0000 1.0000
65.2200 707.0000 1.0000
65.2300 771.0000 1.0000
65.2400 707.0000 1.0000
65.2500 709.0000 1.0000
65.2600 721.0000 1.0000
65.2700 740.0000 1.0000
65.2800 714.0000 1.0000
65.2900 716.0000 1.0000
65.3000 715.0000 1.0000
65.3100 751.0000 1.0000
65.3200 708.0000 1.0000
65.3300 728.0000 1.0000
65.3400 681.0000 1.0000
65.3500 710.0000 1.0000
65.3600 690.0000 1.0000
65.3700 685.0000 1.0000
65.3800 670.0000 1.0000
65.3900 687.0000 1.0000
65.4000 706.0000 1.0000
65.4100 696.0000 1.0000
65.4200 740.0000 1.0000
65.4300 691.0000 1.0000
65.4400 717.0000 1.0000
65.4500 725.0000 1.0000
65.4600 685.0000 1.0000
65.4700 686.0000 1.0000
65.4800 687.0000 1.0000
65.4900 709.0000 1.0000
65.5000 685.0000 1.0000
65.5100 686.0000 1.0000
65.5200 690.0000 1.0000
65.5300 701.0000 1.0000
65.5400 711.0000 1.0000
65.5500 735.0000 1.0000
65.5600 708.0000 1.0000
65.5700 697.0000 1.0000
65.5800 668.0000 1.0000
65.5900 755.0000 1.0000
65.6000 732.0000 1.0000
65.6100 730.0000 1.0000
65.6200 712.0000 1.0000
65.6300 711.0000 1.0000
65.6400 728.0000 1.0000
65.6500 707.0000 1.0000
65.6600 713.0000 1.0000
65.6700 705.0000 1.0000
65.6800 743.0000 1.0000
65.6900 790.0000 1.0000
65.7000 737.0000 1.0000
65.7100 706.0000 1.0000
65.7200 705.0000 1.0000
65.7300 743.0000 1.0000
65.7400 764.0000 1.0000
65.7500 715.0000 1.0000
65.7600 718.0000 1.0000
65.7700 747.0000 1.0000
65.7800 738.0000 1.0000
65.7900 742.0000 1.0000
65.8000 719.0000 1.0000
65.8100 755.0000 1.0000
65.8200 781.0000 1.0000
65.8300 773.0000 1.0000
65.8400 747.0000 1.0000
65.8500 753.0000 1.0000
65.8600 782.0000 1.0000
65.8700 786.0000 1.0000
65.8800 787.0000 1.0000
65.8900 829.0000 1.0000
65.9000 835.0000 1.0000
65.9100 798.0000 1.0000
65.9200 843.0000 1.0000
65.9300 864.0000 1.0000
65.9400 891.0000 1.0000
65.9500 912.0000 1.0000
65.9600 876.0000 1.0000
65.9700 880.0000 1.0000
65.9800 898.0000 1.0000
65.9900 934.0000 1.0000
66.0000 919.0000 1.0000
66.0100 939.0000 1.0000
66.0200 984.0000 1.0000
66.0300 977.0000 1.0000
66.0400 988.0000 1.0000
66.0500 1026.0000 1.0000
66.0600 1027.0000 1.0000
66.0700 1112.0000 1.0000
66.0800 1055.0000 1.0000
66.0900 1194.0000 1.0000
66.1000 1201.0000 1.0000
66.1100 1203.0000 1.0000
66.1200 1304.0000 1.0000
66.1300 1332.0000 1.0000
66.1400 1387.0000 1.0000
66.1500 1457.0000 1.0000
66.1600 1497.0000 1.0000
66.1700 1611.0000 1.0000
66.1800 1740.0000 1.0000
66.1900 1788.0000 1.0000
66.2000 1924.0000 1.0000
66.2100 1921.0000 1.0000
66.2200 2068.0000 1.0000
66.2300 2173.0000 1.0000
66.2400 2315.0000 1.0000
66.2500 2359.0000 1.0000
66.2600 2500.0000 1.0000
66.2700 2453.0000 1.0000
66.2800 2550.0000 1.0000
66.2900 2490.0000 1.0000
66.3000 2534.0000 1.0000
66.3100 2567.0000 1.0000
66.3200 2487.0000 1.0000
66.3300 2402.0000 1.0000
66.3400 2386.0000 1.0000
66.3500 2326.0000 1.0000
66.3600 2357.0000 1.0000
66.3700 2315.0000 1.0000
66.3800 2257.0000 1.0000
66.3900 2174.0000 1.0000
66.4000 2186.0000 1.0000
66.4100 2159.0000 1.0000
66.4200 2132.0000 1.0000
66.4300 2165.0000 1.0000
66.4400 2139.0000 1.0000
66.4500 2120.0000 1.0000
66.4600 2004.0000 1.0000
66.4700 2048.0000 1.0000
66.4800 2016.0000 1.0000
66.4900 2041.0000 1.0000
66.5000 1857.0000 1.0000
66.5100 1836.0000 1.0000
66.5200 1764.0000 1.0000
66.5300 1707.0000 1.0000
66.5400 1603.0000 1.0000
66.5500 1561.0000 1.0000
66.5600 1543.0000 1.0000
66.5700 1479.0000 1.0000
66.5800 1378.0000 1.0000
66.5900 1352.0000 1.0000
66.6000 1327.0000 1.0000
66.6100 1277.0000 1.0000
66.6200 1253.0000 1.0000
66.6300 1139.0000 1.0000
66.6400 1135.0000 1.0000
66.6500 1065.0000 1.0000
66.6600 1069.0000 1.0000
66.6700 989.0000 1.0000
66.6800 938.0000 1.0000
66.6900 944.0000 1.0000
66.7000 974.0000 1.0000
66.7100 923.0000 1.0000
66.7200 949.0000 1.0000
66.7300 924.0000 1.0000
66.7400 916.0000 1.0000
66.7500 902.0000 1.0000
66.7600 896.0000 1.0000
66.7700 849.0000 1.0000
66.7800 863.0000 1.0000
66.7900 835.0000 1.0000
66.8000 866.0000 1.0000
66.8100 863.0000 1.0000
66.8200 828.0000 1.0000
66.8300 815.0000 1.0000
66.8400 761.0000 1.0000
66.8500 769.0000 1.0000
66.8600 802.0000 1.0000
66.8700 734.0000 1.0000
66.8800 719.0000 1.0000
66.8900 682.0000 1.0000
66.9000 701.0000 1.0000
66.9100 665.0000 1.0000
66.9200 699.0000 1.0000
66.9300 726.0000 1.0000
66.9400 726.0000 1.0000
66.9500 700.0000 1.0000
66.9600 678.0000 1.0000
66.9700 762.0000 1.0000
66.9800 714.0000 1.0000
66.9900 722.0000 1.0000
67.0000 693.0000 1.0000
67.0100 678.0000 1.0000
67.0200 721.0000 1.0000
67.0300 681.0000 1.0000
67.0400 635.0000 1.0000
67.0500 668.0000 1.0000
67.0600 709.0000 1.0000
67.0700 716.0000 1.0000
67.0800 685.0000 1.0000
67.0900 691.0000 1.0000
67.1000 686.0000 1.0000
67.1100 658.0000 1.0000
67.1200 636.0000 1.0000
67.1300 672.0000 1.0000
67.1400 625.0000 1.0000
67.1500 661.0000 1.0000
67.1600 701.0000 1.0000
67.1700 646.0000 1.0000
67.1800 679.0000 1.0000
67.1900 682.0000 1.0000
67.2000 652.0000 1.0000
67.2100 659.0000 1.0000
67.2200 653.0000 1.0000
67.2300 662.0000 1.0000
67.2400 669.0000 1.0000
67.2500 630.0000 1.0000
67.2600 670.0000 1.0000
67.2700 665.0000 1.0000
67.2800 671.0000 1.0000
67.2900 677.0000 1.0000
67.3000 629.0000 1.0000
67.3100 641.0000 1.0000
67.3200 644.0000 1.0000
67.3300 632.0000 1.0000
67.3400 679.0000 1.0000
67.3500 628.0000 1.0000
67.3600 610.0000 1.0000
67.3700 625.0000 1.0000
67.3800 634.0000 1.0000
67.3900 627.0000 1.0000
67.4000 633.0000 1.0000
67.4100 652.0000 1.0000
67.4200 629.0000 1.0000
67.4300 591.0000 1.0000
67.4400 610.0000 1.0000
67.4500 611.0000 1.0000
67.4600 632.0000 1.0000
67.4700 644.0000 1.0000
67.4800 662.0000 1.0000
67.4900 617.0000 1.0000
67.5000 603.0000 1.0000
67.5100 614.0000 1.0000
67.5200 595.0000 1.0000
67.5300 635.0000 1.0000
67.5400 650.0000 1.0000
67.5500 572.0000 1.0000
67.5600 651.0000 1.0000
67.5700 620.0000 1.0000
67.5800 650.0000 1.0000
67.5900 639.0000 1.0000
67.6000 650.0000 1.0000
67.6100 622.0000 1.0000
67.6200 607.0000 1.0000
67.6300 652.0000 1.0000
67.6400 619.0000 1.0000
67.6500 655.0000 1.0000
67.6600 644.0000 1.0000
67.6700 604.0000 1.0000
67.6800 608.0000 1.0000
67.6900 640.0000 1.0000
67.7000 588.0000 1.0000
67.7100 602.0000 1.0000
67.7200 654.0000 1.0000
67.7300 603.0000 1.0000
67.7400 643.0000 1.0000
67.7500 678.0000 1.0000
67.7600 604.0000 1.0000
67.7700 628.0000 1.0000
67.7800 640.0000 1.0000
67.7900 639.0000 1.0000
67.8000 587.0000 1.0000
67.8100 590.0000 1.0000
67.8200 571.0000 1.0000
67.8300 620.0000 1.0000
67.8400 641.0000 1.0000
67.8500 636.0000 1.0000
67.8600 623.0000 1.0000
67.8700 633.0000 1.0000
67.8800 567.0000 1.0000
67.8900 596.0000 1.0000
67.9000 662.0000 1.0000
67.9100 634.0000 1.0000
67.9200 617.0000 1.0000
67.9300 612.0000 1.0000
67.9400 605.0000 1.0000
67.9500 618.0000 1.0000
67.9600 624.0000 1.0000
67.9700 614.0000 1.0000
67.9800 674.0000 1.0000
67.9900 618.0000 1.0000
68.0000 595.0000 1.0000
68.0100 605.0000 1.0000
68.0200 619.0000 1.0000
68.0300 599.0000 1.0000
68.0400 597.0000 1.0000
68.0500 580.0000 1.0000
68.0600 600.0000 1.0000
68.0700 573.0000 1.0000
68.0800 583.0000 1.0000
68.0900 617.0000 1.0000
68.1000 595.0000 1.0000
68.1100 636.0000 1.0000
68.1200 603.0000 1.0000
68.1300 605.0000 1.0000
68.1400 558.0000 1.0000
68.1500 572.0000 1.0000
68.1600 618.0000 1.0000
68.1700 603.0000 1.0000
68.1800 591.0000 1.0000
68.1900 614.0000 1.0000
68.2000 592.0000 1.0000
68.2100 603.0000 1.0000
68.2200 631.0000 1.0000
68.2300 584.0000 1.0000
68.2400 551.0000 1.0000
68.2500 581.0000 1.0000
68.2600 595.0000 1.0000
68.2700 590.0000 1.0000
68.2800 588.0000 1.0000
68.2900 580.0000 1.0000
68.3000 644.0000 1.0000
68.3100 627.0000 1.0000
68.3200 602.0000 1.0000
68.3300 597.0000 1.0000
68.3400 624.0000 1.0000
68.3500 578.0000 1.0000
68.3600 581.0000 1.0000
68.3700 616.0000 1.0000
68.3800 576.0000 1.0000
68.3900 606.0000 1.0000
68.4000 638.0000 1.0000
68.4100 637.0000 1.0000
68.4200 623.0000 1.0000
68.4300 607.0000 1.0000
68.4400 585.0000 1.0000
68.4500 593.0000 1.0000
68.4600 623.0000 1.0000
68.4700 579.0000 1.0000
68.4800 596.0000 1.0000
68.4900 631.0000 1.0000
68.5000 614.0000 1.0000
68.5100 605.0000 1.0000
68.5200 607.0000 1.0000
68.5300 605.0000 1.0000
68.5400 633.0000 1.0000
68.5500 588.0000 1.0000
68.5600 613.0000 1.0000
68.5700 622.0000 1.0000
68.5800 624.0000 1.0000
68.5900 609.0000 1.0000
68.6000 580.0000 1.0000
68.6100 609.0000 1.0000
68.6200 658.0000 1.0000
68.6300 594.0000 1.0000
68.6400 621.0000 1.0000
68.6500 608.0000 1.0000
68.6600 621.0000 1.0000
68.6700 571.0000 1.0000
68.6800 579.0000 1.0000
68.6900 605.0000 1.0000
68.7000 618.0000 1.0000
68.7100 615.0000 1.0000
68.7200 624.0000 1.0000
68.7300 600.0000 1.0000
68.7400 557.0000 1.0000
68.7500 604.0000 1.0000
68.7600 599.0000 1.0000
68.7700 604.0000 1.0000
68.7800 601.0000 1.0000
68.7900 581.0000 1.0000
68.8000 613.0000 1.0000
68.8100 584.0000 1.0000
68.8200 586.0000 1.0000
68.8300 631.0000 1.0000
68.8400 593.0000 1.0000
68.8500 582.0000 1.0000
68.8600 638.0000 1.0000
68.8700 593.0000 1.0000
68.8800 610.0000 1.0000
68.8900 557.0000 1.0000
68.9000 572.0000 1.0000
68.9100 536.0000 1.0000
68.9200 578.0000 1.0000
68.9300 564.0000 1.0000
68.9400 560.0000 1.0000
68.9500 555.0000 1.0000
68.9600 611.0000 1.0000
68.9700 584.0000 1.0000
68.9800 602.0000 1.0000
68.9900 584.0000 1.0000
69.0000 596.0000 1.0000
69.0100 610.0000 1.0000
69.0200 641.0000 1.0000
69.0300 621.0000 1.0000
69.0400 601.0000 1.0000
69.0500 567.0000 1.0000
69.0600 610.0000 1.0000
69.0700 570.0000 1.0000
69.0800 577.0000 1.0000
69.0900 602.0000 1.0000
69.1000 590.0000 1.0000
69.1100 602.0000 1.0000
69.1200 581.0000 1.0000
69.1300 588.0000 1.0000
69.1400 606.0000 1.0000
69.1500 623.0000 1.0000
69.1600 598.0000 1.0000
69.1700 593.0000 1.0000
69.1800 604.0000 1.0000
69.1900 560.0000 1.0000
69.2000 613.0000 1.0000
69.2100 596.0000 1.0000
69.2200 572.0000 1.0000
69.2300 605.0000 1.0000
69.2400 587.0000 1.0000
69.2500 569.0000 1.0000
69.2600 615.0000 1.0000
69.2700 574.0000 1.0000
69.2800 576.0000 1.0000
69.2900 571.0000 1.0000
69.3000 572.0000 1.0000
69.3100 597.0000 1.0000
69.3200 587.0000 1.0000
69.3300 612.0000 1.0000
69.3400 571.0000 1.0000
69.3500 601.0000 1.0000
69.3600 589.0000 1.0000
69.3700 546.0000 1.0000
69.3800 580.0000 1.0000
69.3900 594.0000 1.0000
69.4000 581.0000 1.0000
69.4100 575.0000 1.0000
69.4200 603.0000 1.0000
69.4300 548.0000 1.0000
69.4400 571.0000 1.0000
69.4500 601.0000 1.0000
69.4600 592.0000 1.0000
69.4700 584.0000 1.0000
69.4800 581.0000 1.0000
69.4900 605.0000 1.0000
69.5000 625.0000 1.0000
69.5100 608.0000 1.0000
69.5200 564.0000 1.0000
69.5300 603.0000 1.0000
69.5400 562.0000 1.0000
69.5500 580.0000 1.0000
69.5600 581.0000 1.0000
69.5700 632.0000 1.0000
69.5800 606.0000 1.0000
69.5900 601.0000 1.0000
69.6000 579.0000 1.0000
69.6100 622.0000 1.0000
69.6200 620.0000 1.0000
69.6300 621.0000 1.0000
69.6400 566.0000 1.0000
69.6500 620.0000 1.0000
69.6600 569.0000 1.0000
69.6700 601.0000 1.0000
69.6800 613.0000 1.0000
69.6900 584.0000 1.0000
69.7000 589.0000 1.0000
69.7100 582.0000 1.0000
69.7200 583.0000 1.0000
69.7300 559.0000 1.0000
69.7400 583.0000 1.0000
69.7500 597.0000 1.0000
69.7600 555.0000 1.0000
69.7700 593.0000 1.0000
69.7800 590.0000 1.0000
69.7900 604.0000 1.0000
69.8000 562.0000 1.0000
69.8100 600.0000 1.0000
69.8200 574.0000 1.0000
69.8300 635.0000 1.0000
69.8400 583.0000 1.0000
69.8500 565.0000 1.0000
69.8600 603.0000 1.0000
69.8700 584.0000 1.0000
69.8800 628.0000 1.0000
69.8900 606.0000 1.0000
69.9000 568.0000 1.0000
69.9100 583.0000 1.0000
69.9200 578.0000 1.0000
69.9300 607.0000 1.0000
69.9400 574.0000 1.0000
69.9500 572.0000 1.0000
69.9600 591.0000 1.0000
69.9700 567.0000 1.0000
69.9800 585.0000 1.0000
69.9900 606.0000 1.0000
70.0000 583.0000 1.0000
*RAS_INT_END
*RAS_TEMPERATURE_START
*RAS_TEMPERATURE_END
*RAS_DATA_END
