*RAS_DATA_START
*RAS_HEADER_START
*DISP_FMT_X "%.2f"
*DISP_FMT_Y "%.0f"
*DISP_FULLSCALE "14878.0000000000"
*DISP_LINE_COLOR "255.0000000000"
*DISP_LINE_STYLE "0.0000000000"
*DISP_LINE_WIDTH "0.2500000000"
*DISP_NOTE "測定データ-9"
*DISP_OFFSET_Y "0.0000000000"
*DISP_PEAKSEARCH_UNIT_Y "cps"
*DISP_RANGE_BOTTOM "0.0000000000"
*DISP_RANGE_LEFT "20.0000000000"
*DISP_RANGE_LOGCUTOFF "0.0100000000"
*DISP_RANGE_RIGHT "70.0000000000"
*DISP_RANGE_TOP "14878.0000000000"
*DISP_SCALE_MODE_Y "0.0000000000"
*DISP_TAB_NAME "2θ/θ"
*DISP_TITLE_Y "強度"
*DISP_UNIT_Y "cps"
*DISP_WINDOW_NAME "MSG_MACROENGINE"
*FILE_COMMENT " "
*FILE_MD5 ""
*FILE_MEMO " "
*FILE_OPERATOR "Administrator"
*FILE_SAMPLE " "
*FILE_TYPE "RAS_RAW"
*FILE_USERGROUP "システムマネージャ"
*FILE_VERSION "1.0000000000"
*HW_ATTACHMENT_ID "ATT0025"
*HW_ATTACHMENT_NAME "標準|Standard"
*HW_COUNTER_ID-0 "CUT0025"
*HW_COUNTER_ID-1 "CUT0020"
*HW_COUNTER_ID-2 "CUT0020"
*HW_COUNTER_ID-3 "CSL0021"
*HW_COUNTER_ID-4 "CMC0021"
*HW_COUNTER_NAME-0 "D/teX Ultra|D/teX Ultra"
*HW_COUNTER_NAME-1 "None|None"
*HW_COUNTER_NAME-2 "None|None"
*HW_COUNTER_NAME-3 "BBM|BBM"
*HW_COUNTER_NAME-4 "検出器モノクロメータ|Detector monochromator"
*HW_COUNTER_SELECT_NAME "D/teX Ultra|D/teX Ultra"
*HW_GONIOMETER_ID "GON0023"
*HW_GONIOMETER_NAME "SmartLab|SmartLab"
*HW_GONIOMETER_RADIUS-0 "90.0"
*HW_GONIOMETER_RADIUS-1 "114.0"
*HW_GONIOMETER_RADIUS-2 "190.0"
*HW_GONIOMETER_RADIUS-3 "300.0"
*HW_GONIOMETER_RADIUS-4 "187.0"
*HW_GONIOMETER_RADIUS-5 "300.0"
*HW_GONIOMETER_RADIUS-6 "113.0"
*HW_GONIOMETER_RADIUS-7 "331.0"
*HW_I_OPT_ID-0 "CBO0021"
*HW_I_OPT_ID-1 "ICR0023"
*HW_I_OPT_ID-2 "ISL0021"
*HW_I_OPT_ID-3 "ISO0021"
*HW_I_OPT_ID-4 "IAD0021"
*HW_I_OPT_ID-5 "IPR0001"
*HW_I_OPT_NAME-0 "CBOユニット|CBO unit"
*HW_I_OPT_NAME-1 "標準入射光学ユニット|Standard incident optical unit"
*HW_I_OPT_NAME-2 "標準入射スリットボックス|Standard incident slit box"
*HW_I_OPT_NAME-3 "入射平行スリット|Incident parallel slit"
*HW_I_OPT_NAME-4 "長手制限スリット|Length limiting slit"
*HW_I_OPT_NAME-5 "None|None"
*HW_R_ATTENUATER_AUTOMODE "0"
*HW_R_OPT_ID-0 "RSS0021"
*HW_R_OPT_ID-1 "RCR0023"
*HW_R_OPT_ID-2 "RSO0021"
*HW_R_OPT_ID-3 "RRS0021"
*HW_R_OPT_ID-4 "ATN0021"
*HW_R_OPT_ID-5 "RFL0021"
*HW_R_OPT_ID-6 "RAD0021"
*HW_R_OPT_NAME-0 "標準受光スリットボックス1|Standard receiving slit box # 1"
*HW_R_OPT_NAME-1 "標準受光光学ユニット1|Standard receiving unit # 1"
*HW_R_OPT_NAME-2 "標準受光光学ユニット2|Standard receiving optical unit # 2"
*HW_R_OPT_NAME-3 "標準受光スリットボックス2|Standard receiving slit box # 2"
*HW_R_OPT_NAME-4 "標準アッテネータ|Standard Attenuator"
*HW_R_OPT_NAME-5 "Cu Kβ|Cu K-beta"
*HW_R_OPT_NAME-6 "調整用受光スリット|Alignment receiving slit"
*HW_SAMPLE_HOLDER_ID "SMP0023"
*HW_SAMPLE_HOLDER_NAME "標準Zステージ|Standard Z stage"
*HW_XG_CURRENT_MAX "50"
*HW_XG_CURRENT_MIN "2"
*HW_XG_CURRENT_RESOLUTION "1"
*HW_XG_CURRENT_UNIT "mA"
*HW_XG_FOCUS "1mm x 10mm"
*HW_XG_FOCUS_TYPE "Normal"
*HW_XG_ID ""
*HW_XG_NAME "3kW 封入管(ID:1200)|3kW Sealed tube(ID:1200)"
*HW_XG_TARGET_ATOMIC_NUMBER "29.0000000000"
*HW_XG_TARGET_NAME "Cu"
*HW_XG_TYPE "Hermetic"
*HW_XG_VOLTAGE_MAX "60"
*HW_XG_VOLTAGE_MIN "20"
*HW_XG_VOLTAGE_RESOLUTION "1"
*HW_XG_VOLTAGE_UNIT "kV"
*HW_XG_WATT_MAX "1.500"
*HW_XG_WATT_UNIT "kW"
*HW_XG_WAVE_LENGTH_ALPHA1 "1.540593"
*HW_XG_WAVE_LENGTH_ALPHA2 "1.544414"
*HW_XG_WAVE_LENGTH_BETA "1.392250"
*MEAS_COND_AXIS_NAME-0 "2θ/θ"
*MEAS_COND_AXIS_NAME-1 "2θ"
*MEAS_COND_AXIS_NAME-2 "ω"
*MEAS_COND_AXIS_NAME-3 "Z"
*MEAS_COND_AXIS_NAME-4 "2θ/ω"
*MEAS_COND_AXIS_NAME-5 "θs"
*MEAS_COND_AXIS_NAME-6 "θd"
*MEAS_COND_AXIS_NAME-7 "Ts"
*MEAS_COND_AXIS_NAME-8 "CBO選択スリット"
*MEAS_COND_AXIS_NAME-9 "M"
*MEAS_COND_AXIS_NAME-10 "入射平行スリット"
*MEAS_COND_AXIS_NAME-11 "入射スリット"
*MEAS_COND_AXIS_NAME-12 ""
*MEAS_COND_AXIS_NAME-13 "Zs"
*MEAS_COND_AXIS_NAME-14 "入射光学素子"
*MEAS_COND_AXIS_NAME-15 "長手制限スリット"
*MEAS_COND_AXIS_NAME-16 "センタースリット"
*MEAS_COND_AXIS_NAME-17 "フィルター"
*MEAS_COND_AXIS_NAME-18 "受光スリット1"
*MEAS_COND_AXIS_NAME-19 "受光スリット2"
*MEAS_COND_AXIS_NAME-20 "受光光学素子"
*MEAS_COND_AXIS_NAME-21 "受光平行スリット"
*MEAS_COND_AXIS_NAME-22 "調整用受光スリット"
*MEAS_COND_AXIS_NAME-23 ""
*MEAS_COND_AXIS_NAME-24 ""
*MEAS_COND_AXIS_NAME-25 "Zd"
*MEAS_COND_AXIS_NAME-26 "アッテネータ"
*MEAS_COND_AXIS_NAME-27 "検出器モノクロメータ"
*MEAS_COND_AXIS_NAME-28 "モノクロメータスリット"
*MEAS_COND_AXIS_NAME-29 "プライマリビーム"
*MEAS_COND_AXIS_NAME-30 "PHA"
*MEAS_COND_AXIS_NAME_INTERNAL-0 "TwoThetaTheta"
*MEAS_COND_AXIS_NAME_INTERNAL-1 "TwoTheta"
*MEAS_COND_AXIS_NAME_INTERNAL-2 "Omega"
*MEAS_COND_AXIS_NAME_INTERNAL-3 "Z"
*MEAS_COND_AXIS_NAME_INTERNAL-4 "TwoThetaOmega"
*MEAS_COND_AXIS_NAME_INTERNAL-5 "ThetaS"
*MEAS_COND_AXIS_NAME_INTERNAL-6 "ThetaD"
*MEAS_COND_AXIS_NAME_INTERNAL-7 "Ts"
*MEAS_COND_AXIS_NAME_INTERNAL-8 "CBO"
*MEAS_COND_AXIS_NAME_INTERNAL-9 "CBO-M"
*MEAS_COND_AXIS_NAME_INTERNAL-10 "IncidentSollerSlit"
*MEAS_COND_AXIS_NAME_INTERNAL-11 "IncidentSlitBox"
*MEAS_COND_AXIS_NAME_INTERNAL-12 "IncidentSlitBox-_Axis"
*MEAS_COND_AXIS_NAME_INTERNAL-13 "Zs"
*MEAS_COND_AXIS_NAME_INTERNAL-14 "IncidentMonochromator"
*MEAS_COND_AXIS_NAME_INTERNAL-15 "IncidentAxdSlit"
*MEAS_COND_AXIS_NAME_INTERNAL-16 "CenterSlit"
*MEAS_COND_AXIS_NAME_INTERNAL-17 "Filter"
*MEAS_COND_AXIS_NAME_INTERNAL-18 "ReceivingSlitBox1"
*MEAS_COND_AXIS_NAME_INTERNAL-19 "ReceivingSlitBox2"
*MEAS_COND_AXIS_NAME_INTERNAL-20 "ReceivingOptics"
*MEAS_COND_AXIS_NAME_INTERNAL-21 "ReceivingSollerSlit"
*MEAS_COND_AXIS_NAME_INTERNAL-22 "ReceivingAxdSlit"
*MEAS_COND_AXIS_NAME_INTERNAL-23 "ReceivingSlitBox1-_Axis"
*MEAS_COND_AXIS_NAME_INTERNAL-24 "ReceivingSlitBox2-_Axis"
*MEAS_COND_AXIS_NAME_INTERNAL-25 "ReceivingSlitBox2-Zd"
*MEAS_COND_AXIS_NAME_INTERNAL-26 "Attenuator"
*MEAS_COND_AXIS_NAME_INTERNAL-27 "CounterMonochromator"
*MEAS_COND_AXIS_NAME_INTERNAL-28 "CounterSlit"
*MEAS_COND_AXIS_NAME_INTERNAL-29 "IncidentPrimary"
*MEAS_COND_AXIS_NAME_INTERNAL-30 "PHA"
*MEAS_COND_AXIS_NAME_MAGICNO-0 "83951616.0000000000"
*MEAS_COND_AXIS_NAME_MAGICNO-1 "268632064.0000000000"
*MEAS_COND_AXIS_NAME_MAGICNO-2 "268500992.0000000000"
*MEAS_COND_AXIS_NAME_MAGICNO-3 "285278208.0000000000"
*MEAS_COND_AXIS_NAME_MAGICNO-4 "83951616.0000000000"
*MEAS_COND_AXIS_NAME_MAGICNO-5 "131072.0000000000"
*MEAS_COND_AXIS_NAME_MAGICNO-6 "131072.0000000000"
*MEAS_COND_AXIS_NAME_MAGICNO-7 "318898176.0000000000"
*MEAS_COND_AXIS_NAME_MAGICNO-8 "20971521.0000000000"
*MEAS_COND_AXIS_NAME_MAGICNO-9 "285343744.0000000000"
*MEAS_COND_AXIS_NAME_MAGICNO-10 "20971521.0000000000"
*MEAS_COND_AXIS_NAME_MAGICNO-11 "22020097.0000000000"
*MEAS_COND_AXIS_NAME_MAGICNO-12 "25165824.0000000000"
*MEAS_COND_AXIS_NAME_MAGICNO-13 "318898176.0000000000"
*MEAS_COND_AXIS_NAME_MAGICNO-14 "1.0000000000"
*MEAS_COND_AXIS_NAME_MAGICNO-15 "20971521.0000000000"
*MEAS_COND_AXIS_NAME_MAGICNO-16 "20971521.0000000000"
*MEAS_COND_AXIS_NAME_MAGICNO-17 "20971521.0000000000"
*MEAS_COND_AXIS_NAME_MAGICNO-18 "23068673.0000000000"
*MEAS_COND_AXIS_NAME_MAGICNO-19 "23068673.0000000000"
*MEAS_COND_AXIS_NAME_MAGICNO-20 "20971521.0000000000"
*MEAS_COND_AXIS_NAME_MAGICNO-21 "20971521.0000000000"
*MEAS_COND_AXIS_NAME_MAGICNO-22 "20971521.0000000000"
*MEAS_COND_AXIS_NAME_MAGICNO-23 "25165824.0000000000"
*MEAS_COND_AXIS_NAME_MAGICNO-24 "25165824.0000000000"
*MEAS_COND_AXIS_NAME_MAGICNO-25 "285343744.0000000000"
*MEAS_COND_AXIS_NAME_MAGICNO-26 "17301505.0000000000"
*MEAS_COND_AXIS_NAME_MAGICNO-27 "20971521.0000000000"
*MEAS_COND_AXIS_NAME_MAGICNO-28 "20971521.0000000000"
*MEAS_COND_AXIS_NAME_MAGICNO-29 "20971521.0000000000"
*MEAS_COND_AXIS_NAME_MAGICNO-30 "0.0000000000"
*MEAS_COND_AXIS_OFFSET-0 "-"
*MEAS_COND_AXIS_OFFSET-1 "-0.1081000000"
*MEAS_COND_AXIS_OFFSET-2 "0.3758000000"
*MEAS_COND_AXIS_OFFSET-3 "-"
*MEAS_COND_AXIS_OFFSET-4 "-"
*MEAS_COND_AXIS_OFFSET-5 "0.3758000000"
*MEAS_COND_AXIS_OFFSET-6 "-0.4839000000"
*MEAS_COND_AXIS_OFFSET-7 "-"
*MEAS_COND_AXIS_OFFSET-8 "-"
*MEAS_COND_AXIS_OFFSET-9 "-"
*MEAS_COND_AXIS_OFFSET-10 "-"
*MEAS_COND_AXIS_OFFSET-11 "-"
*MEAS_COND_AXIS_OFFSET-12 "-"
*MEAS_COND_AXIS_OFFSET-13 "-"
*MEAS_COND_AXIS_OFFSET-14 "-"
*MEAS_COND_AXIS_OFFSET-15 "-"
*MEAS_COND_AXIS_OFFSET-16 "-"
*MEAS_COND_AXIS_OFFSET-17 "-"
*MEAS_COND_AXIS_OFFSET-18 "-"
*MEAS_COND_AXIS_OFFSET-19 "-"
*MEAS_COND_AXIS_OFFSET-20 "-"
*MEAS_COND_AXIS_OFFSET-21 "-"
*MEAS_COND_AXIS_OFFSET-22 "-"
*MEAS_COND_AXIS_OFFSET-23 "-"
*MEAS_COND_AXIS_OFFSET-24 "-"
*MEAS_COND_AXIS_OFFSET-25 "-"
*MEAS_COND_AXIS_OFFSET-26 "-"
*MEAS_COND_AXIS_OFFSET-27 "-"
*MEAS_COND_AXIS_OFFSET-28 "-"
*MEAS_COND_AXIS_OFFSET-29 "-"
*MEAS_COND_AXIS_OFFSET-30 "-"
*MEAS_COND_AXIS_POSITION-0 "0.0000000000"
*MEAS_COND_AXIS_POSITION-1 "0.0000000000"
*MEAS_COND_AXIS_POSITION-2 "0.0000000000"
*MEAS_COND_AXIS_POSITION-3 "-0.5500000000"
*MEAS_COND_AXIS_POSITION-4 "0.0000000000"
*MEAS_COND_AXIS_POSITION-5 "0.0000000000"
*MEAS_COND_AXIS_POSITION-6 "0.0000000000"
*MEAS_COND_AXIS_POSITION-7 "-0.4278800000"
*MEAS_COND_AXIS_POSITION-8 "BB"
*MEAS_COND_AXIS_POSITION-9 "0.0000000000"
*MEAS_COND_AXIS_POSITION-10 "Soller_slit_5.0deg"
*MEAS_COND_AXIS_POSITION-11 "2/3deg"
*MEAS_COND_AXIS_POSITION-12 "2.2088000000"
*MEAS_COND_AXIS_POSITION-13 "-0.4140600000"
*MEAS_COND_AXIS_POSITION-14 "0.0000000000"
*MEAS_COND_AXIS_POSITION-15 "10.0mm"
*MEAS_COND_AXIS_POSITION-16 "None"
*MEAS_COND_AXIS_POSITION-17 "Cu_K-beta"
*MEAS_COND_AXIS_POSITION-18 "13.000mm"
*MEAS_COND_AXIS_POSITION-19 "13.000mm"
*MEAS_COND_AXIS_POSITION-20 "No_unit"
*MEAS_COND_AXIS_POSITION-21 "Soller_slit_5.0deg"
*MEAS_COND_AXIS_POSITION-22 "None"
*MEAS_COND_AXIS_POSITION-23 "13.0000000000"
*MEAS_COND_AXIS_POSITION-24 "13.0000000000"
*MEAS_COND_AXIS_POSITION-25 "0.0109400000"
*MEAS_COND_AXIS_POSITION-26 "Open"
*MEAS_COND_AXIS_POSITION-27 "None"
*MEAS_COND_AXIS_POSITION-28 "None"
*MEAS_COND_AXIS_POSITION-29 "None"
*MEAS_COND_AXIS_POSITION-30 "38.0000000000"
*MEAS_COND_AXIS_UNIT-0 "deg"
*MEAS_COND_AXIS_UNIT-1 "deg"
*MEAS_COND_AXIS_UNIT-2 "deg"
*MEAS_COND_AXIS_UNIT-3 "mm"
*MEAS_COND_AXIS_UNIT-4 "deg"
*MEAS_COND_AXIS_UNIT-5 "deg"
*MEAS_COND_AXIS_UNIT-6 "deg"
*MEAS_COND_AXIS_UNIT-7 "mm"
*MEAS_COND_AXIS_UNIT-8 ""
*MEAS_COND_AXIS_UNIT-9 "pulse"
*MEAS_COND_AXIS_UNIT-10 ""
*MEAS_COND_AXIS_UNIT-11 ""
*MEAS_COND_AXIS_UNIT-12 "mm"
*MEAS_COND_AXIS_UNIT-13 "mm"
*MEAS_COND_AXIS_UNIT-14 ""
*MEAS_COND_AXIS_UNIT-15 ""
*MEAS_COND_AXIS_UNIT-16 ""
*MEAS_COND_AXIS_UNIT-17 ""
*MEAS_COND_AXIS_UNIT-18 ""
*MEAS_COND_AXIS_UNIT-19 ""
*MEAS_COND_AXIS_UNIT-20 ""
*MEAS_COND_AXIS_UNIT-21 ""
*MEAS_COND_AXIS_UNIT-22 ""
*MEAS_COND_AXIS_UNIT-23 "mm"
*MEAS_COND_AXIS_UNIT-24 "mm"
*MEAS_COND_AXIS_UNIT-25 "mm"
*MEAS_COND_AXIS_UNIT-26 ""
*MEAS_COND_AXIS_UNIT-27 ""
*MEAS_COND_AXIS_UNIT-28 ""
*MEAS_COND_AXIS_UNIT-29 ""
*MEAS_COND_AXIS_UNIT-30 "div"
*MEAS_COND_COUNTER_CNTLOSS_CORR "0.0000000000"
*MEAS_COND_COUNTER_PHABASE "38.0000000000"
*MEAS_COND_COUNTER_PHAWINDOW "16.0000000000"
*MEAS_COND_COUNTER_PHA_UNIT "div"
*MEAS_COND_COUNTER_TAUDIFF "30.0000000000"
*MEAS_COND_COUNTER_TAUINT "0.0000000000"
*MEAS_COND_IRRADIATION_MODE "OFF"
*MEAS_COND_IRRADIATION_WIDTH ""
*MEAS_COND_OPT_ATTR "集中法"
*MEAS_COND_OPT_NAME "@集中法"
*MEAS_COND_UNSYMMETRIC_MODE "OFF"
*MEAS_COND_XG_CURRENT "30.0000000000"
*MEAS_COND_XG_VOLTAGE "40.0000000000"
*MEAS_COND_XG_WAVE_TYPE "Ka"
*MEAS_DATA_COUNT "5001.0000000000"
*MEAS_SCAN_AXIS_X "2θ/θ"
*MEAS_SCAN_AXIS_X_INTERNAL "TwoThetaTheta"
*MEAS_SCAN_END_TIME "07/12/21 16:02:37"
*MEAS_SCAN_MODE "CONTINUOUS"
*MEAS_SCAN_MONITOR "0"
*MEAS_SCAN_RESOLUTION_X "0.0002"
*MEAS_SCAN_SPEED "1.0"
*MEAS_SCAN_SPEED_UNIT "deg/min"
*MEAS_SCAN_START "20.0000000000"
*MEAS_SCAN_START_TIME "07/12/21 15:09:44"
*MEAS_SCAN_STEP "0.0100000000"
*MEAS_SCAN_STOP "70.0000000000"
*MEAS_SCAN_UNIT_X "deg"
*MEAS_SCAN_UNIT_Y "counts"
*RAS_HEADER_END
*RAS_INT_START
20.0000 1604.0000 1.0000
20.0100 1589.0000 1.0000
20.0200 1572.0000 1.0000
20.0300 1527.0000 1.0000
20.0400 1569.0000 1.0000
20.0500 1556.0000 1.0000
20.0600 1529.0000 1.0000
20.0700 1531.0000 1.0000
20.0800 1556.0000 1.0000
20.0900 1569.0000 1.0000
20.1000 1545.0000 1.0000
20.1100 1552.0000 1.0000
20.1200 1585.0000 1.0000
20.1300 1595.0000 1.0000
20.1400 1604.0000 1.0000
20.1500 1618.0000 1.0000
20.1600 1535.0000 1.0000
20.1700 1600.0000 1.0000
20.1800 1551.0000 1.0000
20.1900 1537.0000 1.0000
20.2000 1616.0000 1.0000
20.2100 1586.0000 1.0000
20.2200 1538.0000 1.0000
20.2300 1494.0000 1.0000
20.2400 1575.0000 1.0000
20.2500 1576.0000 1.0000
20.2600 1529.0000 1.0000
20.2700 1584.0000 1.0000
20.2800 1569.0000 1.0000
20.2900 1552.0000 1.0000
20.3000 1557.0000 1.0000
20.3100 1591.0000 1.0000
20.3200 1604.0000 1.0000
20.3300 1546.0000 1.0000
20.3400 1537.0000 1.0000
20.3500 1531.0000 1.0000
20.3600 1573.0000 1.0000
20.3700 1527.0000 1.0000
20.3800 1583.0000 1.0000
20.3900 1500.0000 1.0000
20.4000 1534.0000 1.0000
20.4100 1583.0000 1.0000
20.4200 1533.0000 1.0000
20.4300 1522.0000 1.0000
20.4400 1575.0000 1.0000
20.4500 1618.0000 1.0000
20.4600 1576.0000 1.0000
20.4700 1565.0000 1.0000
20.4800 1617.0000 1.0000
20.4900 1521.0000 1.0000
20.5000 1548.0000 1.0000
20.5100 1601.0000 1.0000
20.5200 1552.0000 1.0000
20.5300 1557.0000 1.0000
20.5400 1585.0000 1.0000
20.5500 1568.0000 1.0000
20.5600 1545.0000 1.0000
20.5700 1597.0000 1.0000
20.5800 1495.0000 1.0000
20.5900 1554.0000 1.0000
20.6000 1558.0000 1.0000
20.6100 1562.0000 1.0000
20.6200 1530.0000 1.0000
20.6300 1556.0000 1.0000
20.6400 1551.0000 1.0000
20.6500 1569.0000 1.0000
20.6600 1553.0000 1.0000
20.6700 1553.0000 1.0000
20.6800 1624.0000 1.0000
20.6900 1584.0000 1.0000
20.7000 1528.0000 1.0000
20.7100 1550.0000 1.0000
20.7200 1551.0000 1.0000
20.7300 1575.0000 1.0000
20.7400 1635.0000 1.0000
20.7500 1632.0000 1.0000
20.7600 1566.0000 1.0000
20.7700 1567.0000 1.0000
20.7800 1471.0000 1.0000
20.7900 1547.0000 1.0000
20.8000 1541.0000 1.0000
20.8100 1561.0000 1.0000
20.8200 1586.0000 1.0000
20.8300 1522.0000 1.0000
20.8400 1576.0000 1.0000
20.8500 1511.0000 1.0000
20.8600 1520.0000 1.0000
20.8700 1590.0000 1.0000
20.8800 1563.0000 1.0000
20.8900 1606.0000 1.0000
20.9000 1607.0000 1.0000
20.9100 1551.0000 1.0000
20.9200 1526.0000 1.0000
20.9300 1524.0000 1.0000
20.9400 1569.0000 1.0000
20.9500 1567.0000 1.0000
20.9600 1586.0000 1.0000
20.9700 1558.0000 1.0000
20.9800 1559.0000 1.0000
20.9900 1553.0000 1.0000
21.0000 1554.0000 1.0000
21.0100 1590.0000 1.0000
21.0200 1572.0000 1.0000
21.0300 1562.0000 1.0000
21.0400 1516.0000 1.0000
21.0500 1555.0000 1.0000
21.0600 1653.0000 1.0000
21.0700 1543.0000 1.0000
21.0800 1512.0000 1.0000
21.0900 1599.0000 1.0000
21.1000 1611.0000 1.0000
21.1100 1602.0000 1.0000
21.1200 1531.0000 1.0000
21.1300 1482.0000 1.0000
21.1400 1527.0000 1.0000
21.1500 1576.0000 1.0000
21.1600 1577.0000 1.0000
21.1700 1522.0000 1.0000
21.1800 1549.0000 1.0000
21.1900 1552.0000 1.0000
21.2000 1492.0000 1.0000
21.2100 1521.0000 1.0000
21.2200 1527.0000 1.0000
21.2300 1575.0000 1.0000
21.2400 1589.0000 1.0000
21.2500 1660.0000 1.0000
21.2600 1579.0000 1.0000
21.2700 1581.0000 1.0000
21.2800 1567.0000 1.0000
21.2900 1541.0000 1.0000
21.3000 1650.0000 1.0000
21.3100 1593.0000 1.0000
21.3200 1545.0000 1.0000
21.3300 1576.0000 1.0000
21.3400 1554.0000 1.0000
21.3500 1554.0000 1.0000
21.3600 1586.0000 1.0000
21.3700 1551.0000 1.0000
21.3800 1534.0000 1.0000
21.3900 1551.0000 1.0000
21.4000 1567.0000 1.0000
21.4100 1585.0000 1.0000
21.4200 1638.0000 1.0000
21.4300 1593.0000 1.0000
21.4400 1555.0000 1.0000
21.4500 1573.0000 1.0000
21.4600 1602.0000 1.0000
21.4700 1594.0000 1.0000
21.4800 1592.0000 1.0000
21.4900 1579.0000 1.0000
21.5000 1545.0000 1.0000
21.5100 1575.0000 1.0000
21.5200 1520.0000 1.0000
21.5300 1578.0000 1.0000
21.5400 1588.0000 1.0000
21.5500 1566.0000 1.0000
21.5600 1535.0000 1.0000
21.5700 1561.0000 1.0000
21.5800 1546.0000 1.0000
21.5900 1568.0000 1.0000
21.6000 1568.0000 1.0000
21.6100 1576.0000 1.0000
21.6200 1555.0000 1.0000
21.6300 1588.0000 1.0000
21.6400 1565.0000 1.0000
21.6500 1532.0000 1.0000
21.6600 1603.0000 1.0000
21.6700 1493.0000 1.0000
21.6800 1593.0000 1.0000
21.6900 1537.0000 1.0000
21.7000 1543.0000 1.0000
21.7100 1574.0000 1.0000
21.7200 1661.0000 1.0000
21.7300 1632.0000 1.0000
21.7400 1586.0000 1.0000
21.7500 1557.0000 1.0000
21.7600 1591.0000 1.0000
21.7700 1591.0000 1.0000
21.7800 1565.0000 1.0000
21.7900 1557.0000 1.0000
21.8000 1589.0000 1.0000
21.8100 1608.0000 1.0000
21.8200 1547.0000 1.0000
21.8300 1535.0000 1.0000
21.8400 1567.0000 1.0000
21.8500 1596.0000 1.0000
21.8600 1628.0000 1.0000
21.8700 1563.0000 1.0000
21.8800 1618.0000 1.0000
21.8900 1583.0000 1.0000
21.9000 1572.0000 1.0000
21.9100 1511.0000 1.0000
21.9200 1534.0000 1.0000
21.9300 1561.0000 1.0000
21.9400 1593.0000 1.0000
21.9500 1544.0000 1.0000
21.9600 1584.0000 1.0000
21.9700 1574.0000 1.0000
21.9800 1595.0000 1.0000
21.9900 1576.0000 1.0000
22.0000 1538.0000 1.0000
22.0100 1529.0000 1.0000
22.0200 1501.0000 1.0000
22.0300 1598.0000 1.0000
22.0400 1631.0000 1.0000
22.0500 1538.0000 1.0000
22.0600 1559.0000 1.0000
22.0700 1525.0000 1.0000
22.0800 1549.0000 1.0000
22.0900 1533.0000 1.0000
22.1000 1538.0000 1.0000
22.1100 1592.0000 1.0000
22.1200 1556.0000 1.0000
22.1300 1560.0000 1.0000
22.1400 1630.0000 1.0000
22.1500 1491.0000 1.0000
22.1600 1504.0000 1.0000
22.1700 1534.0000 1.0000
22.1800 1568.0000 1.0000
22.1900 1611.0000 1.0000
22.2000 1604.0000 1.0000
22.2100 1621.0000 1.0000
22.2200 1608.0000 1.0000
22.2300 1597.0000 1.0000
22.2400 1546.0000 1.0000
22.2500 1597.0000 1.0000
22.2600 1596.0000 1.0000
22.2700 1558.0000 1.0000
22.2800 1561.0000 1.0000
22.2900 1627.0000 1.0000
22.3000 1579.0000 1.0000
22.3100 1643.0000 1.0000
22.3200 1618.0000 1.0000
22.3300 1580.0000 1.0000
22.3400 1599.0000 1.0000
22.3500 1531.0000 1.0000
22.3600 1571.0000 1.0000
22.3700 1598.0000 1.0000
22.3800 1573.0000 1.0000
22.3900 1614.0000 1.0000
22.4000 1520.0000 1.0000
22.4100 1550.0000 1.0000
22.4200 1650.0000 1.0000
22.4300 1608.0000 1.0000
22.4400 1563.0000 1.0000
22.4500 1532.0000 1.0000
22.4600 1595.0000 1.0000
22.4700 1551.0000 1.0000
22.4800 1604.0000 1.0000
22.4900 1589.0000 1.0000
22.5000 1580.0000 1.0000
22.5100 1582.0000 1.0000
22.5200 1560.0000 1.0000
22.5300 1573.0000 1.0000
22.5400 1602.0000 1.0000
22.5500 1565.0000 1.0000
22.5600 1571.0000 1.0000
22.5700 1569.0000 1.0000
22.5800 1607.0000 1.0000
22.5900 1597.0000 1.0000
22.6000 1658.0000 1.0000
22.6100 1570.0000 1.0000
22.6200 1585.0000 1.0000
22.6300 1503.0000 1.0000
22.6400 1612.0000 1.0000
22.6500 1610.0000 1.0000
22.6600 1553.0000 1.0000
22.6700 1683.0000 1.0000
22.6800 1595.0000 1.0000
22.6900 1599.0000 1.0000
22.7000 1597.0000 1.0000
22.7100 1632.0000 1.0000
22.7200 1553.0000 1.0000
22.7300 1593.0000 1.0000
22.7400 1579.0000 1.0000
22.7500 1605.0000 1.0000
22.7600 1586.0000 1.0000
22.7700 1590.0000 1.0000
22.7800 1528.0000 1.0000
22.7900 1549.0000 1.0000
22.8000 1559.0000 1.0000
22.8100 1615.0000 1.0000
22.8200 1615.0000 1.0000
22.8300 1623.0000 1.0000
22.8400 1647.0000 1.0000
22.8500 1641.0000 1.0000
22.8600 1609.0000 1.0000
22.8700 1595.0000 1.0000
22.8800 1560.0000 1.0000
22.8900 1519.0000 1.0000
22.9000 1591.0000 1.0000
22.9100 1603.0000 1.0000
22.9200 1545.0000 1.0000
22.9300 1555.0000 1.0000
22.9400 1589.0000 1.0000
22.9500 1539.0000 1.0000
22.9600 1536.0000 1.0000
22.9700 1619.0000 1.0000
22.9800 1572.0000 1.0000
22.9900 1640.0000 1.0000
23.0000 1528.0000 1.0000
23.0100 1548.0000 1.0000
23.0200 1601.0000 1.0000
23.0300 1552.0000 1.0000
23.0400 1553.0000 1.0000
23.0500 1579.0000 1.0000
23.0600 1653.0000 1.0000
23.0700 1567.0000 1.0000
23.0800 1600.0000 1.0000
23.0900 1601.0000 1.0000
23.1000 1556.0000 1.0000
23.1100 1575.0000 1.0000
23.1200 1559.0000 1.0000
23.1300 1610.0000 1.0000
23.1400 1629.0000 1.0000
23.1500 1537.0000 1.0000
23.1600 1564.0000 1.0000
23.1700 1533.0000 1.0000
23.1800 1607.0000 1.0000
23.1900 1595.0000 1.0000
23.2000 1525.0000 1.0000
23.2100 1617.0000 1.0000
23.2200 1571.0000 1.0000
23.2300 1586.0000 1.0000
23.2400 1654.0000 1.0000
23.2500 1614.0000 1.0000
23.2600 1552.0000 1.0000
23.2700 1547.0000 1.0000
23.2800 1547.0000 1.0000
23.2900 1597.0000 1.0000
23.3000 1589.0000 1.0000
23.3100 1535.0000 1.0000
23.3200 1543.0000 1.0000
23.3300 1588.0000 1.0000
23.3400 1550.0000 1.0000
23.3500 1598.0000 1.0000
23.3600 1665.0000 1.0000
23.3700 1569.0000 1.0000
23.3800 1633.0000 1.0000
23.3900 1532.0000 1.0000
23.4000 1621.0000 1.0000
23.4100 1595.0000 1.0000
23.4200 1582.0000 1.0000
23.4300 1547.0000 1.0000
23.4400 1656.0000 1.0000
23.4500 1566.0000 1.0000
23.4600 1581.0000 1.0000
23.4700 1672.0000 1.0000
23.4800 1632.0000 1.0000
23.4900 1546.0000 1.0000
23.5000 1569.0000 1.0000
23.5100 1638.0000 1.0000
23.5200 1673.0000 1.0000
23.5300 1596.0000 1.0000
23.5400 1616.0000 1.0000
23.5500 1586.0000 1.0000
23.5600 1624.0000 1.0000
23.5700 1579.0000 1.0000
23.5800 1572.0000 1.0000
23.5900 1575.0000 1.0000
23.6000 1597.0000 1.0000
23.6100 1640.0000 1.0000
23.6200 1596.0000 1.0000
23.6300 1656.0000 1.0000
23.6400 1613.0000 1.0000
23.6500 1611.0000 1.0000
23.6600 1671.0000 1.0000
23.6700 1643.0000 1.0000
23.6800 1552.0000 1.0000
23.6900 1591.0000 1.0000
23.7000 1625.0000 1.0000
23.7100 1615.0000 1.0000
23.7200 1653.0000 1.0000
23.7300 1629.0000 1.0000
23.7400 1605.0000 1.0000
23.7500 1652.0000 1.0000
23.7600 1591.0000 1.0000
23.7700 1580.0000 1.0000
23.7800 1537.0000 1.0000
23.7900 1614.0000 1.0000
23.8000 1570.0000 1.0000
23.8100 1653.0000 1.0000
23.8200 1637.0000 1.0000
23.8300 1612.0000 1.0000
23.8400 1642.0000 1.0000
23.8500 1603.0000 1.0000
23.8600 1566.0000 1.0000
23.8700 1691.0000 1.0000
23.8800 1563.0000 1.0000
23.8900 1551.0000 1.0000
23.9000 1681.0000 1.0000
23.9100 1701.0000 1.0000
23.9200 1586.0000 1.0000
23.9300 1544.0000 1.0000
23.9400 1517.0000 1.0000
23.9500 1582.0000 1.0000
23.9600 1571.0000 1.0000
23.9700 1595.0000 1.0000
23.9800 1596.0000 1.0000
23.9900 1586.0000 1.0000
24.0000 1648.0000 1.0000
24.0100 1671.0000 1.0000
24.0200 1645.0000 1.0000
24.0300 1625.0000 1.0000
24.0400 1566.0000 1.0000
24.0500 1588.0000 1.0000
24.0600 1598.0000 1.0000
24.0700 1581.0000 1.0000
24.0800 1655.0000 1.0000
24.0900 1644.0000 1.0000
24.1000 1650.0000 1.0000
24.1100 1599.0000 1.0000
24.1200 1621.0000 1.0000
24.1300 1623.0000 1.0000
24.1400 1603.0000 1.0000
24.1500 1616.0000 1.0000
24.1600 1591.0000 1.0000
24.1700 1631.0000 1.0000
24.1800 1584.0000 1.0000
24.1900 1589.0000 1.0000
24.2000 1650.0000 1.0000
24.2100 1603.0000 1.0000
24.2200 1586.0000 1.0000
24.2300 1591.0000 1.0000
24.2400 1591.0000 1.0000
24.2500 1653.0000 1.0000
24.2600 1608.0000 1.0000
24.2700 1559.0000 1.0000
24.2800 1552.0000 1.0000
24.2900 1589.0000 1.0000
24.3000 1579.0000 1.0000
24.3100 1660.0000 1.0000
24.3200 1590.0000 1.0000
24.3300 1653.0000 1.0000
24.3400 1727.0000 1.0000
24.3500 1654.0000 1.0000
24.3600 1612.0000 1.0000
24.3700 1609.0000 1.0000
24.3800 1626.0000 1.0000
24.3900 1562.0000 1.0000
24.4000 1687.0000 1.0000
24.4100 1603.0000 1.0000
24.4200 1633.0000 1.0000
24.4300 1610.0000 1.0000
24.4400 1638.0000 1.0000
24.4500 1676.0000 1.0000
24.4600 1623.0000 1.0000
24.4700 1663.0000 1.0000
24.4800 1599.0000 1.0000
24.4900 1622.0000 1.0000
24.5000 1641.0000 1.0000
24.5100 1559.0000 1.0000
24.5200 1633.0000 1.0000
24.5300 1617.0000 1.0000
24.5400 1644.0000 1.0000
24.5500 1684.0000 1.0000
24.5600 1585.0000 1.0000
24.5700 1606.0000 1.0000
24.5800 1648.0000 1.0000
24.5900 1664.0000 1.0000
24.6000 1641.0000 1.0000
24.6100 1687.0000 1.0000
24.6200 1660.0000 1.0000
24.6300 1714.0000 1.0000
24.6400 1654.0000 1.0000
24.6500 1662.0000 1.0000
24.6600 1699.0000 1.0000
24.6700 1663.0000 1.0000
24.6800 1665.0000 1.0000
24.6900 1671.0000 1.0000
24.7000 1642.0000 1.0000
24.7100 1630.0000 1.0000
24.7200 1609.0000 1.0000
24.7300 1628.0000 1.0000
24.7400 1660.0000 1.0000
24.7500 1638.0000 1.0000
24.7600 1692.0000 1.0000
24.7700 1709.0000 1.0000
24.7800 1624.0000 1.0000
24.7900 1669.0000 1.0000
24.8000 1673.0000 1.0000
24.8100 1697.0000 1.0000
24.8200 1699.0000 1.0000
24.8300 1628.0000 1.0000
24.8400 1691.0000 1.0000
24.8500 1703.0000 1.0000
24.8600 1597.0000 1.0000
24.8700 1728.0000 1.0000
24.8800 1723.0000 1.0000
24.8900 1671.0000 1.0000
24.9000 1637.0000 1.0000
24.9100 1670.0000 1.0000
24.9200 1656.0000 1.0000
24.9300 1669.0000 1.0000
24.9400 1687.0000 1.0000
24.9500 1693.0000 1.0000
24.9600 1642.0000 1.0000
24.9700 1705.0000 1.0000
24.9800 1663.0000 1.0000
24.9900 1690.0000 1.0000
25.0000 1637.0000 1.0000
25.0100 1712.0000 1.0000
25.0200 1682.0000 1.0000
25.0300 1704.0000 1.0000
25.0400 1664.0000 1.0000
25.0500 1608.0000 1.0000
25.0600 1709.0000 1.0000
25.0700 1690.0000 1.0000
25.0800 1637.0000 1.0000
25.0900 1642.0000 1.0000
25.1000 1628.0000 1.0000
25.1100 1678.0000 1.0000
25.1200 1694.0000 1.0000
25.1300 1654.0000 1.0000
25.1400 1704.0000 1.0000
25.1500 1717.0000 1.0000
25.1600 1734.0000 1.0000
25.1700 1688.0000 1.0000
25.1800 1759.0000 1.0000
25.1900 1653.0000 1.0000
25.2000 1659.0000 1.0000
25.2100 1680.0000 1.0000
25.2200 1737.0000 1.0000
25.2300 1672.0000 1.0000
25.2400 1640.0000 1.0000
25.2500 1674.0000 1.0000
25.2600 1641.0000 1.0000
25.2700 1724.0000 1.0000
25.2800 1674.0000 1.0000
25.2900 1619.0000 1.0000
25.3000 1609.0000 1.0000
25.3100 1667.0000 1.0000
25.3200 1660.0000 1.0000
25.3300 1695.0000 1.0000
25.3400 1632.0000 1.0000
25.3500 1693.0000 1.0000
25.3600 1662.0000 1.0000
25.3700 1648.0000 1.0000
25.3800 1670.0000 1.0000
25.3900 1670.0000 1.0000
25.4000 1707.0000 1.0000
25.4100 1691.0000 1.0000
25.4200 1584.0000 1.0000
25.4300 1687.0000 1.0000
25.4400 1648.0000 1.0000
25.4500 1613.0000 1.0000
25.4600 1606.0000 1.0000
25.4700 1694.0000 1.0000
25.4800 1638.0000 1.0000
25.4900 1591.0000 1.0000
25.5000 1634.0000 1.0000
25.5100 1642.0000 1.0000
25.5200 1643.0000 1.0000
25.5300 1656.0000 1.0000
25.5400 1651.0000 1.0000
25.5500 1699.0000 1.0000
25.5600 1671.0000 1.0000
25.5700 1695.0000 1.0000
25.5800 1691.0000 1.0000
25.5900 1605.0000 1.0000
25.6000 1620.0000 1.0000
25.6100 1651.0000 1.0000
25.6200 1674.0000 1.0000
25.6300 1663.0000 1.0000
25.6400 1660.0000 1.0000
25.6500 1670.0000 1.0000
25.6600 1655.0000 1.0000
25.6700 1646.0000 1.0000
25.6800 1705.0000 1.0000
25.6900 1686.0000 1.0000
25.7000 1698.0000 1.0000
25.7100 1643.0000 1.0000
25.7200 1642.0000 1.0000
25.7300 1676.0000 1.0000
25.7400 1658.0000 1.0000
25.7500 1614.0000 1.0000
25.7600 1625.0000 1.0000
25.7700 1658.0000 1.0000
25.7800 1615.0000 1.0000
25.7900 1660.0000 1.0000
25.8000 1645.0000 1.0000
25.8100 1646.0000 1.0000
25.8200 1648.0000 1.0000
25.8300 1658.0000 1.0000
25.8400 1601.0000 1.0000
25.8500 1660.0000 1.0000
25.8600 1634.0000 1.0000
25.8700 1692.0000 1.0000
25.8800 1662.0000 1.0000
25.8900 1704.0000 1.0000
25.9000 1611.0000 1.0000
25.9100 1713.0000 1.0000
25.9200 1605.0000 1.0000
25.9300 1671.0000 1.0000
25.9400 1638.0000 1.0000
25.9500 1629.0000 1.0000
25.9600 1640.0000 1.0000
25.9700 1661.0000 1.0000
25.9800 1596.0000 1.0000
25.9900 1665.0000 1.0000
26.0000 1671.0000 1.0000
26.0100 1604.0000 1.0000
26.0200 1624.0000 1.0000
26.0300 1693.0000 1.0000
26.0400 1709.0000 1.0000
26.0500 1683.0000 1.0000
26.0600 1692.0000 1.0000
26.0700 1623.0000 1.0000
26.0800 1696.0000 1.0000
26.0900 1623.0000 1.0000
26.1000 1703.0000 1.0000
26.1100 1616.0000 1.0000
26.1200 1692.0000 1.0000
26.1300 1705.0000 1.0000
26.1400 1709.0000 1.0000
26.1500 1686.0000 1.0000
26.1600 1632.0000 1.0000
26.1700 1677.0000 1.0000
26.1800 1629.0000 1.0000
26.1900 1620.0000 1.0000
26.2000 1619.0000 1.0000
26.2100 1644.0000 1.0000
26.2200 1674.0000 1.0000
26.2300 1615.0000 1.0000
26.2400 1716.0000 1.0000
26.2500 1681.0000 1.0000
26.2600 1729.0000 1.0000
26.2700 1643.0000 1.0000
26.2800 1624.0000 1.0000
26.2900 1672.0000 1.0000
26.3000 1650.0000 1.0000
26.3100 1664.0000 1.0000
26.3200 1705.0000 1.0000
26.3300 1645.0000 1.0000
26.3400 1728.0000 1.0000
26.3500 1633.0000 1.0000
26.3600 1727.0000 1.0000
26.3700 1714.0000 1.0000
26.3800 1722.0000 1.0000
26.3900 1721.0000 1.0000
26.4000 1748.0000 1.0000
26.4100 1651.0000 1.0000
26.4200 1713.0000 1.0000
26.4300 1694.0000 1.0000
26.4400 1703.0000 1.0000
26.4500 1742.0000 1.0000
26.4600 1746.0000 1.0000
26.4700 1644.0000 1.0000
26.4800 1675.0000 1.0000
26.4900 1703.0000 1.0000
26.5000 1729.0000 1.0000
26.5100 1788.0000 1.0000
26.5200 1699.0000 1.0000
26.5300 1730.0000 1.0000
26.5400 1717.0000 1.0000
26.5500 1734.0000 1.0000
26.5600 1729.0000 1.0000
26.5700 1745.0000 1.0000
26.5800 1776.0000 1.0000
26.5900 1699.0000 1.0000
26.6000 1756.0000 1.0000
26.6100 1709.0000 1.0000
26.6200 1774.0000 1.0000
26.6300 1766.0000 1.0000
26.6400 1709.0000 1.0000
26.6500 1744.0000 1.0000
26.6600 1889.0000 1.0000
26.6700 1748.0000 1.0000
26.6800 1786.0000 1.0000
26.6900 1746.0000 1.0000
26.7000 1802.0000 1.0000
26.7100 1836.0000 1.0000
26.7200 1806.0000 1.0000
26.7300 1803.0000 1.0000
26.7400 1818.0000 1.0000
26.7500 1747.0000 1.0000
26.7600 1764.0000 1.0000
26.7700 1779.0000 1.0000
26.7800 1800.0000 1.0000
26.7900 1794.0000 1.0000
26.8000 1820.0000 1.0000
26.8100 1856.0000 1.0000
26.8200 1824.0000 1.0000
26.8300 1832.0000 1.0000
26.8400 1864.0000 1.0000
26.8500 1902.0000 1.0000
26.8600 1876.0000 1.0000
26.8700 1961.0000 1.0000
26.8800 1935.0000 1.0000
26.8900 1929.0000 1.0000
26.9000 1937.0000 1.0000
26.9100 1972.0000 1.0000
26.9200 1990.0000 1.0000
26.9300 2016.0000 1.0000
26.9400 2090.0000 1.0000
26.9500 2051.0000 1.0000
26.9600 2075.0000 1.0000
26.9700 2056.0000 1.0000
26.9800 2190.0000 1.0000
26.9900 2195.0000 1.0000
27.0000 2205.0000 1.0000
27.0100 2270.0000 1.0000
27.0200 2283.0000 1.0000
27.0300 2334.0000 1.0000
27.0400 2341.0000 1.0000
27.0500 2495.0000 1.0000
27.0600 2506.0000 1.0000
27.0700 2528.0000 1.0000
27.0800 2661.0000 1.0000
27.0900 2728.0000 1.0000
27.1000 2807.0000 1.0000
27.1100 2848.0000 1.0000
27.1200 3041.0000 1.0000
27.1300 3018.0000 1.0000
27.1400 3121.0000 1.0000
27.1500 3281.0000 1.0000
27.1600 3531.0000 1.0000
27.1700 3549.0000 1.0000
27.1800 3790.0000 1.0000
27.1900 3897.0000 1.0000
27.2000 4149.0000 1.0000
27.2100 4379.0000 1.0000
27.2200 4594.0000 1.0000
27.2300 4884.0000 1.0000
27.2400 5100.0000 1.0000
27.2500 5328.0000 1.0000
27.2600 5428.0000 1.0000
27.2700 5615.0000 1.0000
27.2800 5902.0000 1.0000
27.2900 6030.0000 1.0000
27.3000 6087.0000 1.0000
27.3100 6146.0000 1.0000
27.3200 6227.0000 1.0000
27.3300 6169.0000 1.0000
27.3400 6005.0000 1.0000
27.3500 5791.0000 1.0000
27.3600 5585.0000 1.0000
27.3700 5423.0000 1.0000
27.3800 5184.0000 1.0000
27.3900 5002.0000 1.0000
27.4000 4845.0000 1.0000
27.4100 4571.0000 1.0000
27.4200 4358.0000 1.0000
27.4300 4073.0000 1.0000
27.4400 3888.0000 1.0000
27.4500 3656.0000 1.0000
27.4600 3479.0000 1.0000
27.4700 3375.0000 1.0000
27.4800 3330.0000 1.0000
27.4900 3195.0000 1.0000
27.5000 2948.0000 1.0000
27.5100 2868.0000 1.0000
27.5200 2758.0000 1.0000
27.5300 2675.0000 1.0000
27.5400 2560.0000 1.0000
27.5500 2569.0000 1.0000
27.5600 2531.0000 1.0000
27.5700 2450.0000 1.0000
27.5800 2362.0000 1.0000
27.5900 2315.0000 1.0000
27.6000 2280.0000 1.0000
27.6100 2204.0000 1.0000
27.6200 2169.0000 1.0000
27.6300 2102.0000 1.0000
27.6400 2162.0000 1.0000
27.6500 2118.0000 1.0000
27.6600 2091.0000 1.0000
27.6700 2030.0000 1.0000
27.6800 2061.0000 1.0000
27.6900 2019.0000 1.0000
27.7000 2041.0000 1.0000
27.7100 2002.0000 1.0000
27.7200 1951.0000 1.0000
27.7300 1928.0000 1.0000
27.7400 1938.0000 1.0000
27.7500 1910.0000 1.0000
27.7600 1930.0000 1.0000
27.7700 1981.0000 1.0000
27.7800 1893.0000 1.0000
27.7900 1840.0000 1.0000
27.8000 1930.0000 1.0000
27.8100 1865.0000 1.0000
27.8200 1822.0000 1.0000
27.8300 1842.0000 1.0000
27.8400 1803.0000 1.0000
27.8500 1874.0000 1.0000
27.8600 1839.0000 1.0000
27.8700 1834.0000 1.0000
27.8800 1867.0000 1.0000
27.8900 1716.0000 1.0000
27.9000 1767.0000 1.0000
27.9100 1758.0000 1.0000
27.9200 1760.0000 1.0000
27.9300 1737.0000 1.0000
27.9400 1737.0000 1.0000
27.9500 1744.0000 1.0000
27.9600 1754.0000 1.0000
27.9700 1758.0000 1.0000
27.9800 1741.0000 1.0000
27.9900 1745.0000 1.0000
28.0000 1699.0000 1.0000
28.0100 1732.0000 1.0000
28.0200 1745.0000 1.0000
28.0300 1780.0000 1.0000
28.0400 1733.0000 1.0000
28.0500 1670.0000 1.0000
28.0600 1707.0000 1.0000
28.0700 1721.0000 1.0000
28.0800 1735.0000 1.0000
28.0900 1789.0000 1.0000
28.1000 1673.0000 1.0000
28.1100 1653.0000 1.0000
28.1200 1667.0000 1.0000
28.1300 1715.0000 1.0000
28.1400 1692.0000 1.0000
28.1500 1717.0000 1.0000
28.1600 1627.0000 1.0000
28.1700 1668.0000 1.0000
28.1800 1650.0000 1.0000
28.1900 1646.0000 1.0000
28.2000 1686.0000 1.0000
28.2100 1663.0000 1.0000
28.2200 1668.0000 1.0000
28.2300 1640.0000 1.0000
28.2400 1613.0000 1.0000
28.2500 1634.0000 1.0000
28.2600 1653.0000 1.0000
28.2700 1715.0000 1.0000
28.2800 1709.0000 1.0000
28.2900 1674.0000 1.0000
28.3000 1672.0000 1.0000
28.3100 1625.0000 1.0000
28.3200 1656.0000 1.0000
28.3300 1669.0000 1.0000
28.3400 1619.0000 1.0000
28.3500 1667.0000 1.0000
28.3600 1610.0000 1.0000
28.3700 1657.0000 1.0000
28.3800 1711.0000 1.0000
28.3900 1710.0000 1.0000
28.4000 1649.0000 1.0000
28.4100 1672.0000 1.0000
28.4200 1662.0000 1.0000
28.4300 1677.0000 1.0000
28.4400 1587.0000 1.0000
28.4500 1633.0000 1.0000
28.4600 1640.0000 1.0000
28.4700 1580.0000 1.0000
28.4800 1655.0000 1.0000
28.4900 1626.0000 1.0000
28.5000 1566.0000 1.0000
28.5100 1627.0000 1.0000
28.5200 1558.0000 1.0000
28.5300 1621.0000 1.0000
28.5400 1590.0000 1.0000
28.5500 1626.0000 1.0000
28.5600 1638.0000 1.0000
28.5700 1623.0000 1.0000
28.5800 1580.0000 1.0000
28.5900 1594.0000 1.0000
28.6000 1620.0000 1.0000
28.6100 1599.0000 1.0000
28.6200 1626.0000 1.0000
28.6300 1589.0000 1.0000
28.6400 1613.0000 1.0000
28.6500 1616.0000 1.0000
28.6600 1652.0000 1.0000
28.6700 1624.0000 1.0000
28.6800 1652.0000 1.0000
28.6900 1613.0000 1.0000
28.7000 1617.0000 1.0000
28.7100 1586.0000 1.0000
28.7200 1603.0000 1.0000
28.7300 1612.0000 1.0000
28.7400 1668.0000 1.0000
28.7500 1592.0000 1.0000
28.7600 1678.0000 1.0000
28.7700 1608.0000 1.0000
28.7800 1603.0000 1.0000
28.7900 1617.0000 1.0000
28.8000 1591.0000 1.0000
28.8100 1589.0000 1.0000
28.8200 1639.0000 1.0000
28.8300 1635.0000 1.0000
28.8400 1655.0000 1.0000
28.8500 1603.0000 1.0000
28.8600 1572.0000 1.0000
28.8700 1645.0000 1.0000
28.8800 1588.0000 1.0000
28.8900 1588.0000 1.0000
28.9000 1607.0000 1.0000
28.9100 1601.0000 1.0000
28.9200 1594.0000 1.0000
28.9300 1599.0000 1.0000
28.9400 1567.0000 1.0000
28.9500 1596.0000 1.0000
28.9600 1591.0000 1.0000
28.9700 1539.0000 1.0000
28.9800 1608.0000 1.0000
28.9900 1628.0000 1.0000
29.0000 1605.0000 1.0000
29.0100 1522.0000 1.0000
29.0200 1673.0000 1.0000
29.0300 1598.0000 1.0000
29.0400 1546.0000 1.0000
29.0500 1603.0000 1.0000
29.0600 1568.0000 1.0000
29.0700 1586.0000 1.0000
29.0800 1638.0000 1.0000
29.0900 1591.0000 1.0000
29.1000 1667.0000 1.0000
29.1100 1569.0000 1.0000
29.1200 1600.0000 1.0000
29.1300 1667.0000 1.0000
29.1400 1662.0000 1.0000
29.1500 1602.0000 1.0000
29.1600 1518.0000 1.0000
29.1700 1591.0000 1.0000
29.1800 1570.0000 1.0000
29.1900 1645.0000 1.0000
29.2000 1650.0000 1.0000
29.2100 1577.0000 1.0000
29.2200 1611.0000 1.0000
29.2300 1578.0000 1.0000
29.2400 1538.0000 1.0000
29.2500 1505.0000 1.0000
29.2600 1595.0000 1.0000
29.2700 1566.0000 1.0000
29.2800 1574.0000 1.0000
29.2900 1556.0000 1.0000
29.3000 1615.0000 1.0000
29.3100 1596.0000 1.0000
29.3200 1610.0000 1.0000
29.3300 1582.0000 1.0000
29.3400 1607.0000 1.0000
29.3500 1560.0000 1.0000
29.3600 1583.0000 1.0000
29.3700 1580.0000 1.0000
29.3800 1603.0000 1.0000
29.3900 1599.0000 1.0000
29.4000 1560.0000 1.0000
29.4100 1613.0000 1.0000
29.4200 1517.0000 1.0000
29.4300 1516.0000 1.0000
29.4400 1552.0000 1.0000
29.4500 1579.0000 1.0000
29.4600 1551.0000 1.0000
29.4700 1537.0000 1.0000
29.4800 1620.0000 1.0000
29.4900 1618.0000 1.0000
29.5000 1596.0000 1.0000
29.5100 1607.0000 1.0000
29.5200 1486.0000 1.0000
29.5300 1602.0000 1.0000
29.5400 1622.0000 1.0000
29.5500 1508.0000 1.0000
29.5600 1578.0000 1.0000
29.5700 1568.0000 1.0000
29.5800 1524.0000 1.0000
29.5900 1533.0000 1.0000
29.6000 1593.0000 1.0000
29.6100 1547.0000 1.0000
29.6200 1601.0000 1.0000
29.6300 1578.0000 1.0000
29.6400 1566.0000 1.0000
29.6500 1582.0000 1.0000
29.6600 1525.0000 1.0000
29.6700 1572.0000 1.0000
29.6800 1521.0000 1.0000
29.6900 1559.0000 1.0000
29.7000 1610.0000 1.0000
29.7100 1530.0000 1.0000
29.7200 1569.0000 1.0000
29.7300 1558.0000 1.0000
29.7400 1548.0000 1.0000
29.7500 1503.0000 1.0000
29.7600 1551.0000 1.0000
29.7700 1525.0000 1.0000
29.7800 1570.0000 1.0000
29.7900 1547.0000 1.0000
29.8000 1485.0000 1.0000
29.8100 1510.0000 1.0000
29.8200 1566.0000 1.0000
29.8300 1557.0000 1.0000
29.8400 1462.0000 1.0000
29.8500 1525.0000 1.0000
29.8600 1533.0000 1.0000
29.8700 1503.0000 1.0000
29.8800 1466.0000 1.0000
29.8900 1569.0000 1.0000
29.9000 1496.0000 1.0000
29.9100 1509.0000 1.0000
29.9200 1533.0000 1.0000
29.9300 1530.0000 1.0000
29.9400 1544.0000 1.0000
29.9500 1527.0000 1.0000
29.9600 1519.0000 1.0000
29.9700 1570.0000 1.0000
29.9800 1569.0000 1.0000
29.9900 1575.0000 1.0000
30.0000 1523.0000 1.0000
30.0100 1462.0000 1.0000
30.0200 1499.0000 1.0000
30.0300 1539.0000 1.0000
30.0400 1504.0000 1.0000
30.0500 1588.0000 1.0000
30.0600 1531.0000 1.0000
30.0700 1525.0000 1.0000
30.0800 1581.0000 1.0000
30.0900 1570.0000 1.0000
30.1000 1543.0000 1.0000
30.1100 1625.0000 1.0000
30.1200 1580.0000 1.0000
30.1300 1468.0000 1.0000
30.1400 1493.0000 1.0000
30.1500 1547.0000 1.0000
30.1600 1583.0000 1.0000
30.1700 1484.0000 1.0000
30.1800 1431.0000 1.0000
30.1900 1486.0000 1.0000
30.2000 1540.0000 1.0000
30.2100 1485.0000 1.0000
30.2200 1566.0000 1.0000
30.2300 1548.0000 1.0000
30.2400 1502.0000 1.0000
30.2500 1511.0000 1.0000
30.2600 1555.0000 1.0000
30.2700 1469.0000 1.0000
30.2800 1577.0000 1.0000
30.2900 1564.0000 1.0000
30.3000 1557.0000 1.0000
30.3100 1546.0000 1.0000
30.3200 1545.0000 1.0000
30.3300 1509.0000 1.0000
30.3400 1465.0000 1.0000
30.3500 1554.0000 1.0000
30.3600 1529.0000 1.0000
30.3700 1546.0000 1.0000
30.3800 1432.0000 1.0000
30.3900 1544.0000 1.0000
30.4000 1469.0000 1.0000
30.4100 1529.0000 1.0000
30.4200 1476.0000 1.0000
30.4300 1529.0000 1.0000
30.4400 1583.0000 1.0000
30.4500 1501.0000 1.0000
30.4600 1537.0000 1.0000
30.4700 1545.0000 1.0000
30.4800 1466.0000 1.0000
30.4900 1487.0000 1.0000
30.5000 1500.0000 1.0000
30.5100 1521.0000 1.0000
30.5200 1604.0000 1.0000
30.5300 1551.0000 1.0000
30.5400 1505.0000 1.0000
30.5500 1477.0000 1.0000
30.5600 1526.0000 1.0000
30.5700 1591.0000 1.0000
30.5800 1541.0000 1.0000
30.5900 1460.0000 1.0000
30.6000 1517.0000 1.0000
30.6100 1508.0000 1.0000
30.6200 1597.0000 1.0000
30.6300 1493.0000 1.0000
30.6400 1450.0000 1.0000
30.6500 1502.0000 1.0000
30.6600 1475.0000 1.0000
30.6700 1475.0000 1.0000
30.6800 1506.0000 1.0000
30.6900 1524.0000 1.0000
30.7000 1477.0000 1.0000
30.7100 1481.0000 1.0000
30.7200 1548.0000 1.0000
30.7300 1541.0000 1.0000
30.7400 1482.0000 1.0000
30.7500 1473.0000 1.0000
30.7600 1489.0000 1.0000
30.7700 1509.0000 1.0000
30.7800 1521.0000 1.0000
30.7900 1495.0000 1.0000
30.8000 1532.0000 1.0000
30.8100 1538.0000 1.0000
30.8200 1531.0000 1.0000
30.8300 1553.0000 1.0000
30.8400 1487.0000 1.0000
30.8500 1433.0000 1.0000
30.8600 1401.0000 1.0000
30.8700 1467.0000 1.0000
30.8800 1502.0000 1.0000
30.8900 1438.0000 1.0000
30.9000 1479.0000 1.0000
30.9100 1469.0000 1.0000
30.9200 1468.0000 1.0000
30.9300 1512.0000 1.0000
30.9400 1467.0000 1.0000
30.9500 1488.0000 1.0000
30.9600 1452.0000 1.0000
30.9700 1502.0000 1.0000
30.9800 1470.0000 1.0000
30.9900 1528.0000 1.0000
31.0000 1490.0000 1.0000
31.0100 1507.0000 1.0000
31.0200 1505.0000 1.0000
31.0300 1428.0000 1.0000
31.0400 1465.0000 1.0000
31.0500 1444.0000 1.0000
31.0600 1486.0000 1.0000
31.0700 1536.0000 1.0000
31.0800 1461.0000 1.0000
31.0900 1461.0000 1.0000
31.1000 1509.0000 1.0000
31.1100 1522.0000 1.0000
31.1200 1537.0000 1.0000
31.1300 1545.0000 1.0000
31.1400 1435.0000 1.0000
31.1500 1500.0000 1.0000
31.1600 1461.0000 1.0000
31.1700 1472.0000 1.0000
31.1800 1498.0000 1.0000
31.1900 1456.0000 1.0000
31.2000 1461.0000 1.0000
31.2100 1475.0000 1.0000
31.2200 1462.0000 1.0000
31.2300 1450.0000 1.0000
31.2400 1440.0000 1.0000
31.2500 1497.0000 1.0000
31.2600 1468.0000 1.0000
31.2700 1425.0000 1.0000
31.2800 1422.0000 1.0000
31.2900 1450.0000 1.0000
31.3000 1484.0000 1.0000
31.3100 1502.0000 1.0000
31.3200 1530.0000 1.0000
31.3300 1482.0000 1.0000
31.3400 1531.0000 1.0000
31.3500 1454.0000 1.0000
31.3600 1421.0000 1.0000
31.3700 1432.0000 1.0000
31.3800 1477.0000 1.0000
31.3900 1470.0000 1.0000
31.4000 1482.0000 1.0000
31.4100 1455.0000 1.0000
31.4200 1454.0000 1.0000
31.4300 1433.0000 1.0000
31.4400 1435.0000 1.0000
31.4500 1477.0000 1.0000
31.4600 1475.0000 1.0000
31.4700 1476.0000 1.0000
31.4800 1455.0000 1.0000
31.4900 1412.0000 1.0000
31.5000 1420.0000 1.0000
31.5100 1435.0000 1.0000
31.5200 1431.0000 1.0000
31.5300 1454.0000 1.0000
31.5400 1458.0000 1.0000
31.5500 1421.0000 1.0000
31.5600 1429.0000 1.0000
31.5700 1460.0000 1.0000
31.5800 1496.0000 1.0000
31.5900 1442.0000 1.0000
31.6000 1462.0000 1.0000
31.6100 1450.0000 1.0000
31.6200 1446.0000 1.0000
31.6300 1480.0000 1.0000
31.6400 1433.0000 1.0000
31.6500 1364.0000 1.0000
31.6600 1369.0000 1.0000
31.6700 1425.0000 1.0000
31.6800 1436.0000 1.0000
31.6900 1395.0000 1.0000
31.7000 1480.0000 1.0000
31.7100 1396.0000 1.0000
31.7200 1390.0000 1.0000
31.7300 1416.0000 1.0000
31.7400 1415.0000 1.0000
31.7500 1443.0000 1.0000
31.7600 1535.0000 1.0000
31.7700 1436.0000 1.0000
31.7800 1438.0000 1.0000
31.7900 1546.0000 1.0000
31.8000 1504.0000 1.0000
31.8100 1443.0000 1.0000
31.8200 1482.0000 1.0000
31.8300 1512.0000 1.0000
31.8400 1443.0000 1.0000
31.8500 1476.0000 1.0000
31.8600 1423.0000 1.0000
31.8700 1448.0000 1.0000
31.8800 1441.0000 1.0000
31.8900 1391.0000 1.0000
31.9000 1480.0000 1.0000
31.9100 1451.0000 1.0000
31.9200 1429.0000 1.0000
31.9300 1455.0000 1.0000
31.9400 1519.0000 1.0000
31.9500 1467.0000 1.0000
31.9600 1451.0000 1.0000
31.9700 1466.0000 1.0000
31.9800 1453.0000 1.0000
31.9900 1462.0000 1.0000
32.0000 1464.0000 1.0000
32.0100 1458.0000 1.0000
32.0200 1535.0000 1.0000
32.0300 1500.0000 1.0000
32.0400 1477.0000 1.0000
32.0500 1464.0000 1.0000
32.0600 1466.0000 1.0000
32.0700 1468.0000 1.0000
32.0800 1450.0000 1.0000
32.0900 1461.0000 1.0000
32.1000 1445.0000 1.0000
32.1100 1493.0000 1.0000
32.1200 1481.0000 1.0000
32.1300 1439.0000 1.0000
32.1400 1453.0000 1.0000
32.1500 1421.0000 1.0000
32.1600 1441.0000 1.0000
32.1700 1449.0000 1.0000
32.1800 1463.0000 1.0000
32.1900 1430.0000 1.0000
32.2000 1437.0000 1.0000
32.2100 1463.0000 1.0000
32.2200 1366.0000 1.0000
32.2300 1430.0000 1.0000
32.2400 1448.0000 1.0000
32.2500 1474.0000 1.0000
32.2600 1452.0000 1.0000
32.2700 1452.0000 1.0000
32.2800 1505.0000 1.0000
32.2900 1455.0000 1.0000
32.3000 1387.0000 1.0000
32.3100 1380.0000 1.0000
32.3200 1377.0000 1.0000
32.3300 1438.0000 1.0000
32.3400 1401.0000 1.0000
32.3500 1455.0000 1.0000
32.3600 1454.0000 1.0000
32.3700 1431.0000 1.0000
32.3800 1449.0000 1.0000
32.3900 1444.0000 1.0000
32.4000 1421.0000 1.0000
32.4100 1417.0000 1.0000
32.4200 1420.0000 1.0000
32.4300 1507.0000 1.0000
32.4400 1458.0000 1.0000
32.4500 1398.0000 1.0000
32.4600 1407.0000 1.0000
32.4700 1439.0000 1.0000
32.4800 1457.0000 1.0000
32.4900 1376.0000 1.0000
32.5000 1359.0000 1.0000
32.5100 1378.0000 1.0000
32.5200 1429.0000 1.0000
32.5300 1394.0000 1.0000
32.5400 1400.0000 1.0000
32.5500 1353.0000 1.0000
32.5600 1398.0000 1.0000
32.5700 1404.0000 1.0000
32.5800 1413.0000 1.0000
32.5900 1379.0000 1.0000
32.6000 1284.0000 1.0000
32.6100 1400.0000 1.0000
32.6200 1437.0000 1.0000
32.6300 1377.0000 1.0000
32.6400 1360.0000 1.0000
32.6500 1374.0000 1.0000
32.6600 1394.0000 1.0000
32.6700 1406.0000 1.0000
32.6800 1412.0000 1.0000
32.6900 1433.0000 1.0000
32.7000 1445.0000 1.0000
32.7100 1379.0000 1.0000
32.7200 1363.0000 1.0000
32.7300 1409.0000 1.0000
32.7400 1361.0000 1.0000
32.7500 1391.0000 1.0000
32.7600 1357.0000 1.0000
32.7700 1391.0000 1.0000
32.7800 1378.0000 1.0000
32.7900 1348.0000 1.0000
32.8000 1362.0000 1.0000
32.8100 1318.0000 1.0000
32.8200 1395.0000 1.0000
32.8300 1429.0000 1.0000
32.8400 1400.0000 1.0000
32.8500 1375.0000 1.0000
32.8600 1331.0000 1.0000
32.8700 1363.0000 1.0000
32.8800 1431.0000 1.0000
32.8900 1385.0000 1.0000
32.9000 1382.0000 1.0000
32.9100 1398.0000 1.0000
32.9200 1319.0000 1.0000
32.9300 1385.0000 1.0000
32.9400 1416.0000 1.0000
32.9500 1398.0000 1.0000
32.9600 1359.0000 1.0000
32.9700 1344.0000 1.0000
32.9800 1344.0000 1.0000
32.9900 1373.0000 1.0000
33.0000 1371.0000 1.0000
33.0100 1361.0000 1.0000
33.0200 1407.0000 1.0000
33.0300 1325.0000 1.0000
33.0400 1397.0000 1.0000
33.0500 1363.0000 1.0000
33.0600 1351.0000 1.0000
33.0700 1408.0000 1.0000
33.0800 1404.0000 1.0000
33.0900 1367.0000 1.0000
33.1000 1388.0000 1.0000
33.1100 1413.0000 1.0000
33.1200 1367.0000 1.0000
33.1300 1291.0000 1.0000
33.1400 1318.0000 1.0000
33.1500 1375.0000 1.0000
33.1600 1352.0000 1.0000
33.1700 1320.0000 1.0000
33.1800 1345.0000 1.0000
33.1900 1323.0000 1.0000
33.2000 1341.0000 1.0000
33.2100 1284.0000 1.0000
33.2200 1373.0000 1.0000
33.2300 1327.0000 1.0000
33.2400 1338.0000 1.0000
33.2500 1410.0000 1.0000
33.2600 1393.0000 1.0000
33.2700 1370.0000 1.0000
33.2800 1395.0000 1.0000
33.2900 1444.0000 1.0000
33.3000 1362.0000 1.0000
33.3100 1343.0000 1.0000
33.3200 1362.0000 1.0000
33.3300 1401.0000 1.0000
33.3400 1348.0000 1.0000
33.3500 1369.0000 1.0000
33.3600 1373.0000 1.0000
33.3700 1372.0000 1.0000
33.3800 1351.0000 1.0000
33.3900 1343.0000 1.0000
33.4000 1361.0000 1.0000
33.4100 1435.0000 1.0000
33.4200 1380.0000 1.0000
33.4300 1340.0000 1.0000
33.4400 1359.0000 1.0000
33.4500 1369.0000 1.0000
33.4600 1315.0000 1.0000
33.4700 1365.0000 1.0000
33.4800 1424.0000 1.0000
33.4900 1392.0000 1.0000
33.5000 1381.0000 1.0000
33.5100 1388.0000 1.0000
33.5200 1363.0000 1.0000
33.5300 1341.0000 1.0000
33.5400 1412.0000 1.0000
33.5500 1435.0000 1.0000
33.5600 1432.0000 1.0000
33.5700 1401.0000 1.0000
33.5800 1395.0000 1.0000
33.5900 1407.0000 1.0000
33.6000 1402.0000 1.0000
33.6100 1344.0000 1.0000
33.6200 1341.0000 1.0000
33.6300 1346.0000 1.0000
33.6400 1380.0000 1.0000
33.6500 1341.0000 1.0000
33.6600 1367.0000 1.0000
33.6700 1400.0000 1.0000
33.6800 1390.0000 1.0000
33.6900 1412.0000 1.0000
33.7000 1333.0000 1.0000
33.7100 1432.0000 1.0000
33.7200 1432.0000 1.0000
33.7300 1425.0000 1.0000
33.7400 1357.0000 1.0000
33.7500 1500.0000 1.0000
33.7600 1446.0000 1.0000
33.7700 1373.0000 1.0000
33.7800 1396.0000 1.0000
33.7900 1414.0000 1.0000
33.8000 1426.0000 1.0000
33.8100 1441.0000 1.0000
33.8200 1430.0000 1.0000
33.8300 1413.0000 1.0000
33.8400 1473.0000 1.0000
33.8500 1468.0000 1.0000
33.8600 1449.0000 1.0000
33.8700 1532.0000 1.0000
33.8800 1476.0000 1.0000
33.8900 1434.0000 1.0000
33.9000 1486.0000 1.0000
33.9100 1465.0000 1.0000
33.9200 1446.0000 1.0000
33.9300 1539.0000 1.0000
33.9400 1455.0000 1.0000
33.9500 1458.0000 1.0000
33.9600 1466.0000 1.0000
33.9700 1503.0000 1.0000
33.9800 1509.0000 1.0000
33.9900 1471.0000 1.0000
34.0000 1508.0000 1.0000
34.0100 1493.0000 1.0000
34.0200 1536.0000 1.0000
34.0300 1519.0000 1.0000
34.0400 1482.0000 1.0000
34.0500 1565.0000 1.0000
34.0600 1518.0000 1.0000
34.0700 1509.0000 1.0000
34.0800 1463.0000 1.0000
34.0900 1456.0000 1.0000
34.1000 1521.0000 1.0000
34.1100 1523.0000 1.0000
34.1200 1498.0000 1.0000
34.1300 1523.0000 1.0000
34.1400 1546.0000 1.0000
34.1500 1524.0000 1.0000
34.1600 1497.0000 1.0000
34.1700 1569.0000 1.0000
34.1800 1548.0000 1.0000
34.1900 1517.0000 1.0000
34.2000 1540.0000 1.0000
34.2100 1594.0000 1.0000
34.2200 1575.0000 1.0000
34.2300 1665.0000 1.0000
34.2400 1631.0000 1.0000
34.2500 1652.0000 1.0000
34.2600 1663.0000 1.0000
34.2700 1691.0000 1.0000
34.2800 1716.0000 1.0000
34.2900 1692.0000 1.0000
34.3000 1756.0000 1.0000
34.3100 1767.0000 1.0000
34.3200 1805.0000 1.0000
34.3300 1871.0000 1.0000
34.3400 1963.0000 1.0000
34.3500 1970.0000 1.0000
34.3600 1984.0000 1.0000
34.3700 2122.0000 1.0000
34.3800 2098.0000 1.0000
34.3900 2094.0000 1.0000
34.4000 2283.0000 1.0000
34.4100 2393.0000 1.0000
34.4200 2466.0000 1.0000
34.4300 2500.0000 1.0000
34.4400 2586.0000 1.0000
34.4500 2653.0000 1.0000
34.4600 2678.0000 1.0000
34.4700 2772.0000 1.0000
34.4800 2825.0000 1.0000
34.4900 2904.0000 1.0000
34.5000 2860.0000 1.0000
34.5100 2886.0000 1.0000
34.5200 2828.0000 1.0000
34.5300 2862.0000 1.0000
34.5400 2788.0000 1.0000
34.5500 2750.0000 1.0000
34.5600 2679.0000 1.0000
34.5700 2643.0000 1.0000
34.5800 2524.0000 1.0000
34.5900 2514.0000 1.0000
34.6000 2498.0000 1.0000
34.6100 2377.0000 1.0000
34.6200 2290.0000 1.0000
34.6300 2195.0000 1.0000
34.6400 2160.0000 1.0000
34.6500 2163.0000 1.0000
34.6600 1982.0000 1.0000
34.6700 1985.0000 1.0000
34.6800 1940.0000 1.0000
34.6900 1772.0000 1.0000
34.7000 1814.0000 1.0000
34.7100 1808.0000 1.0000
34.7200 1775.0000 1.0000
34.7300 1783.0000 1.0000
34.7400 1686.0000 1.0000
34.7500 1712.0000 1.0000
34.7600 1703.0000 1.0000
34.7700 1661.0000 1.0000
34.7800 1655.0000 1.0000
34.7900 1632.0000 1.0000
34.8000 1593.0000 1.0000
34.8100 1576.0000 1.0000
34.8200 1510.0000 1.0000
34.8300 1493.0000 1.0000
34.8400 1500.0000 1.0000
34.8500 1505.0000 1.0000
34.8600 1473.0000 1.0000
34.8700 1477.0000 1.0000
34.8800 1453.0000 1.0000
34.8900 1458.0000 1.0000
34.9000 1411.0000 1.0000
34.9100 1450.0000 1.0000
34.9200 1402.0000 1.0000
34.9300 1388.0000 1.0000
34.9400 1366.0000 1.0000
34.9500 1314.0000 1.0000
34.9600 1398.0000 1.0000
34.9700 1331.0000 1.0000
34.9800 1353.0000 1.0000
34.9900 1344.0000 1.0000
35.0000 1362.0000 1.0000
35.0100 1348.0000 1.0000
35.0200 1323.0000 1.0000
35.0300 1331.0000 1.0000
35.0400 1306.0000 1.0000
35.0500 1332.0000 1.0000
35.0600 1309.0000 1.0000
35.0700 1311.0000 1.0000
35.0800 1329.0000 1.0000
35.0900 1289.0000 1.0000
35.1000 1305.0000 1.0000
35.1100 1360.0000 1.0000
35.1200 1266.0000 1.0000
35.1300 1312.0000 1.0000
35.1400 1204.0000 1.0000
35.1500 1279.0000 1.0000
35.1600 1264.0000 1.0000
35.1700 1293.0000 1.0000
35.1800 1298.0000 1.0000
35.1900 1267.0000 1.0000
35.2000 1220.0000 1.0000
35.2100 1266.0000 1.0000
35.2200 1231.0000 1.0000
35.2300 1269.0000 1.0000
35.2400 1197.0000 1.0000
35.2500 1250.0000 1.0000
35.2600 1264.0000 1.0000
35.2700 1288.0000 1.0000
35.2800 1293.0000 1.0000
35.2900 1312.0000 1.0000
35.3000 1206.0000 1.0000
35.3100 1240.0000 1.0000
35.3200 1285.0000 1.0000
35.3300 1247.0000 1.0000
35.3400 1270.0000 1.0000
35.3500 1242.0000 1.0000
35.3600 1242.0000 1.0000
35.3700 1281.0000 1.0000
35.3800 1198.0000 1.0000
35.3900 1303.0000 1.0000
35.4000 1241.0000 1.0000
35.4100 1294.0000 1.0000
35.4200 1270.0000 1.0000
35.4300 1277.0000 1.0000
35.4400 1266.0000 1.0000
35.4500 1201.0000 1.0000
35.4600 1216.0000 1.0000
35.4700 1195.0000 1.0000
35.4800 1194.0000 1.0000
35.4900 1239.0000 1.0000
35.5000 1209.0000 1.0000
35.5100 1284.0000 1.0000
35.5200 1209.0000 1.0000
35.5300 1231.0000 1.0000
35.5400 1257.0000 1.0000
35.5500 1249.0000 1.0000
35.5600 1190.0000 1.0000
35.5700 1242.0000 1.0000
35.5800 1274.0000 1.0000
35.5900 1215.0000 1.0000
35.6000 1171.0000 1.0000
35.6100 1178.0000 1.0000
35.6200 1184.0000 1.0000
35.6300 1217.0000 1.0000
35.6400 1256.0000 1.0000
35.6500 1173.0000 1.0000
35.6600 1230.0000 1.0000
35.6700 1226.0000 1.0000
35.6800 1196.0000 1.0000
35.6900 1261.0000 1.0000
35.7000 1190.0000 1.0000
35.7100 1196.0000 1.0000
35.7200 1212.0000 1.0000
35.7300 1180.0000 1.0000
35.7400 1166.0000 1.0000
35.7500 1193.0000 1.0000
35.7600 1218.0000 1.0000
35.7700 1192.0000 1.0000
35.7800 1237.0000 1.0000
35.7900 1183.0000 1.0000
35.8000 1222.0000 1.0000
35.8100 1208.0000 1.0000
35.8200 1255.0000 1.0000
35.8300 1251.0000 1.0000
35.8400 1190.0000 1.0000
35.8500 1240.0000 1.0000
35.8600 1195.0000 1.0000
35.8700 1195.0000 1.0000
35.8800 1180.0000 1.0000
35.8900 1247.0000 1.0000
35.9000 1194.0000 1.0000
35.9100 1200.0000 1.0000
35.9200 1214.0000 1.0000
35.9300 1167.0000 1.0000
35.9400 1188.0000 1.0000
35.9500 1203.0000 1.0000
35.9600 1284.0000 1.0000
35.9700 1223.0000 1.0000
35.9800 1178.0000 1.0000
35.9900 1196.0000 1.0000
36.0000 1276.0000 1.0000
36.0100 1239.0000 1.0000
36.0200 1237.0000 1.0000
36.0300 1284.0000 1.0000
36.0400 1278.0000 1.0000
36.0500 1261.0000 1.0000
36.0600 1290.0000 1.0000
36.0700 1283.0000 1.0000
36.0800 1293.0000 1.0000
36.0900 1309.0000 1.0000
36.1000 1283.0000 1.0000
36.1100 1326.0000 1.0000
36.1200 1344.0000 1.0000
36.1300 1353.0000 1.0000
36.1400 1312.0000 1.0000
36.1500 1339.0000 1.0000
36.1600 1387.0000 1.0000
36.1700 1348.0000 1.0000
36.1800 1367.0000 1.0000
36.1900 1453.0000 1.0000
36.2000 1410.0000 1.0000
36.2100 1459.0000 1.0000
36.2200 1517.0000 1.0000
36.2300 1554.0000 1.0000
36.2400 1553.0000 1.0000
36.2500 1545.0000 1.0000
36.2600 1514.0000 1.0000
36.2700 1610.0000 1.0000
36.2800 1660.0000 1.0000
36.2900 1649.0000 1.0000
36.3000 1688.0000 1.0000
36.3100 1764.0000 1.0000
36.3200 1870.0000 1.0000
36.3300 1835.0000 1.0000
36.3400 1828.0000 1.0000
36.3500 1929.0000 1.0000
36.3600 1939.0000 1.0000
36.3700 1955.0000 1.0000
36.3800 2003.0000 1.0000
36.3900 2056.0000 1.0000
36.4000 2118.0000 1.0000
36.4100 2145.0000 1.0000
36.4200 2090.0000 1.0000
36.4300 2141.0000 1.0000
36.4400 2195.0000 1.0000
36.4500 2171.0000 1.0000
36.4600 2174.0000 1.0000
36.4700 2022.0000 1.0000
36.4800 2029.0000 1.0000
36.4900 2094.0000 1.0000
36.5000 2063.0000 1.0000
36.5100 1913.0000 1.0000
36.5200 1919.0000 1.0000
36.5300 1905.0000 1.0000
36.5400 1883.0000 1.0000
36.5500 1764.0000 1.0000
36.5600 1707.0000 1.0000
36.5700 1715.0000 1.0000
36.5800 1680.0000 1.0000
36.5900 1543.0000 1.0000
36.6000 1595.0000 1.0000
36.6100 1520.0000 1.0000
36.6200 1435.0000 1.0000
36.6300 1491.0000 1.0000
36.6400 1406.0000 1.0000
36.6500 1413.0000 1.0000
36.6600 1299.0000 1.0000
36.6700 1358.0000 1.0000
36.6800 1346.0000 1.0000
36.6900 1287.0000 1.0000
36.7000 1272.0000 1.0000
36.7100 1285.0000 1.0000
36.7200 1262.0000 1.0000
36.7300 1256.0000 1.0000
36.7400 1208.0000 1.0000
36.7500 1273.0000 1.0000
36.7600 1259.0000 1.0000
36.7700 1210.0000 1.0000
36.7800 1187.0000 1.0000
36.7900 1182.0000 1.0000
36.8000 1183.0000 1.0000
36.8100 1186.0000 1.0000
36.8200 1132.0000 1.0000
36.8300 1150.0000 1.0000
36.8400 1165.0000 1.0000
36.8500 1125.0000 1.0000
36.8600 1130.0000 1.0000
36.8700 1122.0000 1.0000
36.8800 1160.0000 1.0000
36.8900 1163.0000 1.0000
36.9000 1184.0000 1.0000
36.9100 1161.0000 1.0000
36.9200 1065.0000 1.0000
36.9300 1112.0000 1.0000
36.9400 1163.0000 1.0000
36.9500 1176.0000 1.0000
36.9600 1121.0000 1.0000
36.9700 1117.0000 1.0000
36.9800 1100.0000 1.0000
36.9900 1118.0000 1.0000
37.0000 1111.0000 1.0000
37.0100 1058.0000 1.0000
37.0200 1111.0000 1.0000
37.0300 1109.0000 1.0000
37.0400 1149.0000 1.0000
37.0500 1134.0000 1.0000
37.0600 1149.0000 1.0000
37.0700 1130.0000 1.0000
37.0800 1118.0000 1.0000
37.0900 1146.0000 1.0000
37.1000 1137.0000 1.0000
37.1100 1144.0000 1.0000
37.1200 1100.0000 1.0000
37.1300 1158.0000 1.0000
37.1400 1139.0000 1.0000
37.1500 1133.0000 1.0000
37.1600 1053.0000 1.0000
37.1700 1117.0000 1.0000
37.1800 1134.0000 1.0000
37.1900 1085.0000 1.0000
37.2000 1096.0000 1.0000
37.2100 1103.0000 1.0000
37.2200 1129.0000 1.0000
37.2300 1111.0000 1.0000
37.2400 1104.0000 1.0000
37.2500 1114.0000 1.0000
37.2600 1088.0000 1.0000
37.2700 1103.0000 1.0000
37.2800 1105.0000 1.0000
37.2900 1143.0000 1.0000
37.3000 1122.0000 1.0000
37.3100 1069.0000 1.0000
37.3200 1124.0000 1.0000
37.3300 1071.0000 1.0000
37.3400 1068.0000 1.0000
37.3500 1061.0000 1.0000
37.3600 1124.0000 1.0000
37.3700 1121.0000 1.0000
37.3800 1134.0000 1.0000
37.3900 1115.0000 1.0000
37.4000 1088.0000 1.0000
37.4100 1191.0000 1.0000
37.4200 1096.0000 1.0000
37.4300 1125.0000 1.0000
37.4400 1180.0000 1.0000
37.4500 1146.0000 1.0000
37.4600 1123.0000 1.0000
37.4700 1123.0000 1.0000
37.4800 1121.0000 1.0000
37.4900 1131.0000 1.0000
37.5000 1099.0000 1.0000
37.5100 1171.0000 1.0000
37.5200 1127.0000 1.0000
37.5300 1096.0000 1.0000
37.5400 1133.0000 1.0000
37.5500 1175.0000 1.0000
37.5600 1124.0000 1.0000
37.5700 1122.0000 1.0000
37.5800 1086.0000 1.0000
37.5900 1091.0000 1.0000
37.6000 1085.0000 1.0000
37.6100 1121.0000 1.0000
37.6200 1085.0000 1.0000
37.6300 1159.0000 1.0000
37.6400 1139.0000 1.0000
37.6500 1100.0000 1.0000
37.6600 1072.0000 1.0000
37.6700 1057.0000 1.0000
37.6800 1118.0000 1.0000
37.6900 1115.0000 1.0000
37.7000 1150.0000 1.0000
37.7100 1095.0000 1.0000
37.7200 1083.0000 1.0000
37.7300 1130.0000 1.0000
37.7400 1104.0000 1.0000
37.7500 1105.0000 1.0000
37.7600 1077.0000 1.0000
37.7700 1091.0000 1.0000
37.7800 1122.0000 1.0000
37.7900 1093.0000 1.0000
37.8000 1143.0000 1.0000
37.8100 1150.0000 1.0000
37.8200 1180.0000 1.0000
37.8300 1131.0000 1.0000
37.8400 1198.0000 1.0000
37.8500 1172.0000 1.0000
37.8600 1123.0000 1.0000
37.8700 1115.0000 1.0000
37.8800 1159.0000 1.0000
37.8900 1124.0000 1.0000
37.9000 1114.0000 1.0000
37.9100 1127.0000 1.0000
37.9200 1145.0000 1.0000
37.9300 1115.0000 1.0000
37.9400 1187.0000 1.0000
37.9500 1172.0000 1.0000
37.9600 1165.0000 1.0000
37.9700 1200.0000 1.0000
37.9800 1131.0000 1.0000
37.9900 1186.0000 1.0000
38.0000 1148.0000 1.0000
38.0100 1128.0000 1.0000
38.0200 1207.0000 1.0000
38.0300 1200.0000 1.0000
38.0400 1238.0000 1.0000
38.0500 1221.0000 1.0000
38.0600 1239.0000 1.0000
38.0700 1203.0000 1.0000
38.0800 1230.0000 1.0000
38.0900 1251.0000 1.0000
38.1000 1303.0000 1.0000
38.1100 1251.0000 1.0000
38.1200 1286.0000 1.0000
38.1300 1316.0000 1.0000
38.1400 1344.0000 1.0000
38.1500 1363.0000 1.0000
38.1600 1430.0000 1.0000
38.1700 1379.0000 1.0000
38.1800 1473.0000 1.0000
38.1900 1463.0000 1.0000
38.2000 1534.0000 1.0000
38.2100 1540.0000 1.0000
38.2200 1610.0000 1.0000
38.2300 1620.0000 1.0000
38.2400 1697.0000 1.0000
38.2500 1705.0000 1.0000
38.2600 1772.0000 1.0000
38.2700 1817.0000 1.0000
38.2800 1928.0000 1.0000
38.2900 1995.0000 1.0000
38.3000 2002.0000 1.0000
38.3100 2142.0000 1.0000
38.3200 2202.0000 1.0000
38.3300 2337.0000 1.0000
38.3400 2395.0000 1.0000
38.3500 2502.0000 1.0000
38.3600 2651.0000 1.0000
38.3700 2885.0000 1.0000
38.3800 2989.0000 1.0000
38.3900 3198.0000 1.0000
38.4000 3370.0000 1.0000
38.4100 3688.0000 1.0000
38.4200 4001.0000 1.0000
38.4300 4275.0000 1.0000
38.4400 4440.0000 1.0000
38.4500 4790.0000 1.0000
38.4600 5054.0000 1.0000
38.4700 5493.0000 1.0000
38.4800 5894.0000 1.0000
38.4900 6196.0000 1.0000
38.5000 6428.0000 1.0000
38.5100 6722.0000 1.0000
38.5200 7038.0000 1.0000
38.5300 7278.0000 1.0000
38.5400 7380.0000 1.0000
38.5500 7439.0000 1.0000
38.5600 7423.0000 1.0000
38.5700 7199.0000 1.0000
38.5800 7121.0000 1.0000
38.5900 6956.0000 1.0000
38.6000 6574.0000 1.0000
38.6100 6429.0000 1.0000
38.6200 6298.0000 1.0000
38.6300 6217.0000 1.0000
38.6400 5983.0000 1.0000
38.6500 5559.0000 1.0000
38.6600 5210.0000 1.0000
38.6700 4952.0000 1.0000
38.6800 4661.0000 1.0000
38.6900 4425.0000 1.0000
38.7000 4189.0000 1.0000
38.7100 3813.0000 1.0000
38.7200 3635.0000 1.0000
38.7300 3324.0000 1.0000
38.7400 3312.0000 1.0000
38.7500 3072.0000 1.0000
38.7600 2835.0000 1.0000
38.7700 2618.0000 1.0000
38.7800 2552.0000 1.0000
38.7900 2313.0000 1.0000
38.8000 2232.0000 1.0000
38.8100 2110.0000 1.0000
38.8200 2001.0000 1.0000
38.8300 1898.0000 1.0000
38.8400 1914.0000 1.0000
38.8500 1792.0000 1.0000
38.8600 1761.0000 1.0000
38.8700 1668.0000 1.0000
38.8800 1594.0000 1.0000
38.8900 1552.0000 1.0000
38.9000 1514.0000 1.0000
38.9100 1511.0000 1.0000
38.9200 1437.0000 1.0000
38.9300 1381.0000 1.0000
38.9400 1357.0000 1.0000
38.9500 1293.0000 1.0000
38.9600 1325.0000 1.0000
38.9700 1357.0000 1.0000
38.9800 1308.0000 1.0000
38.9900 1233.0000 1.0000
39.0000 1227.0000 1.0000
39.0100 1226.0000 1.0000
39.0200 1211.0000 1.0000
39.0300 1162.0000 1.0000
39.0400 1188.0000 1.0000
39.0500 1218.0000 1.0000
39.0600 1167.0000 1.0000
39.0700 1113.0000 1.0000
39.0800 1106.0000 1.0000
39.0900 1090.0000 1.0000
39.1000 1083.0000 1.0000
39.1100 1090.0000 1.0000
39.1200 1109.0000 1.0000
39.1300 1128.0000 1.0000
39.1400 1064.0000 1.0000
39.1500 1047.0000 1.0000
39.1600 1126.0000 1.0000
39.1700 1083.0000 1.0000
39.1800 1078.0000 1.0000
39.1900 1018.0000 1.0000
39.2000 1032.0000 1.0000
39.2100 1046.0000 1.0000
39.2200 1047.0000 1.0000
39.2300 1029.0000 1.0000
39.2400 1044.0000 1.0000
39.2500 1027.0000 1.0000
39.2600 1030.0000 1.0000
39.2700 1022.0000 1.0000
39.2800 1032.0000 1.0000
39.2900 1045.0000 1.0000
39.3000 1033.0000 1.0000
39.3100 963.0000 1.0000
39.3200 1054.0000 1.0000
39.3300 1033.0000 1.0000
39.3400 1082.0000 1.0000
39.3500 1033.0000 1.0000
39.3600 1009.0000 1.0000
39.3700 976.0000 1.0000
39.3800 1027.0000 1.0000
39.3900 972.0000 1.0000
39.4000 963.0000 1.0000
39.4100 1037.0000 1.0000
39.4200 1015.0000 1.0000
39.4300 1062.0000 1.0000
39.4400 1063.0000 1.0000
39.4500 1036.0000 1.0000
39.4600 1038.0000 1.0000
39.4700 1027.0000 1.0000
39.4800 984.0000 1.0000
39.4900 1045.0000 1.0000
39.5000 1044.0000 1.0000
39.5100 1084.0000 1.0000
39.5200 1011.0000 1.0000
39.5300 1065.0000 1.0000
39.5400 1067.0000 1.0000
39.5500 1059.0000 1.0000
39.5600 1089.0000 1.0000
39.5700 1010.0000 1.0000
39.5800 1087.0000 1.0000
39.5900 986.0000 1.0000
39.6000 1018.0000 1.0000
39.6100 997.0000 1.0000
39.6200 948.0000 1.0000
39.6300 1042.0000 1.0000
39.6400 1013.0000 1.0000
39.6500 1010.0000 1.0000
39.6600 1037.0000 1.0000
39.6700 1074.0000 1.0000
39.6800 1060.0000 1.0000
39.6900 1051.0000 1.0000
39.7000 1007.0000 1.0000
39.7100 1002.0000 1.0000
39.7200 1043.0000 1.0000
39.7300 985.0000 1.0000
39.7400 978.0000 1.0000
39.7500 1020.0000 1.0000
39.7600 995.0000 1.0000
39.7700 1034.0000 1.0000
39.7800 994.0000 1.0000
39.7900 1019.0000 1.0000
39.8000 971.0000 1.0000
39.8100 987.0000 1.0000
39.8200 973.0000 1.0000
39.8300 1012.0000 1.0000
39.8400 981.0000 1.0000
39.8500 1053.0000 1.0000
39.8600 1007.0000 1.0000
39.8700 963.0000 1.0000
39.8800 1013.0000 1.0000
39.8900 948.0000 1.0000
39.9000 979.0000 1.0000
39.9100 962.0000 1.0000
39.9200 972.0000 1.0000
39.9300 985.0000 1.0000
39.9400 930.0000 1.0000
39.9500 986.0000 1.0000
39.9600 1029.0000 1.0000
39.9700 983.0000 1.0000
39.9800 958.0000 1.0000
39.9900 935.0000 1.0000
40.0000 974.0000 1.0000
40.0100 947.0000 1.0000
40.0200 950.0000 1.0000
40.0300 969.0000 1.0000
40.0400 971.0000 1.0000
40.0500 937.0000 1.0000
40.0600 956.0000 1.0000
40.0700 923.0000 1.0000
40.0800 923.0000 1.0000
40.0900 981.0000 1.0000
40.1000 914.0000 1.0000
40.1100 957.0000 1.0000
40.1200 970.0000 1.0000
40.1300 965.0000 1.0000
40.1400 964.0000 1.0000
40.1500 956.0000 1.0000
40.1600 947.0000 1.0000
40.1700 962.0000 1.0000
40.1800 969.0000 1.0000
40.1900 976.0000 1.0000
40.2000 959.0000 1.0000
40.2100 960.0000 1.0000
40.2200 891.0000 1.0000
40.2300 925.0000 1.0000
40.2400 897.0000 1.0000
40.2500 889.0000 1.0000
40.2600 944.0000 1.0000
40.2700 868.0000 1.0000
40.2800 943.0000 1.0000
40.2900 934.0000 1.0000
40.3000 938.0000 1.0000
40.3100 896.0000 1.0000
40.3200 940.0000 1.0000
40.3300 956.0000 1.0000
40.3400 982.0000 1.0000
40.3500 947.0000 1.0000
40.3600 957.0000 1.0000
40.3700 883.0000 1.0000
40.3800 887.0000 1.0000
40.3900 918.0000 1.0000
40.4000 917.0000 1.0000
40.4100 936.0000 1.0000
40.4200 928.0000 1.0000
40.4300 909.0000 1.0000
40.4400 942.0000 1.0000
40.4500 954.0000 1.0000
40.4600 883.0000 1.0000
40.4700 882.0000 1.0000
40.4800 950.0000 1.0000
40.4900 923.0000 1.0000
40.5000 917.0000 1.0000
40.5100 938.0000 1.0000
40.5200 940.0000 1.0000
40.5300 926.0000 1.0000
40.5400 971.0000 1.0000
40.5500 980.0000 1.0000
40.5600 951.0000 1.0000
40.5700 905.0000 1.0000
40.5800 879.0000 1.0000
40.5900 939.0000 1.0000
40.6000 870.0000 1.0000
40.6100 892.0000 1.0000
40.6200 904.0000 1.0000
40.6300 890.0000 1.0000
40.6400 954.0000 1.0000
40.6500 934.0000 1.0000
40.6600 947.0000 1.0000
40.6700 937.0000 1.0000
40.6800 954.0000 1.0000
40.6900 898.0000 1.0000
40.7000 891.0000 1.0000
40.7100 921.0000 1.0000
40.7200 928.0000 1.0000
40.7300 901.0000 1.0000
40.7400 913.0000 1.0000
40.7500 910.0000 1.0000
40.7600 910.0000 1.0000
40.7700 964.0000 1.0000
40.7800 975.0000 1.0000
40.7900 884.0000 1.0000
40.8000 915.0000 1.0000
40.8100 935.0000 1.0000
40.8200 939.0000 1.0000
40.8300 914.0000 1.0000
40.8400 933.0000 1.0000
40.8500 920.0000 1.0000
40.8600 895.0000 1.0000
40.8700 862.0000 1.0000
40.8800 889.0000 1.0000
40.8900 906.0000 1.0000
40.9000 941.0000 1.0000
40.9100 925.0000 1.0000
40.9200 911.0000 1.0000
40.9300 883.0000 1.0000
40.9400 895.0000 1.0000
40.9500 887.0000 1.0000
40.9600 898.0000 1.0000
40.9700 931.0000 1.0000
40.9800 869.0000 1.0000
40.9900 949.0000 1.0000
41.0000 937.0000 1.0000
41.0100 923.0000 1.0000
41.0200 931.0000 1.0000
41.0300 949.0000 1.0000
41.0400 946.0000 1.0000
41.0500 910.0000 1.0000
41.0600 879.0000 1.0000
41.0700 919.0000 1.0000
41.0800 923.0000 1.0000
41.0900 952.0000 1.0000
41.1000 917.0000 1.0000
41.1100 912.0000 1.0000
41.1200 876.0000 1.0000
41.1300 857.0000 1.0000
41.1400 913.0000 1.0000
41.1500 921.0000 1.0000
41.1600 938.0000 1.0000
41.1700 923.0000 1.0000
41.1800 950.0000 1.0000
41.1900 946.0000 1.0000
41.2000 917.0000 1.0000
41.2100 937.0000 1.0000
41.2200 955.0000 1.0000
41.2300 910.0000 1.0000
41.2400 922.0000 1.0000
41.2500 935.0000 1.0000
41.2600 915.0000 1.0000
41.2700 903.0000 1.0000
41.2800 874.0000 1.0000
41.2900 911.0000 1.0000
41.3000 921.0000 1.0000
41.3100 914.0000 1.0000
41.3200 920.0000 1.0000
41.3300 895.0000 1.0000
41.3400 920.0000 1.0000
41.3500 949.0000 1.0000
41.3600 895.0000 1.0000
41.3700 913.0000 1.0000
41.3800 907.0000 1.0000
41.3900 900.0000 1.0000
41.4000 850.0000 1.0000
41.4100 952.0000 1.0000
41.4200 896.0000 1.0000
41.4300 946.0000 1.0000
41.4400 989.0000 1.0000
41.4500 943.0000 1.0000
41.4600 931.0000 1.0000
41.4700 919.0000 1.0000
41.4800 932.0000 1.0000
41.4900 908.0000 1.0000
41.5000 929.0000 1.0000
41.5100 916.0000 1.0000
41.5200 937.0000 1.0000
41.5300 883.0000 1.0000
41.5400 869.0000 1.0000
41.5500 889.0000 1.0000
41.5600 933.0000 1.0000
41.5700 900.0000 1.0000
41.5800 907.0000 1.0000
41.5900 939.0000 1.0000
41.6000 917.0000 1.0000
41.6100 943.0000 1.0000
41.6200 973.0000 1.0000
41.6300 860.0000 1.0000
41.6400 868.0000 1.0000
41.6500 892.0000 1.0000
41.6600 886.0000 1.0000
41.6700 890.0000 1.0000
41.6800 914.0000 1.0000
41.6900 936.0000 1.0000
41.7000 918.0000 1.0000
41.7100 895.0000 1.0000
41.7200 922.0000 1.0000
41.7300 944.0000 1.0000
41.7400 950.0000 1.0000
41.7500 930.0000 1.0000
41.7600 906.0000 1.0000
41.7700 885.0000 1.0000
41.7800 938.0000 1.0000
41.7900 878.0000 1.0000
41.8000 933.0000 1.0000
41.8100 943.0000 1.0000
41.8200 912.0000 1.0000
41.8300 951.0000 1.0000
41.8400 927.0000 1.0000
41.8500 906.0000 1.0000
41.8600 891.0000 1.0000
41.8700 901.0000 1.0000
41.8800 963.0000 1.0000
41.8900 931.0000 1.0000
41.9000 900.0000 1.0000
41.9100 903.0000 1.0000
41.9200 935.0000 1.0000
41.9300 900.0000 1.0000
41.9400 879.0000 1.0000
41.9500 876.0000 1.0000
41.9600 936.0000 1.0000
41.9700 899.0000 1.0000
41.9800 949.0000 1.0000
41.9900 910.0000 1.0000
42.0000 916.0000 1.0000
42.0100 928.0000 1.0000
42.0200 917.0000 1.0000
42.0300 952.0000 1.0000
42.0400 911.0000 1.0000
42.0500 882.0000 1.0000
42.0600 885.0000 1.0000
42.0700 899.0000 1.0000
42.0800 902.0000 1.0000
42.0900 920.0000 1.0000
42.1000 889.0000 1.0000
42.1100 889.0000 1.0000
42.1200 871.0000 1.0000
42.1300 942.0000 1.0000
42.1400 852.0000 1.0000
42.1500 850.0000 1.0000
42.1600 892.0000 1.0000
42.1700 881.0000 1.0000
42.1800 871.0000 1.0000
42.1900 875.0000 1.0000
42.2000 892.0000 1.0000
42.2100 883.0000 1.0000
42.2200 892.0000 1.0000
42.2300 855.0000 1.0000
42.2400 897.0000 1.0000
42.2500 885.0000 1.0000
42.2600 909.0000 1.0000
42.2700 889.0000 1.0000
42.2800 892.0000 1.0000
42.2900 900.0000 1.0000
42.3000 892.0000 1.0000
42.3100 924.0000 1.0000
42.3200 897.0000 1.0000
42.3300 894.0000 1.0000
42.3400 945.0000 1.0000
42.3500 886.0000 1.0000
42.3600 871.0000 1.0000
42.3700 929.0000 1.0000
42.3800 919.0000 1.0000
42.3900 899.0000 1.0000
42.4000 929.0000 1.0000
42.4100 914.0000 1.0000
42.4200 913.0000 1.0000
42.4300 842.0000 1.0000
42.4400 857.0000 1.0000
42.4500 867.0000 1.0000
42.4600 884.0000 1.0000
42.4700 905.0000 1.0000
42.4800 858.0000 1.0000
42.4900 886.0000 1.0000
42.5000 913.0000 1.0000
42.5100 909.0000 1.0000
42.5200 904.0000 1.0000
42.5300 924.0000 1.0000
42.5400 905.0000 1.0000
42.5500 910.0000 1.0000
42.5600 885.0000 1.0000
42.5700 903.0000 1.0000
42.5800 925.0000 1.0000
42.5900 889.0000 1.0000
42.6000 914.0000 1.0000
42.6100 889.0000 1.0000
42.6200 903.0000 1.0000
42.6300 885.0000 1.0000
42.6400 840.0000 1.0000
42.6500 880.0000 1.0000
42.6600 850.0000 1.0000
42.6700 864.0000 1.0000
42.6800 931.0000 1.0000
42.6900 875.0000 1.0000
42.7000 822.0000 1.0000
42.7100 858.0000 1.0000
42.7200 903.0000 1.0000
42.7300 929.0000 1.0000
42.7400 858.0000 1.0000
42.7500 896.0000 1.0000
42.7600 905.0000 1.0000
42.7700 872.0000 1.0000
42.7800 911.0000 1.0000
42.7900 871.0000 1.0000
42.8000 901.0000 1.0000
42.8100 964.0000 1.0000
42.8200 863.0000 1.0000
42.8300 895.0000 1.0000
42.8400 902.0000 1.0000
42.8500 917.0000 1.0000
42.8600 896.0000 1.0000
42.8700 891.0000 1.0000
42.8800 856.0000 1.0000
42.8900 885.0000 1.0000
42.9000 897.0000 1.0000
42.9100 868.0000 1.0000
42.9200 881.0000 1.0000
42.9300 895.0000 1.0000
42.9400 926.0000 1.0000
42.9500 898.0000 1.0000
42.9600 880.0000 1.0000
42.9700 907.0000 1.0000
42.9800 883.0000 1.0000
42.9900 878.0000 1.0000
43.0000 905.0000 1.0000
43.0100 900.0000 1.0000
43.0200 905.0000 1.0000
43.0300 910.0000 1.0000
43.0400 890.0000 1.0000
43.0500 916.0000 1.0000
43.0600 961.0000 1.0000
43.0700 941.0000 1.0000
43.0800 904.0000 1.0000
43.0900 920.0000 1.0000
43.1000 901.0000 1.0000
43.1100 943.0000 1.0000
43.1200 961.0000 1.0000
43.1300 999.0000 1.0000
43.1400 941.0000 1.0000
43.1500 938.0000 1.0000
43.1600 961.0000 1.0000
43.1700 956.0000 1.0000
43.1800 959.0000 1.0000
43.1900 997.0000 1.0000
43.2000 978.0000 1.0000
43.2100 977.0000 1.0000
43.2200 997.0000 1.0000
43.2300 979.0000 1.0000
43.2400 989.0000 1.0000
43.2500 1002.0000 1.0000
43.2600 939.0000 1.0000
43.2700 955.0000 1.0000
43.2800 977.0000 1.0000
43.2900 945.0000 1.0000
43.3000 1058.0000 1.0000
43.3100 975.0000 1.0000
43.3200 941.0000 1.0000
43.3300 972.0000 1.0000
43.3400 966.0000 1.0000
43.3500 970.0000 1.0000
43.3600 943.0000 1.0000
43.3700 974.0000 1.0000
43.3800 981.0000 1.0000
43.3900 957.0000 1.0000
43.4000 931.0000 1.0000
43.4100 935.0000 1.0000
43.4200 926.0000 1.0000
43.4300 887.0000 1.0000
43.4400 914.0000 1.0000
43.4500 938.0000 1.0000
43.4600 942.0000 1.0000
43.4700 908.0000 1.0000
43.4800 887.0000 1.0000
43.4900 901.0000 1.0000
43.5000 905.0000 1.0000
43.5100 898.0000 1.0000
43.5200 910.0000 1.0000
43.5300 879.0000 1.0000
43.5400 894.0000 1.0000
43.5500 895.0000 1.0000
43.5600 850.0000 1.0000
43.5700 882.0000 1.0000
43.5800 826.0000 1.0000
43.5900 935.0000 1.0000
43.6000 863.0000 1.0000
43.6100 931.0000 1.0000
43.6200 934.0000 1.0000
43.6300 917.0000 1.0000
43.6400 898.0000 1.0000
43.6500 860.0000 1.0000
43.6600 878.0000 1.0000
43.6700 859.0000 1.0000
43.6800 927.0000 1.0000
43.6900 891.0000 1.0000
43.7000 872.0000 1.0000
43.7100 898.0000 1.0000
43.7200 877.0000 1.0000
43.7300 895.0000 1.0000
43.7400 926.0000 1.0000
43.7500 875.0000 1.0000
43.7600 899.0000 1.0000
43.7700 876.0000 1.0000
43.7800 873.0000 1.0000
43.7900 875.0000 1.0000
43.8000 915.0000 1.0000
43.8100 921.0000 1.0000
43.8200 892.0000 1.0000
43.8300 887.0000 1.0000
43.8400 904.0000 1.0000
43.8500 935.0000 1.0000
43.8600 902.0000 1.0000
43.8700 885.0000 1.0000
43.8800 871.0000 1.0000
43.8900 901.0000 1.0000
43.9000 834.0000 1.0000
43.9100 902.0000 1.0000
43.9200 856.0000 1.0000
43.9300 822.0000 1.0000
43.9400 859.0000 1.0000
43.9500 924.0000 1.0000
43.9600 889.0000 1.0000
43.9700 873.0000 1.0000
43.9800 852.0000 1.0000
43.9900 864.0000 1.0000
44.0000 818.0000 1.0000
44.0100 842.0000 1.0000
44.0200 889.0000 1.0000
44.0300 891.0000 1.0000
44.0400 819.0000 1.0000
44.0500 843.0000 1.0000
44.0600 860.0000 1.0000
44.0700 876.0000 1.0000
44.0800 841.0000 1.0000
44.0900 876.0000 1.0000
44.1000 871.0000 1.0000
44.1100 873.0000 1.0000
44.1200 902.0000 1.0000
44.1300 891.0000 1.0000
44.1400 824.0000 1.0000
44.1500 834.0000 1.0000
44.1600 871.0000 1.0000
44.1700 894.0000 1.0000
44.1800 836.0000 1.0000
44.1900 890.0000 1.0000
44.2000 888.0000 1.0000
44.2100 850.0000 1.0000
44.2200 822.0000 1.0000
44.2300 843.0000 1.0000
44.2400 850.0000 1.0000
44.2500 888.0000 1.0000
44.2600 874.0000 1.0000
44.2700 901.0000 1.0000
44.2800 897.0000 1.0000
44.2900 900.0000 1.0000
44.3000 881.0000 1.0000
44.3100 861.0000 1.0000
44.3200 848.0000 1.0000
44.3300 855.0000 1.0000
44.3400 906.0000 1.0000
44.3500 857.0000 1.0000
44.3600 859.0000 1.0000
44.3700 864.0000 1.0000
44.3800 871.0000 1.0000
44.3900 893.0000 1.0000
44.4000 918.0000 1.0000
44.4100 872.0000 1.0000
44.4200 864.0000 1.0000
44.4300 809.0000 1.0000
44.4400 856.0000 1.0000
44.4500 914.0000 1.0000
44.4600 887.0000 1.0000
44.4700 920.0000 1.0000
44.4800 938.0000 1.0000
44.4900 829.0000 1.0000
44.5000 861.0000 1.0000
44.5100 859.0000 1.0000
44.5200 842.0000 1.0000
44.5300 900.0000 1.0000
44.5400 897.0000 1.0000
44.5500 901.0000 1.0000
44.5600 885.0000 1.0000
44.5700 837.0000 1.0000
44.5800 868.0000 1.0000
44.5900 830.0000 1.0000
44.6000 888.0000 1.0000
44.6100 810.0000 1.0000
44.6200 870.0000 1.0000
44.6300 867.0000 1.0000
44.6400 854.0000 1.0000
44.6500 900.0000 1.0000
44.6600 887.0000 1.0000
44.6700 840.0000 1.0000
44.6800 850.0000 1.0000
44.6900 880.0000 1.0000
44.7000 855.0000 1.0000
44.7100 822.0000 1.0000
44.7200 843.0000 1.0000
44.7300 793.0000 1.0000
44.7400 853.0000 1.0000
44.7500 877.0000 1.0000
44.7600 810.0000 1.0000
44.7700 825.0000 1.0000
44.7800 829.0000 1.0000
44.7900 880.0000 1.0000
44.8000 900.0000 1.0000
44.8100 874.0000 1.0000
44.8200 864.0000 1.0000
44.8300 843.0000 1.0000
44.8400 830.0000 1.0000
44.8500 845.0000 1.0000
44.8600 812.0000 1.0000
44.8700 848.0000 1.0000
44.8800 808.0000 1.0000
44.8900 801.0000 1.0000
44.9000 862.0000 1.0000
44.9100 814.0000 1.0000
44.9200 832.0000 1.0000
44.9300 865.0000 1.0000
44.9400 847.0000 1.0000
44.9500 838.0000 1.0000
44.9600 816.0000 1.0000
44.9700 829.0000 1.0000
44.9800 849.0000 1.0000
44.9900 841.0000 1.0000
45.0000 864.0000 1.0000
45.0100 867.0000 1.0000
45.0200 860.0000 1.0000
45.0300 837.0000 1.0000
45.0400 878.0000 1.0000
45.0500 822.0000 1.0000
45.0600 876.0000 1.0000
45.0700 857.0000 1.0000
45.0800 898.0000 1.0000
45.0900 845.0000 1.0000
45.1000 821.0000 1.0000
45.1100 810.0000 1.0000
45.1200 828.0000 1.0000
45.1300 842.0000 1.0000
45.1400 832.0000 1.0000
45.1500 824.0000 1.0000
45.1600 810.0000 1.0000
45.1700 797.0000 1.0000
45.1800 817.0000 1.0000
45.1900 836.0000 1.0000
45.2000 843.0000 1.0000
45.2100 822.0000 1.0000
45.2200 836.0000 1.0000
45.2300 840.0000 1.0000
45.2400 800.0000 1.0000
45.2500 825.0000 1.0000
45.2600 869.0000 1.0000
45.2700 838.0000 1.0000
45.2800 837.0000 1.0000
45.2900 825.0000 1.0000
45.3000 811.0000 1.0000
45.3100 799.0000 1.0000
45.3200 837.0000 1.0000
45.3300 855.0000 1.0000
45.3400 823.0000 1.0000
45.3500 805.0000 1.0000
45.3600 801.0000 1.0000
45.3700 797.0000 1.0000
45.3800 813.0000 1.0000
45.3900 820.0000 1.0000
45.4000 794.0000 1.0000
45.4100 845.0000 1.0000
45.4200 866.0000 1.0000
45.4300 833.0000 1.0000
45.4400 899.0000 1.0000
45.4500 842.0000 1.0000
45.4600 797.0000 1.0000
45.4700 791.0000 1.0000
45.4800 789.0000 1.0000
45.4900 829.0000 1.0000
45.5000 877.0000 1.0000
45.5100 819.0000 1.0000
45.5200 847.0000 1.0000
45.5300 801.0000 1.0000
45.5400 820.0000 1.0000
45.5500 848.0000 1.0000
45.5600 860.0000 1.0000
45.5700 854.0000 1.0000
45.5800 856.0000 1.0000
45.5900 845.0000 1.0000
45.6000 832.0000 1.0000
45.6100 804.0000 1.0000
45.6200 845.0000 1.0000
45.6300 824.0000 1.0000
45.6400 829.0000 1.0000
45.6500 825.0000 1.0000
45.6600 887.0000 1.0000
45.6700 843.0000 1.0000
45.6800 826.0000 1.0000
45.6900 832.0000 1.0000
45.7000 869.0000 1.0000
45.7100 812.0000 1.0000
45.7200 803.0000 1.0000
45.7300 841.0000 1.0000
45.7400 827.0000 1.0000
45.7500 848.0000 1.0000
45.7600 849.0000 1.0000
45.7700 823.0000 1.0000
45.7800 812.0000 1.0000
45.7900 789.0000 1.0000
45.8000 819.0000 1.0000
45.8100 786.0000 1.0000
45.8200 812.0000 1.0000
45.8300 834.0000 1.0000
45.8400 885.0000 1.0000
45.8500 838.0000 1.0000
45.8600 827.0000 1.0000
45.8700 868.0000 1.0000
45.8800 844.0000 1.0000
45.8900 826.0000 1.0000
45.9000 805.0000 1.0000
45.9100 860.0000 1.0000
45.9200 869.0000 1.0000
45.9300 815.0000 1.0000
45.9400 835.0000 1.0000
45.9500 813.0000 1.0000
45.9600 802.0000 1.0000
45.9700 837.0000 1.0000
45.9800 821.0000 1.0000
45.9900 822.0000 1.0000
46.0000 807.0000 1.0000
46.0100 764.0000 1.0000
46.0200 806.0000 1.0000
46.0300 807.0000 1.0000
46.0400 830.0000 1.0000
46.0500 852.0000 1.0000
46.0600 848.0000 1.0000
46.0700 816.0000 1.0000
46.0800 806.0000 1.0000
46.0900 823.0000 1.0000
46.1000 798.0000 1.0000
46.1100 784.0000 1.0000
46.1200 811.0000 1.0000
46.1300 800.0000 1.0000
46.1400 842.0000 1.0000
46.1500 772.0000 1.0000
46.1600 837.0000 1.0000
46.1700 778.0000 1.0000
46.1800 827.0000 1.0000
46.1900 797.0000 1.0000
46.2000 849.0000 1.0000
46.2100 808.0000 1.0000
46.2200 860.0000 1.0000
46.2300 882.0000 1.0000
46.2400 858.0000 1.0000
46.2500 818.0000 1.0000
46.2600 849.0000 1.0000
46.2700 812.0000 1.0000
46.2800 808.0000 1.0000
46.2900 845.0000 1.0000
46.3000 815.0000 1.0000
46.3100 835.0000 1.0000
46.3200 796.0000 1.0000
46.3300 846.0000 1.0000
46.3400 838.0000 1.0000
46.3500 812.0000 1.0000
46.3600 826.0000 1.0000
46.3700 851.0000 1.0000
46.3800 801.0000 1.0000
46.3900 819.0000 1.0000
46.4000 784.0000 1.0000
46.4100 811.0000 1.0000
46.4200 816.0000 1.0000
46.4300 834.0000 1.0000
46.4400 780.0000 1.0000
46.4500 810.0000 1.0000
46.4600 780.0000 1.0000
46.4700 813.0000 1.0000
46.4800 805.0000 1.0000
46.4900 842.0000 1.0000
46.5000 823.0000 1.0000
46.5100 795.0000 1.0000
46.5200 798.0000 1.0000
46.5300 834.0000 1.0000
46.5400 819.0000 1.0000
46.5500 812.0000 1.0000
46.5600 825.0000 1.0000
46.5700 795.0000 1.0000
46.5800 774.0000 1.0000
46.5900 829.0000 1.0000
46.6000 826.0000 1.0000
46.6100 848.0000 1.0000
46.6200 807.0000 1.0000
46.6300 804.0000 1.0000
46.6400 835.0000 1.0000
46.6500 844.0000 1.0000
46.6600 791.0000 1.0000
46.6700 831.0000 1.0000
46.6800 805.0000 1.0000
46.6900 780.0000 1.0000
46.7000 803.0000 1.0000
46.7100 789.0000 1.0000
46.7200 790.0000 1.0000
46.7300 805.0000 1.0000
46.7400 819.0000 1.0000
46.7500 825.0000 1.0000
46.7600 821.0000 1.0000
46.7700 837.0000 1.0000
46.7800 778.0000 1.0000
46.7900 783.0000 1.0000
46.8000 773.0000 1.0000
46.8100 726.0000 1.0000
46.8200 833.0000 1.0000
46.8300 758.0000 1.0000
46.8400 803.0000 1.0000
46.8500 796.0000 1.0000
46.8600 771.0000 1.0000
46.8700 787.0000 1.0000
46.8800 818.0000 1.0000
46.8900 810.0000 1.0000
46.9000 810.0000 1.0000
46.9100 795.0000 1.0000
46.9200 813.0000 1.0000
46.9300 794.0000 1.0000
46.9400 827.0000 1.0000
46.9500 830.0000 1.0000
46.9600 806.0000 1.0000
46.9700 804.0000 1.0000
46.9800 781.0000 1.0000
46.9900 866.0000 1.0000
47.0000 931.0000 1.0000
47.0100 809.0000 1.0000
47.0200 857.0000 1.0000
47.0300 849.0000 1.0000
47.0400 778.0000 1.0000
47.0500 848.0000 1.0000
47.0600 859.0000 1.0000
47.0700 838.0000 1.0000
47.0800 859.0000 1.0000
47.0900 835.0000 1.0000
47.1000 817.0000 1.0000
47.1100 801.0000 1.0000
47.1200 791.0000 1.0000
47.1300 757.0000 1.0000
47.1400 832.0000 1.0000
47.1500 811.0000 1.0000
47.1600 831.0000 1.0000
47.1700 762.0000 1.0000
47.1800 736.0000 1.0000
47.1900 840.0000 1.0000
47.2000 788.0000 1.0000
47.2100 838.0000 1.0000
47.2200 794.0000 1.0000
47.2300 767.0000 1.0000
47.2400 752.0000 1.0000
47.2500 823.0000 1.0000
47.2600 799.0000 1.0000
47.2700 821.0000 1.0000
47.2800 814.0000 1.0000
47.2900 784.0000 1.0000
47.3000 766.0000 1.0000
47.3100 827.0000 1.0000
47.3200 845.0000 1.0000
47.3300 830.0000 1.0000
47.3400 790.0000 1.0000
47.3500 777.0000 1.0000
47.3600 803.0000 1.0000
47.3700 784.0000 1.0000
47.3800 801.0000 1.0000
47.3900 821.0000 1.0000
47.4000 817.0000 1.0000
47.4100 826.0000 1.0000
47.4200 808.0000 1.0000
47.4300 777.0000 1.0000
47.4400 775.0000 1.0000
47.4500 785.0000 1.0000
47.4600 786.0000 1.0000
47.4700 789.0000 1.0000
47.4800 743.0000 1.0000
47.4900 779.0000 1.0000
47.5000 783.0000 1.0000
47.5100 782.0000 1.0000
47.5200 795.0000 1.0000
47.5300 786.0000 1.0000
47.5400 806.0000 1.0000
47.5500 817.0000 1.0000
47.5600 780.0000 1.0000
47.5700 824.0000 1.0000
47.5800 787.0000 1.0000
47.5900 801.0000 1.0000
47.6000 820.0000 1.0000
47.6100 780.0000 1.0000
47.6200 812.0000 1.0000
47.6300 785.0000 1.0000
47.6400 823.0000 1.0000
47.6500 792.0000 1.0000
47.6600 790.0000 1.0000
47.6700 736.0000 1.0000
47.6800 773.0000 1.0000
47.6900 803.0000 1.0000
47.7000 768.0000 1.0000
47.7100 821.0000 1.0000
47.7200 822.0000 1.0000
47.7300 795.0000 1.0000
47.7400 806.0000 1.0000
47.7500 785.0000 1.0000
47.7600 784.0000 1.0000
47.7700 810.0000 1.0000
47.7800 738.0000 1.0000
47.7900 796.0000 1.0000
47.8000 797.0000 1.0000
47.8100 786.0000 1.0000
47.8200 802.0000 1.0000
47.8300 776.0000 1.0000
47.8400 795.0000 1.0000
47.8500 809.0000 1.0000
47.8600 784.0000 1.0000
47.8700 784.0000 1.0000
47.8800 797.0000 1.0000
47.8900 788.0000 1.0000
47.9000 766.0000 1.0000
47.9100 733.0000 1.0000
47.9200 748.0000 1.0000
47.9300 802.0000 1.0000
47.9400 798.0000 1.0000
47.9500 814.0000 1.0000
47.9600 798.0000 1.0000
47.9700 780.0000 1.0000
47.9800 756.0000 1.0000
47.9900 800.0000 1.0000
48.0000 768.0000 1.0000
48.0100 805.0000 1.0000
48.0200 771.0000 1.0000
48.0300 790.0000 1.0000
48.0400 811.0000 1.0000
48.0500 787.0000 1.0000
48.0600 789.0000 1.0000
48.0700 828.0000 1.0000
48.0800 787.0000 1.0000
48.0900 777.0000 1.0000
48.1000 776.0000 1.0000
48.1100 795.0000 1.0000
48.1200 831.0000 1.0000
48.1300 768.0000 1.0000
48.1400 728.0000 1.0000
48.1500 764.0000 1.0000
48.1600 779.0000 1.0000
48.1700 768.0000 1.0000
48.1800 758.0000 1.0000
48.1900 751.0000 1.0000
48.2000 749.0000 1.0000
48.2100 759.0000 1.0000
48.2200 745.0000 1.0000
48.2300 770.0000 1.0000
48.2400 787.0000 1.0000
48.2500 800.0000 1.0000
48.2600 795.0000 1.0000
48.2700 800.0000 1.0000
48.2800 801.0000 1.0000
48.2900 774.0000 1.0000
48.3000 784.0000 1.0000
48.3100 766.0000 1.0000
48.3200 809.0000 1.0000
48.3300 760.0000 1.0000
48.3400 802.0000 1.0000
48.3500 803.0000 1.0000
48.3600 789.0000 1.0000
48.3700 792.0000 1.0000
48.3800 761.0000 1.0000
48.3900 799.0000 1.0000
48.4000 796.0000 1.0000
48.4100 760.0000 1.0000
48.4200 790.0000 1.0000
48.4300 782.0000 1.0000
48.4400 777.0000 1.0000
48.4500 791.0000 1.0000
48.4600 769.0000 1.0000
48.4700 795.0000 1.0000
48.4800 771.0000 1.0000
48.4900 778.0000 1.0000
48.5000 778.0000 1.0000
48.5100 804.0000 1.0000
48.5200 773.0000 1.0000
48.5300 802.0000 1.0000
48.5400 771.0000 1.0000
48.5500 772.0000 1.0000
48.5600 772.0000 1.0000
48.5700 793.0000 1.0000
48.5800 766.0000 1.0000
48.5900 799.0000 1.0000
48.6000 785.0000 1.0000
48.6100 822.0000 1.0000
48.6200 821.0000 1.0000
48.6300 771.0000 1.0000
48.6400 709.0000 1.0000
48.6500 788.0000 1.0000
48.6600 811.0000 1.0000
48.6700 793.0000 1.0000
48.6800 780.0000 1.0000
48.6900 771.0000 1.0000
48.7000 745.0000 1.0000
48.7100 789.0000 1.0000
48.7200 745.0000 1.0000
48.7300 774.0000 1.0000
48.7400 798.0000 1.0000
48.7500 753.0000 1.0000
48.7600 755.0000 1.0000
48.7700 769.0000 1.0000
48.7800 781.0000 1.0000
48.7900 781.0000 1.0000
48.8000 817.0000 1.0000
48.8100 772.0000 1.0000
48.8200 781.0000 1.0000
48.8300 785.0000 1.0000
48.8400 742.0000 1.0000
48.8500 731.0000 1.0000
48.8600 727.0000 1.0000
48.8700 726.0000 1.0000
48.8800 757.0000 1.0000
48.8900 807.0000 1.0000
48.9000 751.0000 1.0000
48.9100 778.0000 1.0000
48.9200 771.0000 1.0000
48.9300 793.0000 1.0000
48.9400 748.0000 1.0000
48.9500 739.0000 1.0000
48.9600 770.0000 1.0000
48.9700 780.0000 1.0000
48.9800 793.0000 1.0000
48.9900 801.0000 1.0000
49.0000 821.0000 1.0000
49.0100 797.0000 1.0000
49.0200 766.0000 1.0000
49.0300 722.0000 1.0000
49.0400 800.0000 1.0000
49.0500 758.0000 1.0000
49.0600 763.0000 1.0000
49.0700 791.0000 1.0000
49.0800 720.0000 1.0000
49.0900 735.0000 1.0000
49.1000 737.0000 1.0000
49.1100 760.0000 1.0000
49.1200 757.0000 1.0000
49.1300 751.0000 1.0000
49.1400 804.0000 1.0000
49.1500 795.0000 1.0000
49.1600 786.0000 1.0000
49.1700 784.0000 1.0000
49.1800 803.0000 1.0000
49.1900 786.0000 1.0000
49.2000 757.0000 1.0000
49.2100 793.0000 1.0000
49.2200 757.0000 1.0000
49.2300 735.0000 1.0000
49.2400 758.0000 1.0000
49.2500 783.0000 1.0000
49.2600 747.0000 1.0000
49.2700 758.0000 1.0000
49.2800 765.0000 1.0000
49.2900 772.0000 1.0000
49.3000 773.0000 1.0000
49.3100 803.0000 1.0000
49.3200 732.0000 1.0000
49.3300 760.0000 1.0000
49.3400 749.0000 1.0000
49.3500 765.0000 1.0000
49.3600 751.0000 1.0000
49.3700 782.0000 1.0000
49.3800 755.0000 1.0000
49.3900 737.0000 1.0000
49.4000 759.0000 1.0000
49.4100 795.0000 1.0000
49.4200 777.0000 1.0000
49.4300 759.0000 1.0000
49.4400 730.0000 1.0000
49.4500 754.0000 1.0000
49.4600 793.0000 1.0000
49.4700 719.0000 1.0000
49.4800 777.0000 1.0000
49.4900 763.0000 1.0000
49.5000 764.0000 1.0000
49.5100 747.0000 1.0000
49.5200 757.0000 1.0000
49.5300 766.0000 1.0000
49.5400 768.0000 1.0000
49.5500 772.0000 1.0000
49.5600 817.0000 1.0000
49.5700 797.0000 1.0000
49.5800 772.0000 1.0000
49.5900 772.0000 1.0000
49.6000 728.0000 1.0000
49.6100 736.0000 1.0000
49.6200 721.0000 1.0000
49.6300 803.0000 1.0000
49.6400 736.0000 1.0000
49.6500 744.0000 1.0000
49.6600 770.0000 1.0000
49.6700 749.0000 1.0000
49.6800 739.0000 1.0000
49.6900 729.0000 1.0000
49.7000 719.0000 1.0000
49.7100 713.0000 1.0000
49.7200 752.0000 1.0000
49.7300 768.0000 1.0000
49.7400 756.0000 1.0000
49.7500 743.0000 1.0000
49.7600 742.0000 1.0000
49.7700 738.0000 1.0000
49.7800 759.0000 1.0000
49.7900 752.0000 1.0000
49.8000 784.0000 1.0000
49.8100 748.0000 1.0000
49.8200 727.0000 1.0000
49.8300 752.0000 1.0000
49.8400 749.0000 1.0000
49.8500 771.0000 1.0000
49.8600 749.0000 1.0000
49.8700 755.0000 1.0000
49.8800 784.0000 1.0000
49.8900 778.0000 1.0000
49.9000 719.0000 1.0000
49.9100 742.0000 1.0000
49.9200 774.0000 1.0000
49.9300 767.0000 1.0000
49.9400 747.0000 1.0000
49.9500 740.0000 1.0000
49.9600 780.0000 1.0000
49.9700 743.0000 1.0000
49.9800 742.0000 1.0000
49.9900 775.0000 1.0000
50.0000 759.0000 1.0000
50.0100 772.0000 1.0000
50.0200 801.0000 1.0000
50.0300 756.0000 1.0000
50.0400 786.0000 1.0000
50.0500 736.0000 1.0000
50.0600 768.0000 1.0000
50.0700 764.0000 1.0000
50.0800 785.0000 1.0000
50.0900 794.0000 1.0000
50.1000 785.0000 1.0000
50.1100 790.0000 1.0000
50.1200 764.0000 1.0000
50.1300 773.0000 1.0000
50.1400 706.0000 1.0000
50.1500 728.0000 1.0000
50.1600 810.0000 1.0000
50.1700 796.0000 1.0000
50.1800 784.0000 1.0000
50.1900 754.0000 1.0000
50.2000 785.0000 1.0000
50.2100 772.0000 1.0000
50.2200 799.0000 1.0000
50.2300 791.0000 1.0000
50.2400 799.0000 1.0000
50.2500 754.0000 1.0000
50.2600 755.0000 1.0000
50.2700 796.0000 1.0000
50.2800 783.0000 1.0000
50.2900 782.0000 1.0000
50.3000 806.0000 1.0000
50.3100 774.0000 1.0000
50.3200 789.0000 1.0000
50.3300 739.0000 1.0000
50.3400 737.0000 1.0000
50.3500 800.0000 1.0000
50.3600 747.0000 1.0000
50.3700 800.0000 1.0000
50.3800 779.0000 1.0000
50.3900 806.0000 1.0000
50.4000 714.0000 1.0000
50.4100 783.0000 1.0000
50.4200 816.0000 1.0000
50.4300 821.0000 1.0000
50.4400 758.0000 1.0000
50.4500 813.0000 1.0000
50.4600 759.0000 1.0000
50.4700 777.0000 1.0000
50.4800 790.0000 1.0000
50.4900 765.0000 1.0000
50.5000 792.0000 1.0000
50.5100 796.0000 1.0000
50.5200 823.0000 1.0000
50.5300 780.0000 1.0000
50.5400 815.0000 1.0000
50.5500 791.0000 1.0000
50.5600 806.0000 1.0000
50.5700 780.0000 1.0000
50.5800 764.0000 1.0000
50.5900 761.0000 1.0000
50.6000 766.0000 1.0000
50.6100 744.0000 1.0000
50.6200 777.0000 1.0000
50.6300 776.0000 1.0000
50.6400 794.0000 1.0000
50.6500 771.0000 1.0000
50.6600 778.0000 1.0000
50.6700 799.0000 1.0000
50.6800 797.0000 1.0000
50.6900 760.0000 1.0000
50.7000 772.0000 1.0000
50.7100 752.0000 1.0000
50.7200 802.0000 1.0000
50.7300 739.0000 1.0000
50.7400 772.0000 1.0000
50.7500 761.0000 1.0000
50.7600 739.0000 1.0000
50.7700 740.0000 1.0000
50.7800 749.0000 1.0000
50.7900 784.0000 1.0000
50.8000 775.0000 1.0000
50.8100 764.0000 1.0000
50.8200 782.0000 1.0000
50.8300 800.0000 1.0000
50.8400 744.0000 1.0000
50.8500 756.0000 1.0000
50.8600 802.0000 1.0000
50.8700 810.0000 1.0000
50.8800 800.0000 1.0000
50.8900 747.0000 1.0000
50.9000 788.0000 1.0000
50.9100 747.0000 1.0000
50.9200 813.0000 1.0000
50.9300 771.0000 1.0000
50.9400 749.0000 1.0000
50.9500 698.0000 1.0000
50.9600 725.0000 1.0000
50.9700 748.0000 1.0000
50.9800 718.0000 1.0000
50.9900 767.0000 1.0000
51.0000 766.0000 1.0000
51.0100 803.0000 1.0000
51.0200 772.0000 1.0000
51.0300 770.0000 1.0000
51.0400 754.0000 1.0000
51.0500 745.0000 1.0000
51.0600 760.0000 1.0000
51.0700 837.0000 1.0000
51.0800 826.0000 1.0000
51.0900 792.0000 1.0000
51.1000 755.0000 1.0000
51.1100 750.0000 1.0000
51.1200 759.0000 1.0000
51.1300 746.0000 1.0000
51.1400 768.0000 1.0000
51.1500 772.0000 1.0000
51.1600 785.0000 1.0000
51.1700 777.0000 1.0000
51.1800 745.0000 1.0000
51.1900 752.0000 1.0000
51.2000 755.0000 1.0000
51.2100 743.0000 1.0000
51.2200 739.0000 1.0000
51.2300 734.0000 1.0000
51.2400 763.0000 1.0000
51.2500 756.0000 1.0000
51.2600 771.0000 1.0000
51.2700 730.0000 1.0000
51.2800 833.0000 1.0000
51.2900 809.0000 1.0000
51.3000 770.0000 1.0000
51.3100 781.0000 1.0000
51.3200 775.0000 1.0000
51.3300 791.0000 1.0000
51.3400 788.0000 1.0000
51.3500 761.0000 1.0000
51.3600 757.0000 1.0000
51.3700 789.0000 1.0000
51.3800 772.0000 1.0000
51.3900 750.0000 1.0000
51.4000 818.0000 1.0000
51.4100 784.0000 1.0000
51.4200 759.0000 1.0000
51.4300 758.0000 1.0000
51.4400 739.0000 1.0000
51.4500 764.0000 1.0000
51.4600 830.0000 1.0000
51.4700 755.0000 1.0000
51.4800 757.0000 1.0000
51.4900 858.0000 1.0000
51.5000 801.0000 1.0000
51.5100 787.0000 1.0000
51.5200 776.0000 1.0000
51.5300 752.0000 1.0000
51.5400 787.0000 1.0000
51.5500 741.0000 1.0000
51.5600 790.0000 1.0000
51.5700 787.0000 1.0000
51.5800 752.0000 1.0000
51.5900 780.0000 1.0000
51.6000 754.0000 1.0000
51.6100 815.0000 1.0000
51.6200 820.0000 1.0000
51.6300 776.0000 1.0000
51.6400 878.0000 1.0000
51.6500 840.0000 1.0000
51.6600 794.0000 1.0000
51.6700 779.0000 1.0000
51.6800 814.0000 1.0000
51.6900 806.0000 1.0000
51.7000 828.0000 1.0000
51.7100 794.0000 1.0000
51.7200 808.0000 1.0000
51.7300 828.0000 1.0000
51.7400 834.0000 1.0000
51.7500 854.0000 1.0000
51.7600 861.0000 1.0000
51.7700 824.0000 1.0000
51.7800 876.0000 1.0000
51.7900 816.0000 1.0000
51.8000 844.0000 1.0000
51.8100 856.0000 1.0000
51.8200 854.0000 1.0000
51.8300 849.0000 1.0000
51.8400 871.0000 1.0000
51.8500 881.0000 1.0000
51.8600 888.0000 1.0000
51.8700 879.0000 1.0000
51.8800 879.0000 1.0000
51.8900 900.0000 1.0000
51.9000 944.0000 1.0000
51.9100 910.0000 1.0000
51.9200 964.0000 1.0000
51.9300 956.0000 1.0000
51.9400 964.0000 1.0000
51.9500 1056.0000 1.0000
51.9600 1024.0000 1.0000
51.9700 1049.0000 1.0000
51.9800 1072.0000 1.0000
51.9900 1140.0000 1.0000
52.0000 1143.0000 1.0000
52.0100 1236.0000 1.0000
52.0200 1266.0000 1.0000
52.0300 1217.0000 1.0000
52.0400 1296.0000 1.0000
52.0500 1371.0000 1.0000
52.0600 1358.0000 1.0000
52.0700 1483.0000 1.0000
52.0800 1523.0000 1.0000
52.0900 1514.0000 1.0000
52.1000 1626.0000 1.0000
52.1100 1675.0000 1.0000
52.1200 1897.0000 1.0000
52.1300 2012.0000 1.0000
52.1400 2029.0000 1.0000
52.1500 2169.0000 1.0000
52.1600 2322.0000 1.0000
52.1700 2611.0000 1.0000
52.1800 2751.0000 1.0000
52.1900 2976.0000 1.0000
52.2000 3240.0000 1.0000
52.2100 3409.0000 1.0000
52.2200 3758.0000 1.0000
52.2300 3976.0000 1.0000
52.2400 4301.0000 1.0000
52.2500 4492.0000 1.0000
52.2600 4737.0000 1.0000
52.2700 4783.0000 1.0000
52.2800 4777.0000 1.0000
52.2900 4837.0000 1.0000
52.3000 4649.0000 1.0000
52.3100 4619.0000 1.0000
52.3200 4524.0000 1.0000
52.3300 4229.0000 1.0000
52.3400 4226.0000 1.0000
52.3500 4066.0000 1.0000
52.3600 3965.0000 1.0000
52.3700 3841.0000 1.0000
52.3800 3778.0000 1.0000
52.3900 3721.0000 1.0000
52.4000 3639.0000 1.0000
52.4100 3613.0000 1.0000
52.4200 3447.0000 1.0000
52.4300 3250.0000 1.0000
52.4400 3171.0000 1.0000
52.4500 2897.0000 1.0000
52.4600 2820.0000 1.0000
52.4700 2602.0000 1.0000
52.4800 2474.0000 1.0000
52.4900 2331.0000 1.0000
52.5000 2123.0000 1.0000
52.5100 1981.0000 1.0000
52.5200 1968.0000 1.0000
52.5300 1822.0000 1.0000
52.5400 1686.0000 1.0000
52.5500 1617.0000 1.0000
52.5600 1532.0000 1.0000
52.5700 1435.0000 1.0000
52.5800 1436.0000 1.0000
52.5900 1395.0000 1.0000
52.6000 1300.0000 1.0000
52.6100 1294.0000 1.0000
52.6200 1272.0000 1.0000
52.6300 1183.0000 1.0000
52.6400 1160.0000 1.0000
52.6500 1173.0000 1.0000
52.6600 1122.0000 1.0000
52.6700 1058.0000 1.0000
52.6800 1051.0000 1.0000
52.6900 1068.0000 1.0000
52.7000 983.0000 1.0000
52.7100 1036.0000 1.0000
52.7200 1000.0000 1.0000
52.7300 954.0000 1.0000
52.7400 977.0000 1.0000
52.7500 905.0000 1.0000
52.7600 941.0000 1.0000
52.7700 951.0000 1.0000
52.7800 923.0000 1.0000
52.7900 907.0000 1.0000
52.8000 910.0000 1.0000
52.8100 883.0000 1.0000
52.8200 926.0000 1.0000
52.8300 908.0000 1.0000
52.8400 862.0000 1.0000
52.8500 849.0000 1.0000
52.8600 836.0000 1.0000
52.8700 834.0000 1.0000
52.8800 775.0000 1.0000
52.8900 835.0000 1.0000
52.9000 851.0000 1.0000
52.9100 856.0000 1.0000
52.9200 825.0000 1.0000
52.9300 830.0000 1.0000
52.9400 852.0000 1.0000
52.9500 783.0000 1.0000
52.9600 822.0000 1.0000
52.9700 817.0000 1.0000
52.9800 841.0000 1.0000
52.9900 845.0000 1.0000
53.0000 809.0000 1.0000
53.0100 812.0000 1.0000
53.0200 788.0000 1.0000
53.0300 778.0000 1.0000
53.0400 846.0000 1.0000
53.0500 807.0000 1.0000
53.0600 824.0000 1.0000
53.0700 798.0000 1.0000
53.0800 813.0000 1.0000
53.0900 813.0000 1.0000
53.1000 795.0000 1.0000
53.1100 808.0000 1.0000
53.1200 769.0000 1.0000
53.1300 770.0000 1.0000
53.1400 804.0000 1.0000
53.1500 808.0000 1.0000
53.1600 796.0000 1.0000
53.1700 780.0000 1.0000
53.1800 778.0000 1.0000
53.1900 774.0000 1.0000
53.2000 771.0000 1.0000
53.2100 791.0000 1.0000
53.2200 806.0000 1.0000
53.2300 755.0000 1.0000
53.2400 752.0000 1.0000
53.2500 787.0000 1.0000
53.2600 786.0000 1.0000
53.2700 778.0000 1.0000
53.2800 748.0000 1.0000
53.2900 794.0000 1.0000
53.3000 826.0000 1.0000
53.3100 754.0000 1.0000
53.3200 765.0000 1.0000
53.3300 790.0000 1.0000
53.3400 770.0000 1.0000
53.3500 753.0000 1.0000
53.3600 727.0000 1.0000
53.3700 754.0000 1.0000
53.3800 850.0000 1.0000
53.3900 751.0000 1.0000
53.4000 775.0000 1.0000
53.4100 812.0000 1.0000
53.4200 758.0000 1.0000
53.4300 723.0000 1.0000
53.4400 761.0000 1.0000
53.4500 748.0000 1.0000
53.4600 744.0000 1.0000
53.4700 834.0000 1.0000
53.4800 785.0000 1.0000
53.4900 787.0000 1.0000
53.5000 777.0000 1.0000
53.5100 778.0000 1.0000
53.5200 750.0000 1.0000
53.5300 769.0000 1.0000
53.5400 738.0000 1.0000
53.5500 769.0000 1.0000
53.5600 780.0000 1.0000
53.5700 720.0000 1.0000
53.5800 756.0000 1.0000
53.5900 766.0000 1.0000
53.6000 736.0000 1.0000
53.6100 734.0000 1.0000
53.6200 767.0000 1.0000
53.6300 793.0000 1.0000
53.6400 730.0000 1.0000
53.6500 777.0000 1.0000
53.6600 779.0000 1.0000
53.6700 725.0000 1.0000
53.6800 751.0000 1.0000
53.6900 724.0000 1.0000
53.7000 743.0000 1.0000
53.7100 758.0000 1.0000
53.7200 770.0000 1.0000
53.7300 792.0000 1.0000
53.7400 779.0000 1.0000
53.7500 772.0000 1.0000
53.7600 773.0000 1.0000
53.7700 757.0000 1.0000
53.7800 753.0000 1.0000
53.7900 719.0000 1.0000
53.8000 806.0000 1.0000
53.8100 753.0000 1.0000
53.8200 743.0000 1.0000
53.8300 724.0000 1.0000
53.8400 739.0000 1.0000
53.8500 727.0000 1.0000
53.8600 720.0000 1.0000
53.8700 773.0000 1.0000
53.8800 788.0000 1.0000
53.8900 742.0000 1.0000
53.9000 732.0000 1.0000
53.9100 719.0000 1.0000
53.9200 734.0000 1.0000
53.9300 781.0000 1.0000
53.9400 734.0000 1.0000
53.9500 713.0000 1.0000
53.9600 744.0000 1.0000
53.9700 740.0000 1.0000
53.9800 708.0000 1.0000
53.9900 738.0000 1.0000
54.0000 714.0000 1.0000
54.0100 770.0000 1.0000
54.0200 748.0000 1.0000
54.0300 744.0000 1.0000
54.0400 752.0000 1.0000
54.0500 711.0000 1.0000
54.0600 720.0000 1.0000
54.0700 735.0000 1.0000
54.0800 723.0000 1.0000
54.0900 775.0000 1.0000
54.1000 736.0000 1.0000
54.1100 770.0000 1.0000
54.1200 743.0000 1.0000
54.1300 703.0000 1.0000
54.1400 748.0000 1.0000
54.1500 718.0000 1.0000
54.1600 743.0000 1.0000
54.1700 731.0000 1.0000
54.1800 756.0000 1.0000
54.1900 760.0000 1.0000
54.2000 774.0000 1.0000
54.2100 745.0000 1.0000
54.2200 751.0000 1.0000
54.2300 750.0000 1.0000
54.2400 767.0000 1.0000
54.2500 701.0000 1.0000
54.2600 745.0000 1.0000
54.2700 783.0000 1.0000
54.2800 753.0000 1.0000
54.2900 713.0000 1.0000
54.3000 760.0000 1.0000
54.3100 777.0000 1.0000
54.3200 745.0000 1.0000
54.3300 730.0000 1.0000
54.3400 720.0000 1.0000
54.3500 769.0000 1.0000
54.3600 765.0000 1.0000
54.3700 713.0000 1.0000
54.3800 735.0000 1.0000
54.3900 739.0000 1.0000
54.4000 751.0000 1.0000
54.4100 744.0000 1.0000
54.4200 727.0000 1.0000
54.4300 743.0000 1.0000
54.4400 726.0000 1.0000
54.4500 730.0000 1.0000
54.4600 784.0000 1.0000
54.4700 779.0000 1.0000
54.4800 747.0000 1.0000
54.4900 783.0000 1.0000
54.5000 761.0000 1.0000
54.5100 686.0000 1.0000
54.5200 767.0000 1.0000
54.5300 765.0000 1.0000
54.5400 751.0000 1.0000
54.5500 724.0000 1.0000
54.5600 742.0000 1.0000
54.5700 742.0000 1.0000
54.5800 752.0000 1.0000
54.5900 722.0000 1.0000
54.6000 747.0000 1.0000
54.6100 736.0000 1.0000
54.6200 810.0000 1.0000
54.6300 761.0000 1.0000
54.6400 800.0000 1.0000
54.6500 751.0000 1.0000
54.6600 800.0000 1.0000
54.6700 784.0000 1.0000
54.6800 781.0000 1.0000
54.6900 758.0000 1.0000
54.7000 767.0000 1.0000
54.7100 779.0000 1.0000
54.7200 779.0000 1.0000
54.7300 776.0000 1.0000
54.7400 788.0000 1.0000
54.7500 747.0000 1.0000
54.7600 788.0000 1.0000
54.7700 770.0000 1.0000
54.7800 812.0000 1.0000
54.7900 784.0000 1.0000
54.8000 775.0000 1.0000
54.8100 799.0000 1.0000
54.8200 768.0000 1.0000
54.8300 771.0000 1.0000
54.8400 784.0000 1.0000
54.8500 741.0000 1.0000
54.8600 785.0000 1.0000
54.8700 796.0000 1.0000
54.8800 795.0000 1.0000
54.8900 832.0000 1.0000
54.9000 853.0000 1.0000
54.9100 764.0000 1.0000
54.9200 807.0000 1.0000
54.9300 823.0000 1.0000
54.9400 793.0000 1.0000
54.9500 806.0000 1.0000
54.9600 798.0000 1.0000
54.9700 842.0000 1.0000
54.9800 791.0000 1.0000
54.9900 788.0000 1.0000
55.0000 806.0000 1.0000
55.0100 845.0000 1.0000
55.0200 839.0000 1.0000
55.0300 823.0000 1.0000
55.0400 805.0000 1.0000
55.0500 847.0000 1.0000
55.0600 811.0000 1.0000
55.0700 866.0000 1.0000
55.0800 862.0000 1.0000
55.0900 846.0000 1.0000
55.1000 862.0000 1.0000
55.1100 901.0000 1.0000
55.1200 904.0000 1.0000
55.1300 927.0000 1.0000
55.1400 897.0000 1.0000
55.1500 930.0000 1.0000
55.1600 967.0000 1.0000
55.1700 924.0000 1.0000
55.1800 967.0000 1.0000
55.1900 992.0000 1.0000
55.2000 947.0000 1.0000
55.2100 971.0000 1.0000
55.2200 1062.0000 1.0000
55.2300 1025.0000 1.0000
55.2400 1097.0000 1.0000
55.2500 1064.0000 1.0000
55.2600 1057.0000 1.0000
55.2700 1127.0000 1.0000
55.2800 1084.0000 1.0000
55.2900 1106.0000 1.0000
55.3000 1103.0000 1.0000
55.3100 1142.0000 1.0000
55.3200 1103.0000 1.0000
55.3300 1155.0000 1.0000
55.3400 1068.0000 1.0000
55.3500 1086.0000 1.0000
55.3600 1126.0000 1.0000
55.3700 1111.0000 1.0000
55.3800 1079.0000 1.0000
55.3900 1063.0000 1.0000
55.4000 1107.0000 1.0000
55.4100 1073.0000 1.0000
55.4200 1022.0000 1.0000
55.4300 997.0000 1.0000
55.4400 1023.0000 1.0000
55.4500 1024.0000 1.0000
55.4600 1055.0000 1.0000
55.4700 987.0000 1.0000
55.4800 1013.0000 1.0000
55.4900 988.0000 1.0000
55.5000 961.0000 1.0000
55.5100 915.0000 1.0000
55.5200 943.0000 1.0000
55.5300 938.0000 1.0000
55.5400 900.0000 1.0000
55.5500 858.0000 1.0000
55.5600 886.0000 1.0000
55.5700 918.0000 1.0000
55.5800 885.0000 1.0000
55.5900 849.0000 1.0000
55.6000 862.0000 1.0000
55.6100 810.0000 1.0000
55.6200 859.0000 1.0000
55.6300 854.0000 1.0000
55.6400 820.0000 1.0000
55.6500 834.0000 1.0000
55.6600 836.0000 1.0000
55.6700 815.0000 1.0000
55.6800 806.0000 1.0000
55.6900 737.0000 1.0000
55.7000 811.0000 1.0000
55.7100 755.0000 1.0000
55.7200 785.0000 1.0000
55.7300 737.0000 1.0000
55.7400 804.0000 1.0000
55.7500 765.0000 1.0000
55.7600 787.0000 1.0000
55.7700 742.0000 1.0000
55.7800 742.0000 1.0000
55.7900 760.0000 1.0000
55.8000 751.0000 1.0000
55.8100 776.0000 1.0000
55.8200 808.0000 1.0000
55.8300 757.0000 1.0000
55.8400 754.0000 1.0000
55.8500 734.0000 1.0000
55.8600 770.0000 1.0000
55.8700 769.0000 1.0000
55.8800 726.0000 1.0000
55.8900 733.0000 1.0000
55.9000 784.0000 1.0000
55.9100 769.0000 1.0000
55.9200 684.0000 1.0000
55.9300 733.0000 1.0000
55.9400 749.0000 1.0000
55.9500 762.0000 1.0000
55.9600 740.0000 1.0000
55.9700 737.0000 1.0000
55.9800 760.0000 1.0000
55.9900 710.0000 1.0000
56.0000 728.0000 1.0000
56.0100 731.0000 1.0000
56.0200 715.0000 1.0000
56.0300 705.0000 1.0000
56.0400 712.0000 1.0000
56.0500 724.0000 1.0000
56.0600 733.0000 1.0000
56.0700 755.0000 1.0000
56.0800 731.0000 1.0000
56.0900 750.0000 1.0000
56.1000 678.0000 1.0000
56.1100 742.0000 1.0000
56.1200 753.0000 1.0000
56.1300 731.0000 1.0000
56.1400 705.0000 1.0000
56.1500 742.0000 1.0000
56.1600 797.0000 1.0000
56.1700 716.0000 1.0000
56.1800 718.0000 1.0000
56.1900 748.0000 1.0000
56.2000 748.0000 1.0000
56.2100 719.0000 1.0000
56.2200 739.0000 1.0000
56.2300 763.0000 1.0000
56.2400 759.0000 1.0000
56.2500 756.0000 1.0000
56.2600 721.0000 1.0000
56.2700 765.0000 1.0000
56.2800 720.0000 1.0000
56.2900 725.0000 1.0000
56.3000 723.0000 1.0000
56.3100 704.0000 1.0000
56.3200 751.0000 1.0000
56.3300 727.0000 1.0000
56.3400 732.0000 1.0000
56.3500 716.0000 1.0000
56.3600 688.0000 1.0000
56.3700 728.0000 1.0000
56.3800 740.0000 1.0000
56.3900 718.0000 1.0000
56.4000 730.0000 1.0000
56.4100 724.0000 1.0000
56.4200 726.0000 1.0000
56.4300 730.0000 1.0000
56.4400 719.0000 1.0000
56.4500 715.0000 1.0000
56.4600 742.0000 1.0000
56.4700 701.0000 1.0000
56.4800 694.0000 1.0000
56.4900 718.0000 1.0000
56.5000 718.0000 1.0000
56.5100 677.0000 1.0000
56.5200 689.0000 1.0000
56.5300 714.0000 1.0000
56.5400 658.0000 1.0000
56.5500 707.0000 1.0000
56.5600 745.0000 1.0000
56.5700 698.0000 1.0000
56.5800 695.0000 1.0000
56.5900 675.0000 1.0000
56.6000 721.0000 1.0000
56.6100 709.0000 1.0000
56.6200 699.0000 1.0000
56.6300 753.0000 1.0000
56.6400 742.0000 1.0000
56.6500 738.0000 1.0000
56.6600 733.0000 1.0000
56.6700 729.0000 1.0000
56.6800 680.0000 1.0000
56.6900 783.0000 1.0000
56.7000 712.0000 1.0000
56.7100 737.0000 1.0000
56.7200 702.0000 1.0000
56.7300 706.0000 1.0000
56.7400 745.0000 1.0000
56.7500 751.0000 1.0000
56.7600 742.0000 1.0000
56.7700 747.0000 1.0000
56.7800 695.0000 1.0000
56.7900 719.0000 1.0000
56.8000 717.0000 1.0000
56.8100 738.0000 1.0000
56.8200 734.0000 1.0000
56.8300 728.0000 1.0000
56.8400 680.0000 1.0000
56.8500 690.0000 1.0000
56.8600 704.0000 1.0000
56.8700 714.0000 1.0000
56.8800 752.0000 1.0000
56.8900 753.0000 1.0000
56.9000 792.0000 1.0000
56.9100 764.0000 1.0000
56.9200 721.0000 1.0000
56.9300 772.0000 1.0000
56.9400 713.0000 1.0000
56.9500 736.0000 1.0000
56.9600 753.0000 1.0000
56.9700 767.0000 1.0000
56.9800 709.0000 1.0000
56.9900 717.0000 1.0000
57.0000 777.0000 1.0000
57.0100 702.0000 1.0000
57.0200 692.0000 1.0000
57.0300 715.0000 1.0000
57.0400 735.0000 1.0000
57.0500 697.0000 1.0000
57.0600 687.0000 1.0000
57.0700 683.0000 1.0000
57.0800 720.0000 1.0000
57.0900 697.0000 1.0000
57.1000 722.0000 1.0000
57.1100 730.0000 1.0000
57.1200 745.0000 1.0000
57.1300 734.0000 1.0000
57.1400 750.0000 1.0000
57.1500 705.0000 1.0000
57.1600 711.0000 1.0000
57.1700 695.0000 1.0000
57.1800 730.0000 1.0000
57.1900 726.0000 1.0000
57.2000 727.0000 1.0000
57.2100 743.0000 1.0000
57.2200 731.0000 1.0000
57.2300 710.0000 1.0000
57.2400 730.0000 1.0000
57.2500 704.0000 1.0000
57.2600 693.0000 1.0000
57.2700 715.0000 1.0000
57.2800 728.0000 1.0000
57.2900 724.0000 1.0000
57.3000 713.0000 1.0000
57.3100 703.0000 1.0000
57.3200 717.0000 1.0000
57.3300 744.0000 1.0000
57.3400 685.0000 1.0000
57.3500 722.0000 1.0000
57.3600 718.0000 1.0000
57.3700 716.0000 1.0000
57.3800 712.0000 1.0000
57.3900 705.0000 1.0000
57.4000 740.0000 1.0000
57.4100 740.0000 1.0000
57.4200 735.0000 1.0000
57.4300 726.0000 1.0000
57.4400 694.0000 1.0000
57.4500 742.0000 1.0000
57.4600 732.0000 1.0000
57.4700 724.0000 1.0000
57.4800 728.0000 1.0000
57.4900 685.0000 1.0000
57.5000 737.0000 1.0000
57.5100 724.0000 1.0000
57.5200 689.0000 1.0000
57.5300 716.0000 1.0000
57.5400 744.0000 1.0000
57.5500 746.0000 1.0000
57.5600 746.0000 1.0000
57.5700 706.0000 1.0000
57.5800 734.0000 1.0000
57.5900 765.0000 1.0000
57.6000 699.0000 1.0000
57.6100 760.0000 1.0000
57.6200 710.0000 1.0000
57.6300 667.0000 1.0000
57.6400 658.0000 1.0000
57.6500 747.0000 1.0000
57.6600 707.0000 1.0000
57.6700 720.0000 1.0000
57.6800 733.0000 1.0000
57.6900 709.0000 1.0000
57.7000 718.0000 1.0000
57.7100 745.0000 1.0000
57.7200 751.0000 1.0000
57.7300 733.0000 1.0000
57.7400 703.0000 1.0000
57.7500 711.0000 1.0000
57.7600 737.0000 1.0000
57.7700 705.0000 1.0000
57.7800 724.0000 1.0000
57.7900 704.0000 1.0000
57.8000 698.0000 1.0000
57.8100 764.0000 1.0000
57.8200 772.0000 1.0000
57.8300 765.0000 1.0000
57.8400 758.0000 1.0000
57.8500 718.0000 1.0000
57.8600 720.0000 1.0000
57.8700 667.0000 1.0000
57.8800 712.0000 1.0000
57.8900 709.0000 1.0000
57.9000 693.0000 1.0000
57.9100 704.0000 1.0000
57.9200 664.0000 1.0000
57.9300 675.0000 1.0000
57.9400 660.0000 1.0000
57.9500 702.0000 1.0000
57.9600 764.0000 1.0000
57.9700 721.0000 1.0000
57.9800 768.0000 1.0000
57.9900 750.0000 1.0000
58.0000 761.0000 1.0000
58.0100 756.0000 1.0000
58.0200 753.0000 1.0000
58.0300 700.0000 1.0000
58.0400 725.0000 1.0000
58.0500 696.0000 1.0000
58.0600 721.0000 1.0000
58.0700 722.0000 1.0000
58.0800 748.0000 1.0000
58.0900 757.0000 1.0000
58.1000 752.0000 1.0000
58.1100 749.0000 1.0000
58.1200 752.0000 1.0000
58.1300 709.0000 1.0000
58.1400 726.0000 1.0000
58.1500 720.0000 1.0000
58.1600 742.0000 1.0000
58.1700 730.0000 1.0000
58.1800 700.0000 1.0000
58.1900 760.0000 1.0000
58.2000 731.0000 1.0000
58.2100 732.0000 1.0000
58.2200 749.0000 1.0000
58.2300 730.0000 1.0000
58.2400 726.0000 1.0000
58.2500 755.0000 1.0000
58.2600 732.0000 1.0000
58.2700 760.0000 1.0000
58.2800 731.0000 1.0000
58.2900 750.0000 1.0000
58.3000 726.0000 1.0000
58.3100 737.0000 1.0000
58.3200 681.0000 1.0000
58.3300 704.0000 1.0000
58.3400 722.0000 1.0000
58.3500 781.0000 1.0000
58.3600 715.0000 1.0000
58.3700 785.0000 1.0000
58.3800 765.0000 1.0000
58.3900 723.0000 1.0000
58.4000 728.0000 1.0000
58.4100 749.0000 1.0000
58.4200 682.0000 1.0000
58.4300 681.0000 1.0000
58.4400 729.0000 1.0000
58.4500 716.0000 1.0000
58.4600 713.0000 1.0000
58.4700 732.0000 1.0000
58.4800 700.0000 1.0000
58.4900 772.0000 1.0000
58.5000 718.0000 1.0000
58.5100 711.0000 1.0000
58.5200 710.0000 1.0000
58.5300 729.0000 1.0000
58.5400 702.0000 1.0000
58.5500 731.0000 1.0000
58.5600 758.0000 1.0000
58.5700 697.0000 1.0000
58.5800 753.0000 1.0000
58.5900 700.0000 1.0000
58.6000 725.0000 1.0000
58.6100 761.0000 1.0000
58.6200 716.0000 1.0000
58.6300 710.0000 1.0000
58.6400 709.0000 1.0000
58.6500 740.0000 1.0000
58.6600 750.0000 1.0000
58.6700 730.0000 1.0000
58.6800 748.0000 1.0000
58.6900 711.0000 1.0000
58.7000 686.0000 1.0000
58.7100 752.0000 1.0000
58.7200 778.0000 1.0000
58.7300 740.0000 1.0000
58.7400 730.0000 1.0000
58.7500 752.0000 1.0000
58.7600 721.0000 1.0000
58.7700 718.0000 1.0000
58.7800 750.0000 1.0000
58.7900 723.0000 1.0000
58.8000 693.0000 1.0000
58.8100 713.0000 1.0000
58.8200 731.0000 1.0000
58.8300 736.0000 1.0000
58.8400 746.0000 1.0000
58.8500 743.0000 1.0000
58.8600 700.0000 1.0000
58.8700 669.0000 1.0000
58.8800 704.0000 1.0000
58.8900 711.0000 1.0000
58.9000 721.0000 1.0000
58.9100 732.0000 1.0000
58.9200 730.0000 1.0000
58.9300 725.0000 1.0000
58.9400 712.0000 1.0000
58.9500 720.0000 1.0000
58.9600 713.0000 1.0000
58.9700 714.0000 1.0000
58.9800 690.0000 1.0000
58.9900 696.0000 1.0000
59.0000 679.0000 1.0000
59.0100 691.0000 1.0000
59.0200 747.0000 1.0000
59.0300 741.0000 1.0000
59.0400 684.0000 1.0000
59.0500 726.0000 1.0000
59.0600 744.0000 1.0000
59.0700 693.0000 1.0000
59.0800 770.0000 1.0000
59.0900 714.0000 1.0000
59.1000 676.0000 1.0000
59.1100 766.0000 1.0000
59.1200 717.0000 1.0000
59.1300 704.0000 1.0000
59.1400 704.0000 1.0000
59.1500 696.0000 1.0000
59.1600 698.0000 1.0000
59.1700 643.0000 1.0000
59.1800 708.0000 1.0000
59.1900 692.0000 1.0000
59.2000 729.0000 1.0000
59.2100 728.0000 1.0000
59.2200 702.0000 1.0000
59.2300 727.0000 1.0000
59.2400 743.0000 1.0000
59.2500 721.0000 1.0000
59.2600 718.0000 1.0000
59.2700 750.0000 1.0000
59.2800 656.0000 1.0000
59.2900 698.0000 1.0000
59.3000 702.0000 1.0000
59.3100 712.0000 1.0000
59.3200 700.0000 1.0000
59.3300 731.0000 1.0000
59.3400 718.0000 1.0000
59.3500 691.0000 1.0000
59.3600 682.0000 1.0000
59.3700 733.0000 1.0000
59.3800 743.0000 1.0000
59.3900 725.0000 1.0000
59.4000 743.0000 1.0000
59.4100 732.0000 1.0000
59.4200 707.0000 1.0000
59.4300 722.0000 1.0000
59.4400 694.0000 1.0000
59.4500 724.0000 1.0000
59.4600 687.0000 1.0000
59.4700 710.0000 1.0000
59.4800 725.0000 1.0000
59.4900 682.0000 1.0000
59.5000 683.0000 1.0000
59.5100 705.0000 1.0000
59.5200 712.0000 1.0000
59.5300 715.0000 1.0000
59.5400 721.0000 1.0000
59.5500 766.0000 1.0000
59.5600 742.0000 1.0000
59.5700 713.0000 1.0000
59.5800 690.0000 1.0000
59.5900 698.0000 1.0000
59.6000 700.0000 1.0000
59.6100 707.0000 1.0000
59.6200 711.0000 1.0000
59.6300 695.0000 1.0000
59.6400 680.0000 1.0000
59.6500 704.0000 1.0000
59.6600 694.0000 1.0000
59.6700 698.0000 1.0000
59.6800 733.0000 1.0000
59.6900 693.0000 1.0000
59.7000 729.0000 1.0000
59.7100 668.0000 1.0000
59.7200 725.0000 1.0000
59.7300 699.0000 1.0000
59.7400 700.0000 1.0000
59.7500 738.0000 1.0000
59.7600 779.0000 1.0000
59.7700 685.0000 1.0000
59.7800 710.0000 1.0000
59.7900 725.0000 1.0000
59.8000 707.0000 1.0000
59.8100 685.0000 1.0000
59.8200 731.0000 1.0000
59.8300 679.0000 1.0000
59.8400 725.0000 1.0000
59.8500 713.0000 1.0000
59.8600 709.0000 1.0000
59.8700 748.0000 1.0000
59.8800 693.0000 1.0000
59.8900 746.0000 1.0000
59.9000 667.0000 1.0000
59.9100 701.0000 1.0000
59.9200 748.0000 1.0000
59.9300 709.0000 1.0000
59.9400 707.0000 1.0000
59.9500 672.0000 1.0000
59.9600 672.0000 1.0000
59.9700 721.0000 1.0000
59.9800 747.0000 1.0000
59.9900 713.0000 1.0000
60.0000 713.0000 1.0000
60.0100 703.0000 1.0000
60.0200 696.0000 1.0000
60.0300 741.0000 1.0000
60.0400 693.0000 1.0000
60.0500 699.0000 1.0000
60.0600 711.0000 1.0000
60.0700 738.0000 1.0000
60.0800 686.0000 1.0000
60.0900 687.0000 1.0000
60.1000 703.0000 1.0000
60.1100 687.0000 1.0000
60.1200 720.0000 1.0000
60.1300 741.0000 1.0000
60.1400 715.0000 1.0000
60.1500 703.0000 1.0000
60.1600 721.0000 1.0000
60.1700 729.0000 1.0000
60.1800 735.0000 1.0000
60.1900 752.0000 1.0000
60.2000 697.0000 1.0000
60.2100 724.0000 1.0000
60.2200 722.0000 1.0000
60.2300 719.0000 1.0000
60.2400 724.0000 1.0000
60.2500 680.0000 1.0000
60.2600 726.0000 1.0000
60.2700 696.0000 1.0000
60.2800 726.0000 1.0000
60.2900 686.0000 1.0000
60.3000 689.0000 1.0000
60.3100 760.0000 1.0000
60.3200 718.0000 1.0000
60.3300 708.0000 1.0000
60.3400 698.0000 1.0000
60.3500 710.0000 1.0000
60.3600 702.0000 1.0000
60.3700 659.0000 1.0000
60.3800 704.0000 1.0000
60.3900 753.0000 1.0000
60.4000 738.0000 1.0000
60.4100 762.0000 1.0000
60.4200 709.0000 1.0000
60.4300 696.0000 1.0000
60.4400 707.0000 1.0000
60.4500 661.0000 1.0000
60.4600 713.0000 1.0000
60.4700 678.0000 1.0000
60.4800 720.0000 1.0000
60.4900 684.0000 1.0000
60.5000 697.0000 1.0000
60.5100 647.0000 1.0000
60.5200 708.0000 1.0000
60.5300 715.0000 1.0000
60.5400 666.0000 1.0000
60.5500 723.0000 1.0000
60.5600 714.0000 1.0000
60.5700 714.0000 1.0000
60.5800 738.0000 1.0000
60.5900 735.0000 1.0000
60.6000 699.0000 1.0000
60.6100 742.0000 1.0000
60.6200 717.0000 1.0000
60.6300 724.0000 1.0000
60.6400 704.0000 1.0000
60.6500 668.0000 1.0000
60.6600 701.0000 1.0000
60.6700 656.0000 1.0000
60.6800 708.0000 1.0000
60.6900 724.0000 1.0000
60.7000 691.0000 1.0000
60.7100 720.0000 1.0000
60.7200 745.0000 1.0000
60.7300 716.0000 1.0000
60.7400 727.0000 1.0000
60.7500 671.0000 1.0000
60.7600 693.0000 1.0000
60.7700 692.0000 1.0000
60.7800 700.0000 1.0000
60.7900 713.0000 1.0000
60.8000 706.0000 1.0000
60.8100 746.0000 1.0000
60.8200 710.0000 1.0000
60.8300 715.0000 1.0000
60.8400 714.0000 1.0000
60.8500 715.0000 1.0000
60.8600 719.0000 1.0000
60.8700 708.0000 1.0000
60.8800 738.0000 1.0000
60.8900 729.0000 1.0000
60.9000 701.0000 1.0000
60.9100 696.0000 1.0000
60.9200 701.0000 1.0000
60.9300 731.0000 1.0000
60.9400 693.0000 1.0000
60.9500 694.0000 1.0000
60.9600 720.0000 1.0000
60.9700 733.0000 1.0000
60.9800 688.0000 1.0000
60.9900 742.0000 1.0000
61.0000 696.0000 1.0000
61.0100 656.0000 1.0000
61.0200 716.0000 1.0000
61.0300 717.0000 1.0000
61.0400 772.0000 1.0000
61.0500 707.0000 1.0000
61.0600 693.0000 1.0000
61.0700 721.0000 1.0000
61.0800 706.0000 1.0000
61.0900 698.0000 1.0000
61.1000 722.0000 1.0000
61.1100 715.0000 1.0000
61.1200 744.0000 1.0000
61.1300 750.0000 1.0000
61.1400 726.0000 1.0000
61.1500 752.0000 1.0000
61.1600 733.0000 1.0000
61.1700 715.0000 1.0000
61.1800 682.0000 1.0000
61.1900 752.0000 1.0000
61.2000 686.0000 1.0000
61.2100 697.0000 1.0000
61.2200 752.0000 1.0000
61.2300 742.0000 1.0000
61.2400 743.0000 1.0000
61.2500 709.0000 1.0000
61.2600 722.0000 1.0000
61.2700 663.0000 1.0000
61.2800 735.0000 1.0000
61.2900 759.0000 1.0000
61.3000 717.0000 1.0000
61.3100 706.0000 1.0000
61.3200 726.0000 1.0000
61.3300 708.0000 1.0000
61.3400 699.0000 1.0000
61.3500 712.0000 1.0000
61.3600 735.0000 1.0000
61.3700 739.0000 1.0000
61.3800 716.0000 1.0000
61.3900 725.0000 1.0000
61.4000 722.0000 1.0000
61.4100 707.0000 1.0000
61.4200 681.0000 1.0000
61.4300 753.0000 1.0000
61.4400 744.0000 1.0000
61.4500 755.0000 1.0000
61.4600 745.0000 1.0000
61.4700 767.0000 1.0000
61.4800 729.0000 1.0000
61.4900 715.0000 1.0000
61.5000 737.0000 1.0000
61.5100 744.0000 1.0000
61.5200 749.0000 1.0000
61.5300 721.0000 1.0000
61.5400 749.0000 1.0000
61.5500 747.0000 1.0000
61.5600 739.0000 1.0000
61.5700 766.0000 1.0000
61.5800 765.0000 1.0000
61.5900 733.0000 1.0000
61.6000 737.0000 1.0000
61.6100 748.0000 1.0000
61.6200 743.0000 1.0000
61.6300 718.0000 1.0000
61.6400 743.0000 1.0000
61.6500 765.0000 1.0000
61.6600 774.0000 1.0000
61.6700 762.0000 1.0000
61.6800 732.0000 1.0000
61.6900 747.0000 1.0000
61.7000 705.0000 1.0000
61.7100 751.0000 1.0000
61.7200 783.0000 1.0000
61.7300 753.0000 1.0000
61.7400 728.0000 1.0000
61.7500 769.0000 1.0000
61.7600 754.0000 1.0000
61.7700 811.0000 1.0000
61.7800 751.0000 1.0000
61.7900 761.0000 1.0000
61.8000 756.0000 1.0000
61.8100 825.0000 1.0000
61.8200 769.0000 1.0000
61.8300 801.0000 1.0000
61.8400 757.0000 1.0000
61.8500 801.0000 1.0000
61.8600 792.0000 1.0000
61.8700 837.0000 1.0000
61.8800 846.0000 1.0000
61.8900 834.0000 1.0000
61.9000 806.0000 1.0000
61.9100 808.0000 1.0000
61.9200 814.0000 1.0000
61.9300 813.0000 1.0000
61.9400 857.0000 1.0000
61.9500 888.0000 1.0000
61.9600 849.0000 1.0000
61.9700 871.0000 1.0000
61.9800 871.0000 1.0000
61.9900 911.0000 1.0000
62.0000 957.0000 1.0000
62.0100 907.0000 1.0000
62.0200 977.0000 1.0000
62.0300 981.0000 1.0000
62.0400 997.0000 1.0000
62.0500 940.0000 1.0000
62.0600 977.0000 1.0000
62.0700 993.0000 1.0000
62.0800 1078.0000 1.0000
62.0900 1070.0000 1.0000
62.1000 1118.0000 1.0000
62.1100 1097.0000 1.0000
62.1200 1112.0000 1.0000
62.1300 1180.0000 1.0000
62.1400 1186.0000 1.0000
62.1500 1271.0000 1.0000
62.1600 1282.0000 1.0000
62.1700 1311.0000 1.0000
62.1800 1331.0000 1.0000
62.1900 1350.0000 1.0000
62.2000 1440.0000 1.0000
62.2100 1463.0000 1.0000
62.2200 1444.0000 1.0000
62.2300 1515.0000 1.0000
62.2400 1536.0000 1.0000
62.2500 1522.0000 1.0000
62.2600 1573.0000 1.0000
62.2700 1678.0000 1.0000
62.2800 1653.0000 1.0000
62.2900 1666.0000 1.0000
62.3000 1742.0000 1.0000
62.3100 1733.0000 1.0000
62.3200 1722.0000 1.0000
62.3300 1673.0000 1.0000
62.3400 1722.0000 1.0000
62.3500 1632.0000 1.0000
62.3600 1660.0000 1.0000
62.3700 1602.0000 1.0000
62.3800 1637.0000 1.0000
62.3900 1660.0000 1.0000
62.4000 1602.0000 1.0000
62.4100 1561.0000 1.0000
62.4200 1595.0000 1.0000
62.4300 1612.0000 1.0000
62.4400 1614.0000 1.0000
62.4500 1569.0000 1.0000
62.4600 1468.0000 1.0000
62.4700 1470.0000 1.0000
62.4800 1426.0000 1.0000
62.4900 1467.0000 1.0000
62.5000 1404.0000 1.0000
62.5100 1358.0000 1.0000
62.5200 1327.0000 1.0000
62.5300 1297.0000 1.0000
62.5400 1194.0000 1.0000
62.5500 1254.0000 1.0000
62.5600 1289.0000 1.0000
62.5700 1195.0000 1.0000
62.5800 1165.0000 1.0000
62.5900 1186.0000 1.0000
62.6000 1168.0000 1.0000
62.6100 1095.0000 1.0000
62.6200 1072.0000 1.0000
62.6300 1057.0000 1.0000
62.6400 1042.0000 1.0000
62.6500 1010.0000 1.0000
62.6600 1006.0000 1.0000
62.6700 1016.0000 1.0000
62.6800 1025.0000 1.0000
62.6900 996.0000 1.0000
62.7000 955.0000 1.0000
62.7100 975.0000 1.0000
62.7200 1032.0000 1.0000
62.7300 926.0000 1.0000
62.7400 945.0000 1.0000
62.7500 892.0000 1.0000
62.7600 911.0000 1.0000
62.7700 865.0000 1.0000
62.7800 859.0000 1.0000
62.7900 824.0000 1.0000
62.8000 850.0000 1.0000
62.8100 797.0000 1.0000
62.8200 842.0000 1.0000
62.8300 862.0000 1.0000
62.8400 821.0000 1.0000
62.8500 787.0000 1.0000
62.8600 819.0000 1.0000
62.8700 798.0000 1.0000
62.8800 792.0000 1.0000
62.8900 773.0000 1.0000
62.9000 837.0000 1.0000
62.9100 756.0000 1.0000
62.9200 752.0000 1.0000
62.9300 782.0000 1.0000
62.9400 824.0000 1.0000
62.9500 834.0000 1.0000
62.9600 798.0000 1.0000
62.9700 813.0000 1.0000
62.9800 788.0000 1.0000
62.9900 788.0000 1.0000
63.0000 809.0000 1.0000
63.0100 822.0000 1.0000
63.0200 803.0000 1.0000
63.0300 748.0000 1.0000
63.0400 746.0000 1.0000
63.0500 769.0000 1.0000
63.0600 770.0000 1.0000
63.0700 762.0000 1.0000
63.0800 771.0000 1.0000
63.0900 848.0000 1.0000
63.1000 785.0000 1.0000
63.1100 764.0000 1.0000
63.1200 806.0000 1.0000
63.1300 746.0000 1.0000
63.1400 760.0000 1.0000
63.1500 737.0000 1.0000
63.1600 771.0000 1.0000
63.1700 744.0000 1.0000
63.1800 747.0000 1.0000
63.1900 766.0000 1.0000
63.2000 800.0000 1.0000
63.2100 757.0000 1.0000
63.2200 782.0000 1.0000
63.2300 793.0000 1.0000
63.2400 770.0000 1.0000
63.2500 710.0000 1.0000
63.2600 792.0000 1.0000
63.2700 738.0000 1.0000
63.2800 783.0000 1.0000
63.2900 784.0000 1.0000
63.3000 729.0000 1.0000
63.3100 761.0000 1.0000
63.3200 711.0000 1.0000
63.3300 769.0000 1.0000
63.3400 756.0000 1.0000
63.3500 749.0000 1.0000
63.3600 741.0000 1.0000
63.3700 755.0000 1.0000
63.3800 722.0000 1.0000
63.3900 763.0000 1.0000
63.4000 761.0000 1.0000
63.4100 753.0000 1.0000
63.4200 770.0000 1.0000
63.4300 715.0000 1.0000
63.4400 758.0000 1.0000
63.4500 741.0000 1.0000
63.4600 766.0000 1.0000
63.4700 709.0000 1.0000
63.4800 733.0000 1.0000
63.4900 688.0000 1.0000
63.5000 721.0000 1.0000
63.5100 676.0000 1.0000
63.5200 663.0000 1.0000
63.5300 675.0000 1.0000
63.5400 692.0000 1.0000
63.5500 669.0000 1.0000
63.5600 708.0000 1.0000
63.5700 719.0000 1.0000
63.5800 733.0000 1.0000
63.5900 719.0000 1.0000
63.6000 686.0000 1.0000
63.6100 728.0000 1.0000
63.6200 732.0000 1.0000
63.6300 717.0000 1.0000
63.6400 678.0000 1.0000
63.6500 715.0000 1.0000
63.6600 709.0000 1.0000
63.6700 688.0000 1.0000
63.6800 726.0000 1.0000
63.6900 728.0000 1.0000
63.7000 723.0000 1.0000
63.7100 741.0000 1.0000
63.7200 748.0000 1.0000
63.7300 766.0000 1.0000
63.7400 695.0000 1.0000
63.7500 733.0000 1.0000
63.7600 755.0000 1.0000
63.7700 729.0000 1.0000
63.7800 722.0000 1.0000
63.7900 739.0000 1.0000
63.8000 688.0000 1.0000
63.8100 695.0000 1.0000
63.8200 709.0000 1.0000
63.8300 724.0000 1.0000
63.8400 669.0000 1.0000
63.8500 728.0000 1.0000
63.8600 729.0000 1.0000
63.8700 730.0000 1.0000
63.8800 713.0000 1.0000
63.8900 749.0000 1.0000
63.9000 745.0000 1.0000
63.9100 724.0000 1.0000
63.9200 702.0000 1.0000
63.9300 754.0000 1.0000
63.9400 725.0000 1.0000
63.9500 694.0000 1.0000
63.9600 766.0000 1.0000
63.9700 761.0000 1.0000
63.9800 738.0000 1.0000
63.9900 752.0000 1.0000
64.0000 700.0000 1.0000
64.0100 688.0000 1.0000
64.0200 738.0000 1.0000
64.0300 716.0000 1.0000
64.0400 709.0000 1.0000
64.0500 685.0000 1.0000
64.0600 722.0000 1.0000
64.0700 698.0000 1.0000
64.0800 755.0000 1.0000
64.0900 740.0000 1.0000
64.1000 729.0000 1.0000
64.1100 701.0000 1.0000
64.1200 738.0000 1.0000
64.1300 745.0000 1.0000
64.1400 753.0000 1.0000
64.1500 727.0000 1.0000
64.1600 703.0000 1.0000
64.1700 730.0000 1.0000
64.1800 742.0000 1.0000
64.1900 724.0000 1.0000
64.2000 718.0000 1.0000
64.2100 757.0000 1.0000
64.2200 750.0000 1.0000
64.2300 773.0000 1.0000
64.2400 767.0000 1.0000
64.2500 768.0000 1.0000
64.2600 729.0000 1.0000
64.2700 719.0000 1.0000
64.2800 704.0000 1.0000
64.2900 704.0000 1.0000
64.3000 781.0000 1.0000
64.3100 736.0000 1.0000
64.3200 735.0000 1.0000
64.3300 742.0000 1.0000
64.3400 702.0000 1.0000
64.3500 732.0000 1.0000
64.3600 721.0000 1.0000
64.3700 771.0000 1.0000
64.3800 730.0000 1.0000
64.3900 768.0000 1.0000
64.4000 779.0000 1.0000
64.4100 785.0000 1.0000
64.4200 800.0000 1.0000
64.4300 777.0000 1.0000
64.4400 826.0000 1.0000
64.4500 824.0000 1.0000
64.4600 746.0000 1.0000
64.4700 739.0000 1.0000
64.4800 789.0000 1.0000
64.4900 844.0000 1.0000
64.5000 858.0000 1.0000
64.5100 813.0000 1.0000
64.5200 792.0000 1.0000
64.5300 815.0000 1.0000
64.5400 796.0000 1.0000
64.5500 859.0000 1.0000
64.5600 844.0000 1.0000
64.5700 829.0000 1.0000
64.5800 894.0000 1.0000
64.5900 892.0000 1.0000
64.6000 901.0000 1.0000
64.6100 880.0000 1.0000
64.6200 916.0000 1.0000
64.6300 953.0000 1.0000
64.6400 934.0000 1.0000
64.6500 901.0000 1.0000
64.6600 948.0000 1.0000
64.6700 979.0000 1.0000
64.6800 1016.0000 1.0000
64.6900 980.0000 1.0000
64.7000 969.0000 1.0000
64.7100 1047.0000 1.0000
64.7200 1004.0000 1.0000
64.7300 976.0000 1.0000
64.7400 986.0000 1.0000
64.7500 970.0000 1.0000
64.7600 943.0000 1.0000
64.7700 956.0000 1.0000
64.7800 1019.0000 1.0000
64.7900 958.0000 1.0000
64.8000 943.0000 1.0000
64.8100 982.0000 1.0000
64.8200 989.0000 1.0000
64.8300 938.0000 1.0000
64.8400 993.0000 1.0000
64.8500 992.0000 1.0000
64.8600 903.0000 1.0000
64.8700 979.0000 1.0000
64.8800 948.0000 1.0000
64.8900 920.0000 1.0000
64.9000 975.0000 1.0000
64.9100 945.0000 1.0000
64.9200 924.0000 1.0000
64.9300 929.0000 1.0000
64.9400 898.0000 1.0000
64.9500 879.0000 1.0000
64.9600 857.0000 1.0000
64.9700 856.0000 1.0000
64.9800 825.0000 1.0000
64.9900 853.0000 1.0000
65.0000 861.0000 1.0000
65.0100 848.0000 1.0000
65.0200 826.0000 1.0000
65.0300 831.0000 1.0000
65.0400 845.0000 1.0000
65.0500 864.0000 1.0000
65.0600 843.0000 1.0000
65.0700 815.0000 1.0000
65.0800 815.0000 1.0000
65.0900 772.0000 1.0000
65.1000 798.0000 1.0000
65.1100 813.0000 1.0000
65.1200 813.0000 1.0000
65.1300 838.0000 1.0000
65.1400 774.0000 1.0000
65.1500 755.0000 1.0000
65.1600 794.0000 1.0000
65.1700 786.0000 1.0000
65.1800 789.0000 1.0000
65.1900 758.0000 1.0000
65.2000 789.0000 1.0000
65.2100 769.0000 1.0000
65.2200 766.0000 1.0000
65.2300 774.0000 1.0000
65.2400 791.0000 1.0000
65.2500 796.0000 1.0000
65.2600 745.0000 1.0000
65.2700 764.0000 1.0000
65.2800 784.0000 1.0000
65.2900 748.0000 1.0000
65.3000 735.0000 1.0000
65.3100 791.0000 1.0000
65.3200 739.0000 1.0000
65.3300 767.0000 1.0000
65.3400 754.0000 1.0000
65.3500 745.0000 1.0000
65.3600 748.0000 1.0000
65.3700 755.0000 1.0000
65.3800 735.0000 1.0000
65.3900 718.0000 1.0000
65.4000 738.0000 1.0000
65.4100 756.0000 1.0000
65.4200 755.0000 1.0000
65.4300 763.0000 1.0000
65.4400 729.0000 1.0000
65.4500 735.0000 1.0000
65.4600 754.0000 1.0000
65.4700 706.0000 1.0000
65.4800 739.0000 1.0000
65.4900 731.0000 1.0000
65.5000 726.0000 1.0000
65.5100 699.0000 1.0000
65.5200 755.0000 1.0000
65.5300 740.0000 1.0000
65.5400 796.0000 1.0000
65.5500 767.0000 1.0000
65.5600 738.0000 1.0000
65.5700 751.0000 1.0000
65.5800 762.0000 1.0000
65.5900 773.0000 1.0000
65.6000 754.0000 1.0000
65.6100 749.0000 1.0000
65.6200 765.0000 1.0000
65.6300 768.0000 1.0000
65.6400 770.0000 1.0000
65.6500 790.0000 1.0000
65.6600 766.0000 1.0000
65.6700 776.0000 1.0000
65.6800 800.0000 1.0000
65.6900 785.0000 1.0000
65.7000 795.0000 1.0000
65.7100 793.0000 1.0000
65.7200 822.0000 1.0000
65.7300 850.0000 1.0000
65.7400 824.0000 1.0000
65.7500 788.0000 1.0000
65.7600 752.0000 1.0000
65.7700 795.0000 1.0000
65.7800 832.0000 1.0000
65.7900 802.0000 1.0000
65.8000 761.0000 1.0000
65.8100 769.0000 1.0000
65.8200 855.0000 1.0000
65.8300 848.0000 1.0000
65.8400 820.0000 1.0000
65.8500 821.0000 1.0000
65.8600 816.0000 1.0000
65.8700 843.0000 1.0000
65.8800 882.0000 1.0000
65.8900 882.0000 1.0000
65.9000 916.0000 1.0000
65.9100 918.0000 1.0000
65.9200 924.0000 1.0000
65.9300 867.0000 1.0000
65.9400 940.0000 1.0000
65.9500 942.0000 1.0000
65.9600 954.0000 1.0000
65.9700 1010.0000 1.0000
65.9800 1019.0000 1.0000
65.9900 1049.0000 1.0000
66.0000 1043.0000 1.0000
66.0100 1072.0000 1.0000
66.0200 1123.0000 1.0000
66.0300 1144.0000 1.0000
66.0400 1077.0000 1.0000
66.0500 1153.0000 1.0000
66.0600 1229.0000 1.0000
66.0700 1249.0000 1.0000
66.0800 1346.0000 1.0000
66.0900 1410.0000 1.0000
66.1000 1439.0000 1.0000
66.1100 1457.0000 1.0000
66.1200 1535.0000 1.0000
66.1300 1589.0000 1.0000
66.1400 1670.0000 1.0000
66.1500 1747.0000 1.0000
66.1600 1922.0000 1.0000
66.1700 2048.0000 1.0000
66.1800 2084.0000 1.0000
66.1900 2159.0000 1.0000
66.2000 2288.0000 1.0000
66.2100 2369.0000 1.0000
66.2200 2438.0000 1.0000
66.2300 2531.0000 1.0000
66.2400 2608.0000 1.0000
66.2500 2612.0000 1.0000
66.2600 2695.0000 1.0000
66.2700 2592.0000 1.0000
66.2800 2646.0000 1.0000
66.2900 2596.0000 1.0000
66.3000 2487.0000 1.0000
66.3100 2503.0000 1.0000
66.3200 2530.0000 1.0000
66.3300 2498.0000 1.0000
66.3400 2344.0000 1.0000
66.3500 2371.0000 1.0000
66.3600 2332.0000 1.0000
66.3700 2317.0000 1.0000
66.3800 2262.0000 1.0000
66.3900 2240.0000 1.0000
66.4000 2216.0000 1.0000
66.4100 2132.0000 1.0000
66.4200 2224.0000 1.0000
66.4300 2221.0000 1.0000
66.4400 2147.0000 1.0000
66.4500 2044.0000 1.0000
66.4600 2014.0000 1.0000
66.4700 1907.0000 1.0000
66.4800 1919.0000 1.0000
66.4900 1885.0000 1.0000
66.5000 1804.0000 1.0000
66.5100 1680.0000 1.0000
66.5200 1647.0000 1.0000
66.5300 1551.0000 1.0000
66.5400 1501.0000 1.0000
66.5500 1467.0000 1.0000
66.5600 1309.0000 1.0000
66.5700 1331.0000 1.0000
66.5800 1294.0000 1.0000
66.5900 1278.0000 1.0000
66.6000 1266.0000 1.0000
66.6100 1201.0000 1.0000
66.6200 1130.0000 1.0000
66.6300 1151.0000 1.0000
66.6400 1117.0000 1.0000
66.6500 1059.0000 1.0000
66.6600 1032.0000 1.0000
66.6700 1033.0000 1.0000
66.6800 970.0000 1.0000
66.6900 1003.0000 1.0000
66.7000 961.0000 1.0000
66.7100 998.0000 1.0000
66.7200 941.0000 1.0000
66.7300 963.0000 1.0000
66.7400 915.0000 1.0000
66.7500 911.0000 1.0000
66.7600 900.0000 1.0000
66.7700 845.0000 1.0000
66.7800 884.0000 1.0000
66.7900 874.0000 1.0000
66.8000 851.0000 1.0000
66.8100 859.0000 1.0000
66.8200 817.0000 1.0000
66.8300 780.0000 1.0000
66.8400 806.0000 1.0000
66.8500 770.0000 1.0000
66.8600 767.0000 1.0000
66.8700 783.0000 1.0000
66.8800 774.0000 1.0000
66.8900 758.0000 1.0000
66.9000 780.0000 1.0000
66.9100 739.0000 1.0000
66.9200 747.0000 1.0000
66.9300 763.0000 1.0000
66.9400 793.0000 1.0000
66.9500 738.0000 1.0000
66.9600 807.0000 1.0000
66.9700 790.0000 1.0000
66.9800 751.0000 1.0000
66.9900 718.0000 1.0000
67.0000 719.0000 1.0000
67.0100 689.0000 1.0000
67.0200 749.0000 1.0000
67.0300 731.0000 1.0000
67.0400 679.0000 1.0000
67.0500 703.0000 1.0000
67.0600 712.0000 1.0000
67.0700 734.0000 1.0000
67.0800 721.0000 1.0000
67.0900 735.0000 1.0000
67.1000 720.0000 1.0000
67.1100 777.0000 1.0000
67.1200 779.0000 1.0000
67.1300 714.0000 1.0000
67.1400 694.0000 1.0000
67.1500 696.0000 1.0000
67.1600 672.0000 1.0000
67.1700 692.0000 1.0000
67.1800 696.0000 1.0000
67.1900 702.0000 1.0000
67.2000 690.0000 1.0000
67.2100 693.0000 1.0000
67.2200 699.0000 1.0000
67.2300 722.0000 1.0000
67.2400 710.0000 1.0000
67.2500 720.0000 1.0000
67.2600 705.0000 1.0000
67.2700 730.0000 1.0000
67.2800 691.0000 1.0000
67.2900 691.0000 1.0000
67.3000 666.0000 1.0000
67.3100 658.0000 1.0000
67.3200 731.0000 1.0000
67.3300 701.0000 1.0000
67.3400 677.0000 1.0000
67.3500 653.0000 1.0000
67.3600 666.0000 1.0000
67.3700 749.0000 1.0000
67.3800 676.0000 1.0000
67.3900 682.0000 1.0000
67.4000 710.0000 1.0000
67.4100 673.0000 1.0000
67.4200 681.0000 1.0000
67.4300 684.0000 1.0000
67.4400 680.0000 1.0000
67.4500 685.0000 1.0000
67.4600 674.0000 1.0000
67.4700 669.0000 1.0000
67.4800 668.0000 1.0000
67.4900 710.0000 1.0000
67.5000 673.0000 1.0000
67.5100 686.0000 1.0000
67.5200 669.0000 1.0000
67.5300 665.0000 1.0000
67.5400 631.0000 1.0000
67.5500 658.0000 1.0000
67.5600 678.0000 1.0000
67.5700 698.0000 1.0000
67.5800 695.0000 1.0000
67.5900 658.0000 1.0000
67.6000 634.0000 1.0000
67.6100 699.0000 1.0000
67.6200 677.0000 1.0000
67.6300 662.0000 1.0000
67.6400 645.0000 1.0000
67.6500 666.0000 1.0000
67.6600 698.0000 1.0000
67.6700 666.0000 1.0000
67.6800 709.0000 1.0000
67.6900 674.0000 1.0000
67.7000 662.0000 1.0000
67.7100 630.0000 1.0000
67.7200 641.0000 1.0000
67.7300 618.0000 1.0000
67.7400 670.0000 1.0000
67.7500 664.0000 1.0000
67.7600 647.0000 1.0000
67.7700 640.0000 1.0000
67.7800 634.0000 1.0000
67.7900 723.0000 1.0000
67.8000 643.0000 1.0000
67.8100 639.0000 1.0000
67.8200 661.0000 1.0000
67.8300 666.0000 1.0000
67.8400 666.0000 1.0000
67.8500 657.0000 1.0000
67.8600 633.0000 1.0000
67.8700 694.0000 1.0000
67.8800 669.0000 1.0000
67.8900 718.0000 1.0000
67.9000 695.0000 1.0000
67.9100 653.0000 1.0000
67.9200 676.0000 1.0000
67.9300 657.0000 1.0000
67.9400 664.0000 1.0000
67.9500 679.0000 1.0000
67.9600 652.0000 1.0000
67.9700 662.0000 1.0000
67.9800 680.0000 1.0000
67.9900 679.0000 1.0000
68.0000 690.0000 1.0000
68.0100 662.0000 1.0000
68.0200 666.0000 1.0000
68.0300 681.0000 1.0000
68.0400 659.0000 1.0000
68.0500 678.0000 1.0000
68.0600 685.0000 1.0000
68.0700 621.0000 1.0000
68.0800 716.0000 1.0000
68.0900 663.0000 1.0000
68.1000 632.0000 1.0000
68.1100 667.0000 1.0000
68.1200 697.0000 1.0000
68.1300 646.0000 1.0000
68.1400 692.0000 1.0000
68.1500 672.0000 1.0000
68.1600 634.0000 1.0000
68.1700 649.0000 1.0000
68.1800 687.0000 1.0000
68.1900 636.0000 1.0000
68.2000 678.0000 1.0000
68.2100 656.0000 1.0000
68.2200 650.0000 1.0000
68.2300 643.0000 1.0000
68.2400 641.0000 1.0000
68.2500 677.0000 1.0000
68.2600 664.0000 1.0000
68.2700 686.0000 1.0000
68.2800 668.0000 1.0000
68.2900 672.0000 1.0000
68.3000 645.0000 1.0000
68.3100 638.0000 1.0000
68.3200 651.0000 1.0000
68.3300 665.0000 1.0000
68.3400 624.0000 1.0000
68.3500 646.0000 1.0000
68.3600 655.0000 1.0000
68.3700 615.0000 1.0000
68.3800 673.0000 1.0000
68.3900 650.0000 1.0000
68.4000 631.0000 1.0000
68.4100 665.0000 1.0000
68.4200 669.0000 1.0000
68.4300 619.0000 1.0000
68.4400 660.0000 1.0000
68.4500 660.0000 1.0000
68.4600 645.0000 1.0000
68.4700 664.0000 1.0000
68.4800 658.0000 1.0000
68.4900 623.0000 1.0000
68.5000 672.0000 1.0000
68.5100 674.0000 1.0000
68.5200 660.0000 1.0000
68.5300 653.0000 1.0000
68.5400 641.0000 1.0000
68.5500 645.0000 1.0000
68.5600 649.0000 1.0000
68.5700 651.0000 1.0000
68.5800 645.0000 1.0000
68.5900 635.0000 1.0000
68.6000 646.0000 1.0000
68.6100 634.0000 1.0000
68.6200 657.0000 1.0000
68.6300 626.0000 1.0000
68.6400 666.0000 1.0000
68.6500 655.0000 1.0000
68.6600 668.0000 1.0000
68.6700 659.0000 1.0000
68.6800 643.0000 1.0000
68.6900 653.0000 1.0000
68.7000 635.0000 1.0000
68.7100 652.0000 1.0000
68.7200 633.0000 1.0000
68.7300 633.0000 1.0000
68.7400 659.0000 1.0000
68.7500 639.0000 1.0000
68.7600 654.0000 1.0000
68.7700 633.0000 1.0000
68.7800 621.0000 1.0000
68.7900 626.0000 1.0000
68.8000 660.0000 1.0000
68.8100 653.0000 1.0000
68.8200 606.0000 1.0000
68.8300 661.0000 1.0000
68.8400 674.0000 1.0000
68.8500 634.0000 1.0000
68.8600 616.0000 1.0000
68.8700 601.0000 1.0000
68.8800 643.0000 1.0000
68.8900 642.0000 1.0000
68.9000 627.0000 1.0000
68.9100 648.0000 1.0000
68.9200 670.0000 1.0000
68.9300 669.0000 1.0000
68.9400 646.0000 1.0000
68.9500 645.0000 1.0000
68.9600 631.0000 1.0000
68.9700 623.0000 1.0000
68.9800 632.0000 1.0000
68.9900 624.0000 1.0000
69.0000 685.0000 1.0000
69.0100 630.0000 1.0000
69.0200 623.0000 1.0000
69.0300 622.0000 1.0000
69.0400 657.0000 1.0000
69.0500 637.0000 1.0000
69.0600 616.0000 1.0000
69.0700 644.0000 1.0000
69.0800 625.0000 1.0000
69.0900 624.0000 1.0000
69.1000 619.0000 1.0000
69.1100 687.0000 1.0000
69.1200 660.0000 1.0000
69.1300 616.0000 1.0000
69.1400 645.0000 1.0000
69.1500 674.0000 1.0000
69.1600 640.0000 1.0000
69.1700 676.0000 1.0000
69.1800 627.0000 1.0000
69.1900 611.0000 1.0000
69.2000 640.0000 1.0000
69.2100 625.0000 1.0000
69.2200 634.0000 1.0000
69.2300 633.0000 1.0000
69.2400 657.0000 1.0000
69.2500 623.0000 1.0000
69.2600 604.0000 1.0000
69.2700 598.0000 1.0000
69.2800 635.0000 1.0000
69.2900 610.0000 1.0000
69.3000 651.0000 1.0000
69.3100 617.0000 1.0000
69.3200 653.0000 1.0000
69.3300 639.0000 1.0000
69.3400 614.0000 1.0000
69.3500 637.0000 1.0000
69.3600 704.0000 1.0000
69.3700 644.0000 1.0000
69.3800 671.0000 1.0000
69.3900 650.0000 1.0000
69.4000 648.0000 1.0000
69.4100 671.0000 1.0000
69.4200 648.0000 1.0000
69.4300 622.0000 1.0000
69.4400 651.0000 1.0000
69.4500 659.0000 1.0000
69.4600 643.0000 1.0000
69.4700 630.0000 1.0000
69.4800 690.0000 1.0000
69.4900 646.0000 1.0000
69.5000 605.0000 1.0000
69.5100 643.0000 1.0000
69.5200 632.0000 1.0000
69.5300 671.0000 1.0000
69.5400 672.0000 1.0000
69.5500 661.0000 1.0000
69.5600 634.0000 1.0000
69.5700 655.0000 1.0000
69.5800 633.0000 1.0000
69.5900 656.0000 1.0000
69.6000 675.0000 1.0000
69.6100 624.0000 1.0000
69.6200 651.0000 1.0000
69.6300 649.0000 1.0000
69.6400 628.0000 1.0000
69.6500 604.0000 1.0000
69.6600 633.0000 1.0000
69.6700 667.0000 1.0000
69.6800 621.0000 1.0000
69.6900 645.0000 1.0000
69.7000 627.0000 1.0000
69.7100 608.0000 1.0000
69.7200 634.0000 1.0000
69.7300 634.0000 1.0000
69.7400 636.0000 1.0000
69.7500 641.0000 1.0000
69.7600 640.0000 1.0000
69.7700 665.0000 1.0000
69.7800 628.0000 1.0000
69.7900 609.0000 1.0000
69.8000 623.0000 1.0000
69.8100 584.0000 1.0000
69.8200 618.0000 1.0000
69.8300 637.0000 1.0000
69.8400 623.0000 1.0000
69.8500 623.0000 1.0000
69.8600 626.0000 1.0000
69.8700 627.0000 1.0000
69.8800 626.0000 1.0000
69.8900 651.0000 1.0000
69.9000 679.0000 1.0000
69.9100 620.0000 1.0000
69.9200 614.0000 1.0000
69.9300 644.0000 1.0000
69.9400 629.0000 1.0000
69.9500 640.0000 1.0000
69.9600 630.0000 1.0000
69.9700 632.0000 1.0000
69.9800 644.0000 1.0000
69.9900 631.0000 1.0000
70.0000 613.0000 1.0000
*RAS_INT_END
*RAS_TEMPERATURE_START
*RAS_TEMPERATURE_END
*RAS_DATA_END
