*RAS_DATA_START
*RAS_HEADER_START
*DISP_FMT_X "%.2f"
*DISP_FMT_Y "%.0f"
*DISP_FULLSCALE "16142.0000000000"
*DISP_LINE_COLOR "255.0000000000"
*DISP_LINE_STYLE "0.0000000000"
*DISP_LINE_WIDTH "0.2500000000"
*DISP_NOTE "測定データ-5"
*DISP_OFFSET_Y "0.0000000000"
*DISP_PEAKSEARCH_UNIT_Y "cps"
*DISP_RANGE_BOTTOM "0.0000000000"
*DISP_RANGE_LEFT "20.0000000000"
*DISP_RANGE_LOGCUTOFF "0.0100000000"
*DISP_RANGE_RIGHT "70.0000000000"
*DISP_RANGE_TOP "16142.0000000000"
*DISP_SCALE_MODE_Y "0.0000000000"
*DISP_TAB_NAME "2θ/θ"
*DISP_TITLE_Y "強度"
*DISP_UNIT_Y "cps"
*DISP_WINDOW_NAME "MSG_MACROENGINE"
*FILE_COMMENT " "
*FILE_MD5 ""
*FILE_MEMO " "
*FILE_OPERATOR "Administrator"
*FILE_SAMPLE " "
*FILE_TYPE "RAS_RAW"
*FILE_USERGROUP "システムマネージャ"
*FILE_VERSION "1.0000000000"
*HW_ATTACHMENT_ID "ATT0025"
*HW_ATTACHMENT_NAME "標準|Standard"
*HW_COUNTER_ID-0 "CUT0025"
*HW_COUNTER_ID-1 "CUT0020"
*HW_COUNTER_ID-2 "CUT0020"
*HW_COUNTER_ID-3 "CSL0021"
*HW_COUNTER_ID-4 "CMC0021"
*HW_COUNTER_NAME-0 "D/teX Ultra|D/teX Ultra"
*HW_COUNTER_NAME-1 "None|None"
*HW_COUNTER_NAME-2 "None|None"
*HW_COUNTER_NAME-3 "BBM|BBM"
*HW_COUNTER_NAME-4 "検出器モノクロメータ|Detector monochromator"
*HW_COUNTER_SELECT_NAME "D/teX Ultra|D/teX Ultra"
*HW_GONIOMETER_ID "GON0023"
*HW_GONIOMETER_NAME "SmartLab|SmartLab"
*HW_GONIOMETER_RADIUS-0 "90.0"
*HW_GONIOMETER_RADIUS-1 "114.0"
*HW_GONIOMETER_RADIUS-2 "190.0"
*HW_GONIOMETER_RADIUS-3 "300.0"
*HW_GONIOMETER_RADIUS-4 "187.0"
*HW_GONIOMETER_RADIUS-5 "300.0"
*HW_GONIOMETER_RADIUS-6 "113.0"
*HW_GONIOMETER_RADIUS-7 "331.0"
*HW_I_OPT_ID-0 "CBO0021"
*HW_I_OPT_ID-1 "ICR0023"
*HW_I_OPT_ID-2 "ISL0021"
*HW_I_OPT_ID-3 "ISO0021"
*HW_I_OPT_ID-4 "IAD0021"
*HW_I_OPT_ID-5 "IPR0001"
*HW_I_OPT_NAME-0 "CBOユニット|CBO unit"
*HW_I_OPT_NAME-1 "標準入射光学ユニット|Standard incident optical unit"
*HW_I_OPT_NAME-2 "標準入射スリットボックス|Standard incident slit box"
*HW_I_OPT_NAME-3 "入射平行スリット|Incident parallel slit"
*HW_I_OPT_NAME-4 "長手制限スリット|Length limiting slit"
*HW_I_OPT_NAME-5 "None|None"
*HW_R_ATTENUATER_AUTOMODE "0"
*HW_R_OPT_ID-0 "RSS0021"
*HW_R_OPT_ID-1 "RCR0023"
*HW_R_OPT_ID-2 "RSO0021"
*HW_R_OPT_ID-3 "RRS0021"
*HW_R_OPT_ID-4 "ATN0021"
*HW_R_OPT_ID-5 "RFL0021"
*HW_R_OPT_ID-6 "RAD0021"
*HW_R_OPT_NAME-0 "標準受光スリットボックス1|Standard receiving slit box # 1"
*HW_R_OPT_NAME-1 "標準受光光学ユニット1|Standard receiving unit # 1"
*HW_R_OPT_NAME-2 "標準受光光学ユニット2|Standard receiving optical unit # 2"
*HW_R_OPT_NAME-3 "標準受光スリットボックス2|Standard receiving slit box # 2"
*HW_R_OPT_NAME-4 "標準アッテネータ|Standard Attenuator"
*HW_R_OPT_NAME-5 "Cu Kβ|Cu K-beta"
*HW_R_OPT_NAME-6 "調整用受光スリット|Alignment receiving slit"
*HW_SAMPLE_HOLDER_ID "SMP0023"
*HW_SAMPLE_HOLDER_NAME "標準Zステージ|Standard Z stage"
*HW_XG_CURRENT_MAX "50"
*HW_XG_CURRENT_MIN "2"
*HW_XG_CURRENT_RESOLUTION "1"
*HW_XG_CURRENT_UNIT "mA"
*HW_XG_FOCUS "1mm x 10mm"
*HW_XG_FOCUS_TYPE "Normal"
*HW_XG_ID ""
*HW_XG_NAME "3kW 封入管(ID:1200)|3kW Sealed tube(ID:1200)"
*HW_XG_TARGET_ATOMIC_NUMBER "29.0000000000"
*HW_XG_TARGET_NAME "Cu"
*HW_XG_TYPE "Hermetic"
*HW_XG_VOLTAGE_MAX "60"
*HW_XG_VOLTAGE_MIN "20"
*HW_XG_VOLTAGE_RESOLUTION "1"
*HW_XG_VOLTAGE_UNIT "kV"
*HW_XG_WATT_MAX "1.500"
*HW_XG_WATT_UNIT "kW"
*HW_XG_WAVE_LENGTH_ALPHA1 "1.540593"
*HW_XG_WAVE_LENGTH_ALPHA2 "1.544414"
*HW_XG_WAVE_LENGTH_BETA "1.392250"
*MEAS_COND_AXIS_NAME-0 "2θ/θ"
*MEAS_COND_AXIS_NAME-1 "2θ"
*MEAS_COND_AXIS_NAME-2 "ω"
*MEAS_COND_AXIS_NAME-3 "Z"
*MEAS_COND_AXIS_NAME-4 "2θ/ω"
*MEAS_COND_AXIS_NAME-5 "θs"
*MEAS_COND_AXIS_NAME-6 "θd"
*MEAS_COND_AXIS_NAME-7 "Ts"
*MEAS_COND_AXIS_NAME-8 "CBO選択スリット"
*MEAS_COND_AXIS_NAME-9 "M"
*MEAS_COND_AXIS_NAME-10 "入射平行スリット"
*MEAS_COND_AXIS_NAME-11 "入射スリット"
*MEAS_COND_AXIS_NAME-12 ""
*MEAS_COND_AXIS_NAME-13 "Zs"
*MEAS_COND_AXIS_NAME-14 "入射光学素子"
*MEAS_COND_AXIS_NAME-15 "長手制限スリット"
*MEAS_COND_AXIS_NAME-16 "センタースリット"
*MEAS_COND_AXIS_NAME-17 "フィルター"
*MEAS_COND_AXIS_NAME-18 "受光スリット1"
*MEAS_COND_AXIS_NAME-19 "受光スリット2"
*MEAS_COND_AXIS_NAME-20 "受光光学素子"
*MEAS_COND_AXIS_NAME-21 "受光平行スリット"
*MEAS_COND_AXIS_NAME-22 "調整用受光スリット"
*MEAS_COND_AXIS_NAME-23 ""
*MEAS_COND_AXIS_NAME-24 ""
*MEAS_COND_AXIS_NAME-25 "Zd"
*MEAS_COND_AXIS_NAME-26 "アッテネータ"
*MEAS_COND_AXIS_NAME-27 "検出器モノクロメータ"
*MEAS_COND_AXIS_NAME-28 "モノクロメータスリット"
*MEAS_COND_AXIS_NAME-29 "プライマリビーム"
*MEAS_COND_AXIS_NAME-30 "PHA"
*MEAS_COND_AXIS_NAME_INTERNAL-0 "TwoThetaTheta"
*MEAS_COND_AXIS_NAME_INTERNAL-1 "TwoTheta"
*MEAS_COND_AXIS_NAME_INTERNAL-2 "Omega"
*MEAS_COND_AXIS_NAME_INTERNAL-3 "Z"
*MEAS_COND_AXIS_NAME_INTERNAL-4 "TwoThetaOmega"
*MEAS_COND_AXIS_NAME_INTERNAL-5 "ThetaS"
*MEAS_COND_AXIS_NAME_INTERNAL-6 "ThetaD"
*MEAS_COND_AXIS_NAME_INTERNAL-7 "Ts"
*MEAS_COND_AXIS_NAME_INTERNAL-8 "CBO"
*MEAS_COND_AXIS_NAME_INTERNAL-9 "CBO-M"
*MEAS_COND_AXIS_NAME_INTERNAL-10 "IncidentSollerSlit"
*MEAS_COND_AXIS_NAME_INTERNAL-11 "IncidentSlitBox"
*MEAS_COND_AXIS_NAME_INTERNAL-12 "IncidentSlitBox-_Axis"
*MEAS_COND_AXIS_NAME_INTERNAL-13 "Zs"
*MEAS_COND_AXIS_NAME_INTERNAL-14 "IncidentMonochromator"
*MEAS_COND_AXIS_NAME_INTERNAL-15 "IncidentAxdSlit"
*MEAS_COND_AXIS_NAME_INTERNAL-16 "CenterSlit"
*MEAS_COND_AXIS_NAME_INTERNAL-17 "Filter"
*MEAS_COND_AXIS_NAME_INTERNAL-18 "ReceivingSlitBox1"
*MEAS_COND_AXIS_NAME_INTERNAL-19 "ReceivingSlitBox2"
*MEAS_COND_AXIS_NAME_INTERNAL-20 "ReceivingOptics"
*MEAS_COND_AXIS_NAME_INTERNAL-21 "ReceivingSollerSlit"
*MEAS_COND_AXIS_NAME_INTERNAL-22 "ReceivingAxdSlit"
*MEAS_COND_AXIS_NAME_INTERNAL-23 "ReceivingSlitBox1-_Axis"
*MEAS_COND_AXIS_NAME_INTERNAL-24 "ReceivingSlitBox2-_Axis"
*MEAS_COND_AXIS_NAME_INTERNAL-25 "ReceivingSlitBox2-Zd"
*MEAS_COND_AXIS_NAME_INTERNAL-26 "Attenuator"
*MEAS_COND_AXIS_NAME_INTERNAL-27 "CounterMonochromator"
*MEAS_COND_AXIS_NAME_INTERNAL-28 "CounterSlit"
*MEAS_COND_AXIS_NAME_INTERNAL-29 "IncidentPrimary"
*MEAS_COND_AXIS_NAME_INTERNAL-30 "PHA"
*MEAS_COND_AXIS_NAME_MAGICNO-0 "83951616.0000000000"
*MEAS_COND_AXIS_NAME_MAGICNO-1 "268632064.0000000000"
*MEAS_COND_AXIS_NAME_MAGICNO-2 "268500992.0000000000"
*MEAS_COND_AXIS_NAME_MAGICNO-3 "285278208.0000000000"
*MEAS_COND_AXIS_NAME_MAGICNO-4 "83951616.0000000000"
*MEAS_COND_AXIS_NAME_MAGICNO-5 "131072.0000000000"
*MEAS_COND_AXIS_NAME_MAGICNO-6 "131072.0000000000"
*MEAS_COND_AXIS_NAME_MAGICNO-7 "318898176.0000000000"
*MEAS_COND_AXIS_NAME_MAGICNO-8 "20971521.0000000000"
*MEAS_COND_AXIS_NAME_MAGICNO-9 "285343744.0000000000"
*MEAS_COND_AXIS_NAME_MAGICNO-10 "20971521.0000000000"
*MEAS_COND_AXIS_NAME_MAGICNO-11 "22020097.0000000000"
*MEAS_COND_AXIS_NAME_MAGICNO-12 "25165824.0000000000"
*MEAS_COND_AXIS_NAME_MAGICNO-13 "318898176.0000000000"
*MEAS_COND_AXIS_NAME_MAGICNO-14 "1.0000000000"
*MEAS_COND_AXIS_NAME_MAGICNO-15 "20971521.0000000000"
*MEAS_COND_AXIS_NAME_MAGICNO-16 "20971521.0000000000"
*MEAS_COND_AXIS_NAME_MAGICNO-17 "20971521.0000000000"
*MEAS_COND_AXIS_NAME_MAGICNO-18 "23068673.0000000000"
*MEAS_COND_AXIS_NAME_MAGICNO-19 "23068673.0000000000"
*MEAS_COND_AXIS_NAME_MAGICNO-20 "20971521.0000000000"
*MEAS_COND_AXIS_NAME_MAGICNO-21 "20971521.0000000000"
*MEAS_COND_AXIS_NAME_MAGICNO-22 "20971521.0000000000"
*MEAS_COND_AXIS_NAME_MAGICNO-23 "25165824.0000000000"
*MEAS_COND_AXIS_NAME_MAGICNO-24 "25165824.0000000000"
*MEAS_COND_AXIS_NAME_MAGICNO-25 "285343744.0000000000"
*MEAS_COND_AXIS_NAME_MAGICNO-26 "17301505.0000000000"
*MEAS_COND_AXIS_NAME_MAGICNO-27 "20971521.0000000000"
*MEAS_COND_AXIS_NAME_MAGICNO-28 "20971521.0000000000"
*MEAS_COND_AXIS_NAME_MAGICNO-29 "20971521.0000000000"
*MEAS_COND_AXIS_NAME_MAGICNO-30 "0.0000000000"
*MEAS_COND_AXIS_OFFSET-0 "-"
*MEAS_COND_AXIS_OFFSET-1 "-0.1081000000"
*MEAS_COND_AXIS_OFFSET-2 "0.3758000000"
*MEAS_COND_AXIS_OFFSET-3 "-"
*MEAS_COND_AXIS_OFFSET-4 "-"
*MEAS_COND_AXIS_OFFSET-5 "0.3758000000"
*MEAS_COND_AXIS_OFFSET-6 "-0.4839000000"
*MEAS_COND_AXIS_OFFSET-7 "-"
*MEAS_COND_AXIS_OFFSET-8 "-"
*MEAS_COND_AXIS_OFFSET-9 "-"
*MEAS_COND_AXIS_OFFSET-10 "-"
*MEAS_COND_AXIS_OFFSET-11 "-"
*MEAS_COND_AXIS_OFFSET-12 "-"
*MEAS_COND_AXIS_OFFSET-13 "-"
*MEAS_COND_AXIS_OFFSET-14 "-"
*MEAS_COND_AXIS_OFFSET-15 "-"
*MEAS_COND_AXIS_OFFSET-16 "-"
*MEAS_COND_AXIS_OFFSET-17 "-"
*MEAS_COND_AXIS_OFFSET-18 "-"
*MEAS_COND_AXIS_OFFSET-19 "-"
*MEAS_COND_AXIS_OFFSET-20 "-"
*MEAS_COND_AXIS_OFFSET-21 "-"
*MEAS_COND_AXIS_OFFSET-22 "-"
*MEAS_COND_AXIS_OFFSET-23 "-"
*MEAS_COND_AXIS_OFFSET-24 "-"
*MEAS_COND_AXIS_OFFSET-25 "-"
*MEAS_COND_AXIS_OFFSET-26 "-"
*MEAS_COND_AXIS_OFFSET-27 "-"
*MEAS_COND_AXIS_OFFSET-28 "-"
*MEAS_COND_AXIS_OFFSET-29 "-"
*MEAS_COND_AXIS_OFFSET-30 "-"
*MEAS_COND_AXIS_POSITION-0 "0.0000000000"
*MEAS_COND_AXIS_POSITION-1 "0.0000000000"
*MEAS_COND_AXIS_POSITION-2 "0.0000000000"
*MEAS_COND_AXIS_POSITION-3 "-0.5500000000"
*MEAS_COND_AXIS_POSITION-4 "0.0000000000"
*MEAS_COND_AXIS_POSITION-5 "0.0000000000"
*MEAS_COND_AXIS_POSITION-6 "0.0000000000"
*MEAS_COND_AXIS_POSITION-7 "-0.4278800000"
*MEAS_COND_AXIS_POSITION-8 "BB"
*MEAS_COND_AXIS_POSITION-9 "0.0000000000"
*MEAS_COND_AXIS_POSITION-10 "Soller_slit_5.0deg"
*MEAS_COND_AXIS_POSITION-11 "2/3deg"
*MEAS_COND_AXIS_POSITION-12 "2.2088000000"
*MEAS_COND_AXIS_POSITION-13 "-0.4140600000"
*MEAS_COND_AXIS_POSITION-14 "0.0000000000"
*MEAS_COND_AXIS_POSITION-15 "10.0mm"
*MEAS_COND_AXIS_POSITION-16 "None"
*MEAS_COND_AXIS_POSITION-17 "Cu_K-beta"
*MEAS_COND_AXIS_POSITION-18 "13.000mm"
*MEAS_COND_AXIS_POSITION-19 "13.000mm"
*MEAS_COND_AXIS_POSITION-20 "No_unit"
*MEAS_COND_AXIS_POSITION-21 "Soller_slit_5.0deg"
*MEAS_COND_AXIS_POSITION-22 "None"
*MEAS_COND_AXIS_POSITION-23 "13.0000000000"
*MEAS_COND_AXIS_POSITION-24 "13.0000000000"
*MEAS_COND_AXIS_POSITION-25 "0.0109400000"
*MEAS_COND_AXIS_POSITION-26 "Open"
*MEAS_COND_AXIS_POSITION-27 "None"
*MEAS_COND_AXIS_POSITION-28 "None"
*MEAS_COND_AXIS_POSITION-29 "None"
*MEAS_COND_AXIS_POSITION-30 "38.0000000000"
*MEAS_COND_AXIS_UNIT-0 "deg"
*MEAS_COND_AXIS_UNIT-1 "deg"
*MEAS_COND_AXIS_UNIT-2 "deg"
*MEAS_COND_AXIS_UNIT-3 "mm"
*MEAS_COND_AXIS_UNIT-4 "deg"
*MEAS_COND_AXIS_UNIT-5 "deg"
*MEAS_COND_AXIS_UNIT-6 "deg"
*MEAS_COND_AXIS_UNIT-7 "mm"
*MEAS_COND_AXIS_UNIT-8 ""
*MEAS_COND_AXIS_UNIT-9 "pulse"
*MEAS_COND_AXIS_UNIT-10 ""
*MEAS_COND_AXIS_UNIT-11 ""
*MEAS_COND_AXIS_UNIT-12 "mm"
*MEAS_COND_AXIS_UNIT-13 "mm"
*MEAS_COND_AXIS_UNIT-14 ""
*MEAS_COND_AXIS_UNIT-15 ""
*MEAS_COND_AXIS_UNIT-16 ""
*MEAS_COND_AXIS_UNIT-17 ""
*MEAS_COND_AXIS_UNIT-18 ""
*MEAS_COND_AXIS_UNIT-19 ""
*MEAS_COND_AXIS_UNIT-20 ""
*MEAS_COND_AXIS_UNIT-21 ""
*MEAS_COND_AXIS_UNIT-22 ""
*MEAS_COND_AXIS_UNIT-23 "mm"
*MEAS_COND_AXIS_UNIT-24 "mm"
*MEAS_COND_AXIS_UNIT-25 "mm"
*MEAS_COND_AXIS_UNIT-26 ""
*MEAS_COND_AXIS_UNIT-27 ""
*MEAS_COND_AXIS_UNIT-28 ""
*MEAS_COND_AXIS_UNIT-29 ""
*MEAS_COND_AXIS_UNIT-30 "div"
*MEAS_COND_COUNTER_CNTLOSS_CORR "0.0000000000"
*MEAS_COND_COUNTER_PHABASE "38.0000000000"
*MEAS_COND_COUNTER_PHAWINDOW "16.0000000000"
*MEAS_COND_COUNTER_PHA_UNIT "div"
*MEAS_COND_COUNTER_TAUDIFF "30.0000000000"
*MEAS_COND_COUNTER_TAUINT "0.0000000000"
*MEAS_COND_IRRADIATION_MODE "OFF"
*MEAS_COND_IRRADIATION_WIDTH ""
*MEAS_COND_OPT_ATTR "集中法"
*MEAS_COND_OPT_NAME "@集中法"
*MEAS_COND_UNSYMMETRIC_MODE "OFF"
*MEAS_COND_XG_CURRENT "30.0000000000"
*MEAS_COND_XG_VOLTAGE "40.0000000000"
*MEAS_COND_XG_WAVE_TYPE "Ka"
*MEAS_DATA_COUNT "5001.0000000000"
*MEAS_SCAN_AXIS_X "2θ/θ"
*MEAS_SCAN_AXIS_X_INTERNAL "TwoThetaTheta"
*MEAS_SCAN_END_TIME "07/08/21 17:04:09"
*MEAS_SCAN_MODE "CONTINUOUS"
*MEAS_SCAN_MONITOR "0"
*MEAS_SCAN_RESOLUTION_X "0.0002"
*MEAS_SCAN_SPEED "1.0"
*MEAS_SCAN_SPEED_UNIT "deg/min"
*MEAS_SCAN_START "20.0000000000"
*MEAS_SCAN_START_TIME "07/08/21 16:11:17"
*MEAS_SCAN_STEP "0.0100000000"
*MEAS_SCAN_STOP "70.0000000000"
*MEAS_SCAN_UNIT_X "deg"
*MEAS_SCAN_UNIT_Y "counts"
*RAS_HEADER_END
*RAS_INT_START
20.0000 1645.0000 1.0000
20.0100 1610.0000 1.0000
20.0200 1562.0000 1.0000
20.0300 1574.0000 1.0000
20.0400 1617.0000 1.0000
20.0500 1616.0000 1.0000
20.0600 1615.0000 1.0000
20.0700 1516.0000 1.0000
20.0800 1607.0000 1.0000
20.0900 1625.0000 1.0000
20.1000 1694.0000 1.0000
20.1100 1640.0000 1.0000
20.1200 1620.0000 1.0000
20.1300 1579.0000 1.0000
20.1400 1604.0000 1.0000
20.1500 1677.0000 1.0000
20.1600 1613.0000 1.0000
20.1700 1567.0000 1.0000
20.1800 1571.0000 1.0000
20.1900 1638.0000 1.0000
20.2000 1648.0000 1.0000
20.2100 1571.0000 1.0000
20.2200 1612.0000 1.0000
20.2300 1633.0000 1.0000
20.2400 1631.0000 1.0000
20.2500 1610.0000 1.0000
20.2600 1613.0000 1.0000
20.2700 1631.0000 1.0000
20.2800 1598.0000 1.0000
20.2900 1594.0000 1.0000
20.3000 1617.0000 1.0000
20.3100 1614.0000 1.0000
20.3200 1640.0000 1.0000
20.3300 1569.0000 1.0000
20.3400 1552.0000 1.0000
20.3500 1584.0000 1.0000
20.3600 1614.0000 1.0000
20.3700 1548.0000 1.0000
20.3800 1624.0000 1.0000
20.3900 1596.0000 1.0000
20.4000 1551.0000 1.0000
20.4100 1572.0000 1.0000
20.4200 1601.0000 1.0000
20.4300 1584.0000 1.0000
20.4400 1669.0000 1.0000
20.4500 1570.0000 1.0000
20.4600 1651.0000 1.0000
20.4700 1611.0000 1.0000
20.4800 1613.0000 1.0000
20.4900 1543.0000 1.0000
20.5000 1558.0000 1.0000
20.5100 1561.0000 1.0000
20.5200 1658.0000 1.0000
20.5300 1598.0000 1.0000
20.5400 1560.0000 1.0000
20.5500 1578.0000 1.0000
20.5600 1561.0000 1.0000
20.5700 1579.0000 1.0000
20.5800 1603.0000 1.0000
20.5900 1592.0000 1.0000
20.6000 1608.0000 1.0000
20.6100 1629.0000 1.0000
20.6200 1621.0000 1.0000
20.6300 1621.0000 1.0000
20.6400 1595.0000 1.0000
20.6500 1589.0000 1.0000
20.6600 1606.0000 1.0000
20.6700 1590.0000 1.0000
20.6800 1570.0000 1.0000
20.6900 1632.0000 1.0000
20.7000 1593.0000 1.0000
20.7100 1665.0000 1.0000
20.7200 1614.0000 1.0000
20.7300 1627.0000 1.0000
20.7400 1578.0000 1.0000
20.7500 1615.0000 1.0000
20.7600 1610.0000 1.0000
20.7700 1607.0000 1.0000
20.7800 1595.0000 1.0000
20.7900 1621.0000 1.0000
20.8000 1619.0000 1.0000
20.8100 1602.0000 1.0000
20.8200 1641.0000 1.0000
20.8300 1584.0000 1.0000
20.8400 1627.0000 1.0000
20.8500 1682.0000 1.0000
20.8600 1631.0000 1.0000
20.8700 1581.0000 1.0000
20.8800 1632.0000 1.0000
20.8900 1646.0000 1.0000
20.9000 1577.0000 1.0000
20.9100 1626.0000 1.0000
20.9200 1611.0000 1.0000
20.9300 1601.0000 1.0000
20.9400 1596.0000 1.0000
20.9500 1623.0000 1.0000
20.9600 1657.0000 1.0000
20.9700 1628.0000 1.0000
20.9800 1638.0000 1.0000
20.9900 1596.0000 1.0000
21.0000 1624.0000 1.0000
21.0100 1630.0000 1.0000
21.0200 1654.0000 1.0000
21.0300 1613.0000 1.0000
21.0400 1591.0000 1.0000
21.0500 1640.0000 1.0000
21.0600 1638.0000 1.0000
21.0700 1621.0000 1.0000
21.0800 1631.0000 1.0000
21.0900 1615.0000 1.0000
21.1000 1611.0000 1.0000
21.1100 1646.0000 1.0000
21.1200 1648.0000 1.0000
21.1300 1634.0000 1.0000
21.1400 1663.0000 1.0000
21.1500 1597.0000 1.0000
21.1600 1651.0000 1.0000
21.1700 1626.0000 1.0000
21.1800 1601.0000 1.0000
21.1900 1641.0000 1.0000
21.2000 1589.0000 1.0000
21.2100 1636.0000 1.0000
21.2200 1632.0000 1.0000
21.2300 1616.0000 1.0000
21.2400 1582.0000 1.0000
21.2500 1661.0000 1.0000
21.2600 1693.0000 1.0000
21.2700 1566.0000 1.0000
21.2800 1552.0000 1.0000
21.2900 1656.0000 1.0000
21.3000 1619.0000 1.0000
21.3100 1611.0000 1.0000
21.3200 1600.0000 1.0000
21.3300 1665.0000 1.0000
21.3400 1560.0000 1.0000
21.3500 1678.0000 1.0000
21.3600 1569.0000 1.0000
21.3700 1651.0000 1.0000
21.3800 1637.0000 1.0000
21.3900 1635.0000 1.0000
21.4000 1646.0000 1.0000
21.4100 1626.0000 1.0000
21.4200 1636.0000 1.0000
21.4300 1631.0000 1.0000
21.4400 1656.0000 1.0000
21.4500 1647.0000 1.0000
21.4600 1616.0000 1.0000
21.4700 1684.0000 1.0000
21.4800 1595.0000 1.0000
21.4900 1620.0000 1.0000
21.5000 1602.0000 1.0000
21.5100 1652.0000 1.0000
21.5200 1639.0000 1.0000
21.5300 1575.0000 1.0000
21.5400 1639.0000 1.0000
21.5500 1684.0000 1.0000
21.5600 1611.0000 1.0000
21.5700 1634.0000 1.0000
21.5800 1646.0000 1.0000
21.5900 1568.0000 1.0000
21.6000 1617.0000 1.0000
21.6100 1579.0000 1.0000
21.6200 1612.0000 1.0000
21.6300 1642.0000 1.0000
21.6400 1567.0000 1.0000
21.6500 1615.0000 1.0000
21.6600 1692.0000 1.0000
21.6700 1544.0000 1.0000
21.6800 1661.0000 1.0000
21.6900 1669.0000 1.0000
21.7000 1597.0000 1.0000
21.7100 1596.0000 1.0000
21.7200 1621.0000 1.0000
21.7300 1572.0000 1.0000
21.7400 1625.0000 1.0000
21.7500 1596.0000 1.0000
21.7600 1644.0000 1.0000
21.7700 1628.0000 1.0000
21.7800 1635.0000 1.0000
21.7900 1530.0000 1.0000
21.8000 1572.0000 1.0000
21.8100 1567.0000 1.0000
21.8200 1528.0000 1.0000
21.8300 1596.0000 1.0000
21.8400 1600.0000 1.0000
21.8500 1622.0000 1.0000
21.8600 1629.0000 1.0000
21.8700 1585.0000 1.0000
21.8800 1590.0000 1.0000
21.8900 1641.0000 1.0000
21.9000 1643.0000 1.0000
21.9100 1627.0000 1.0000
21.9200 1640.0000 1.0000
21.9300 1604.0000 1.0000
21.9400 1582.0000 1.0000
21.9500 1588.0000 1.0000
21.9600 1616.0000 1.0000
21.9700 1620.0000 1.0000
21.9800 1644.0000 1.0000
21.9900 1572.0000 1.0000
22.0000 1608.0000 1.0000
22.0100 1578.0000 1.0000
22.0200 1574.0000 1.0000
22.0300 1614.0000 1.0000
22.0400 1597.0000 1.0000
22.0500 1652.0000 1.0000
22.0600 1584.0000 1.0000
22.0700 1646.0000 1.0000
22.0800 1638.0000 1.0000
22.0900 1649.0000 1.0000
22.1000 1579.0000 1.0000
22.1100 1625.0000 1.0000
22.1200 1634.0000 1.0000
22.1300 1635.0000 1.0000
22.1400 1579.0000 1.0000
22.1500 1626.0000 1.0000
22.1600 1589.0000 1.0000
22.1700 1566.0000 1.0000
22.1800 1614.0000 1.0000
22.1900 1604.0000 1.0000
22.2000 1624.0000 1.0000
22.2100 1603.0000 1.0000
22.2200 1621.0000 1.0000
22.2300 1653.0000 1.0000
22.2400 1661.0000 1.0000
22.2500 1595.0000 1.0000
22.2600 1635.0000 1.0000
22.2700 1637.0000 1.0000
22.2800 1653.0000 1.0000
22.2900 1592.0000 1.0000
22.3000 1675.0000 1.0000
22.3100 1695.0000 1.0000
22.3200 1651.0000 1.0000
22.3300 1627.0000 1.0000
22.3400 1555.0000 1.0000
22.3500 1646.0000 1.0000
22.3600 1640.0000 1.0000
22.3700 1639.0000 1.0000
22.3800 1585.0000 1.0000
22.3900 1630.0000 1.0000
22.4000 1599.0000 1.0000
22.4100 1603.0000 1.0000
22.4200 1616.0000 1.0000
22.4300 1646.0000 1.0000
22.4400 1657.0000 1.0000
22.4500 1623.0000 1.0000
22.4600 1647.0000 1.0000
22.4700 1614.0000 1.0000
22.4800 1666.0000 1.0000
22.4900 1672.0000 1.0000
22.5000 1644.0000 1.0000
22.5100 1686.0000 1.0000
22.5200 1678.0000 1.0000
22.5300 1641.0000 1.0000
22.5400 1638.0000 1.0000
22.5500 1676.0000 1.0000
22.5600 1635.0000 1.0000
22.5700 1667.0000 1.0000
22.5800 1651.0000 1.0000
22.5900 1682.0000 1.0000
22.6000 1642.0000 1.0000
22.6100 1601.0000 1.0000
22.6200 1657.0000 1.0000
22.6300 1608.0000 1.0000
22.6400 1637.0000 1.0000
22.6500 1595.0000 1.0000
22.6600 1571.0000 1.0000
22.6700 1655.0000 1.0000
22.6800 1641.0000 1.0000
22.6900 1664.0000 1.0000
22.7000 1645.0000 1.0000
22.7100 1652.0000 1.0000
22.7200 1643.0000 1.0000
22.7300 1634.0000 1.0000
22.7400 1658.0000 1.0000
22.7500 1637.0000 1.0000
22.7600 1579.0000 1.0000
22.7700 1643.0000 1.0000
22.7800 1640.0000 1.0000
22.7900 1637.0000 1.0000
22.8000 1691.0000 1.0000
22.8100 1664.0000 1.0000
22.8200 1603.0000 1.0000
22.8300 1629.0000 1.0000
22.8400 1614.0000 1.0000
22.8500 1671.0000 1.0000
22.8600 1563.0000 1.0000
22.8700 1566.0000 1.0000
22.8800 1612.0000 1.0000
22.8900 1589.0000 1.0000
22.9000 1657.0000 1.0000
22.9100 1655.0000 1.0000
22.9200 1633.0000 1.0000
22.9300 1697.0000 1.0000
22.9400 1601.0000 1.0000
22.9500 1641.0000 1.0000
22.9600 1667.0000 1.0000
22.9700 1652.0000 1.0000
22.9800 1659.0000 1.0000
22.9900 1737.0000 1.0000
23.0000 1580.0000 1.0000
23.0100 1615.0000 1.0000
23.0200 1719.0000 1.0000
23.0300 1643.0000 1.0000
23.0400 1610.0000 1.0000
23.0500 1606.0000 1.0000
23.0600 1700.0000 1.0000
23.0700 1709.0000 1.0000
23.0800 1632.0000 1.0000
23.0900 1633.0000 1.0000
23.1000 1604.0000 1.0000
23.1100 1671.0000 1.0000
23.1200 1652.0000 1.0000
23.1300 1664.0000 1.0000
23.1400 1652.0000 1.0000
23.1500 1636.0000 1.0000
23.1600 1581.0000 1.0000
23.1700 1649.0000 1.0000
23.1800 1704.0000 1.0000
23.1900 1680.0000 1.0000
23.2000 1661.0000 1.0000
23.2100 1681.0000 1.0000
23.2200 1600.0000 1.0000
23.2300 1665.0000 1.0000
23.2400 1646.0000 1.0000
23.2500 1626.0000 1.0000
23.2600 1617.0000 1.0000
23.2700 1580.0000 1.0000
23.2800 1657.0000 1.0000
23.2900 1598.0000 1.0000
23.3000 1613.0000 1.0000
23.3100 1674.0000 1.0000
23.3200 1650.0000 1.0000
23.3300 1611.0000 1.0000
23.3400 1630.0000 1.0000
23.3500 1685.0000 1.0000
23.3600 1723.0000 1.0000
23.3700 1678.0000 1.0000
23.3800 1701.0000 1.0000
23.3900 1632.0000 1.0000
23.4000 1675.0000 1.0000
23.4100 1619.0000 1.0000
23.4200 1668.0000 1.0000
23.4300 1658.0000 1.0000
23.4400 1646.0000 1.0000
23.4500 1686.0000 1.0000
23.4600 1691.0000 1.0000
23.4700 1704.0000 1.0000
23.4800 1670.0000 1.0000
23.4900 1705.0000 1.0000
23.5000 1609.0000 1.0000
23.5100 1632.0000 1.0000
23.5200 1680.0000 1.0000
23.5300 1664.0000 1.0000
23.5400 1669.0000 1.0000
23.5500 1673.0000 1.0000
23.5600 1676.0000 1.0000
23.5700 1697.0000 1.0000
23.5800 1665.0000 1.0000
23.5900 1683.0000 1.0000
23.6000 1637.0000 1.0000
23.6100 1632.0000 1.0000
23.6200 1675.0000 1.0000
23.6300 1680.0000 1.0000
23.6400 1665.0000 1.0000
23.6500 1679.0000 1.0000
23.6600 1687.0000 1.0000
23.6700 1628.0000 1.0000
23.6800 1695.0000 1.0000
23.6900 1653.0000 1.0000
23.7000 1665.0000 1.0000
23.7100 1592.0000 1.0000
23.7200 1669.0000 1.0000
23.7300 1655.0000 1.0000
23.7400 1659.0000 1.0000
23.7500 1677.0000 1.0000
23.7600 1679.0000 1.0000
23.7700 1696.0000 1.0000
23.7800 1692.0000 1.0000
23.7900 1676.0000 1.0000
23.8000 1712.0000 1.0000
23.8100 1682.0000 1.0000
23.8200 1682.0000 1.0000
23.8300 1650.0000 1.0000
23.8400 1711.0000 1.0000
23.8500 1680.0000 1.0000
23.8600 1743.0000 1.0000
23.8700 1642.0000 1.0000
23.8800 1697.0000 1.0000
23.8900 1657.0000 1.0000
23.9000 1674.0000 1.0000
23.9100 1683.0000 1.0000
23.9200 1689.0000 1.0000
23.9300 1661.0000 1.0000
23.9400 1634.0000 1.0000
23.9500 1652.0000 1.0000
23.9600 1691.0000 1.0000
23.9700 1594.0000 1.0000
23.9800 1660.0000 1.0000
23.9900 1698.0000 1.0000
24.0000 1620.0000 1.0000
24.0100 1635.0000 1.0000
24.0200 1755.0000 1.0000
24.0300 1696.0000 1.0000
24.0400 1599.0000 1.0000
24.0500 1737.0000 1.0000
24.0600 1619.0000 1.0000
24.0700 1660.0000 1.0000
24.0800 1648.0000 1.0000
24.0900 1671.0000 1.0000
24.1000 1659.0000 1.0000
24.1100 1644.0000 1.0000
24.1200 1614.0000 1.0000
24.1300 1645.0000 1.0000
24.1400 1711.0000 1.0000
24.1500 1740.0000 1.0000
24.1600 1715.0000 1.0000
24.1700 1611.0000 1.0000
24.1800 1645.0000 1.0000
24.1900 1739.0000 1.0000
24.2000 1591.0000 1.0000
24.2100 1613.0000 1.0000
24.2200 1581.0000 1.0000
24.2300 1614.0000 1.0000
24.2400 1701.0000 1.0000
24.2500 1621.0000 1.0000
24.2600 1659.0000 1.0000
24.2700 1651.0000 1.0000
24.2800 1674.0000 1.0000
24.2900 1655.0000 1.0000
24.3000 1729.0000 1.0000
24.3100 1713.0000 1.0000
24.3200 1705.0000 1.0000
24.3300 1684.0000 1.0000
24.3400 1720.0000 1.0000
24.3500 1691.0000 1.0000
24.3600 1694.0000 1.0000
24.3700 1638.0000 1.0000
24.3800 1647.0000 1.0000
24.3900 1657.0000 1.0000
24.4000 1612.0000 1.0000
24.4100 1665.0000 1.0000
24.4200 1678.0000 1.0000
24.4300 1696.0000 1.0000
24.4400 1697.0000 1.0000
24.4500 1717.0000 1.0000
24.4600 1708.0000 1.0000
24.4700 1741.0000 1.0000
24.4800 1735.0000 1.0000
24.4900 1697.0000 1.0000
24.5000 1693.0000 1.0000
24.5100 1686.0000 1.0000
24.5200 1722.0000 1.0000
24.5300 1687.0000 1.0000
24.5400 1656.0000 1.0000
24.5500 1667.0000 1.0000
24.5600 1700.0000 1.0000
24.5700 1676.0000 1.0000
24.5800 1680.0000 1.0000
24.5900 1691.0000 1.0000
24.6000 1712.0000 1.0000
24.6100 1668.0000 1.0000
24.6200 1709.0000 1.0000
24.6300 1698.0000 1.0000
24.6400 1694.0000 1.0000
24.6500 1714.0000 1.0000
24.6600 1709.0000 1.0000
24.6700 1719.0000 1.0000
24.6800 1713.0000 1.0000
24.6900 1660.0000 1.0000
24.7000 1734.0000 1.0000
24.7100 1755.0000 1.0000
24.7200 1703.0000 1.0000
24.7300 1704.0000 1.0000
24.7400 1742.0000 1.0000
24.7500 1673.0000 1.0000
24.7600 1672.0000 1.0000
24.7700 1689.0000 1.0000
24.7800 1712.0000 1.0000
24.7900 1731.0000 1.0000
24.8000 1702.0000 1.0000
24.8100 1672.0000 1.0000
24.8200 1712.0000 1.0000
24.8300 1764.0000 1.0000
24.8400 1718.0000 1.0000
24.8500 1764.0000 1.0000
24.8600 1730.0000 1.0000
24.8700 1690.0000 1.0000
24.8800 1665.0000 1.0000
24.8900 1765.0000 1.0000
24.9000 1713.0000 1.0000
24.9100 1647.0000 1.0000
24.9200 1703.0000 1.0000
24.9300 1732.0000 1.0000
24.9400 1710.0000 1.0000
24.9500 1702.0000 1.0000
24.9600 1703.0000 1.0000
24.9700 1685.0000 1.0000
24.9800 1700.0000 1.0000
24.9900 1719.0000 1.0000
25.0000 1750.0000 1.0000
25.0100 1720.0000 1.0000
25.0200 1788.0000 1.0000
25.0300 1764.0000 1.0000
25.0400 1701.0000 1.0000
25.0500 1742.0000 1.0000
25.0600 1786.0000 1.0000
25.0700 1774.0000 1.0000
25.0800 1784.0000 1.0000
25.0900 1680.0000 1.0000
25.1000 1743.0000 1.0000
25.1100 1735.0000 1.0000
25.1200 1744.0000 1.0000
25.1300 1751.0000 1.0000
25.1400 1689.0000 1.0000
25.1500 1709.0000 1.0000
25.1600 1727.0000 1.0000
25.1700 1748.0000 1.0000
25.1800 1720.0000 1.0000
25.1900 1749.0000 1.0000
25.2000 1727.0000 1.0000
25.2100 1718.0000 1.0000
25.2200 1697.0000 1.0000
25.2300 1763.0000 1.0000
25.2400 1730.0000 1.0000
25.2500 1669.0000 1.0000
25.2600 1713.0000 1.0000
25.2700 1697.0000 1.0000
25.2800 1734.0000 1.0000
25.2900 1703.0000 1.0000
25.3000 1680.0000 1.0000
25.3100 1788.0000 1.0000
25.3200 1744.0000 1.0000
25.3300 1771.0000 1.0000
25.3400 1692.0000 1.0000
25.3500 1741.0000 1.0000
25.3600 1703.0000 1.0000
25.3700 1673.0000 1.0000
25.3800 1638.0000 1.0000
25.3900 1671.0000 1.0000
25.4000 1745.0000 1.0000
25.4100 1725.0000 1.0000
25.4200 1677.0000 1.0000
25.4300 1697.0000 1.0000
25.4400 1665.0000 1.0000
25.4500 1742.0000 1.0000
25.4600 1712.0000 1.0000
25.4700 1742.0000 1.0000
25.4800 1710.0000 1.0000
25.4900 1735.0000 1.0000
25.5000 1702.0000 1.0000
25.5100 1700.0000 1.0000
25.5200 1716.0000 1.0000
25.5300 1708.0000 1.0000
25.5400 1681.0000 1.0000
25.5500 1727.0000 1.0000
25.5600 1781.0000 1.0000
25.5700 1713.0000 1.0000
25.5800 1732.0000 1.0000
25.5900 1674.0000 1.0000
25.6000 1750.0000 1.0000
25.6100 1717.0000 1.0000
25.6200 1684.0000 1.0000
25.6300 1671.0000 1.0000
25.6400 1730.0000 1.0000
25.6500 1778.0000 1.0000
25.6600 1727.0000 1.0000
25.6700 1712.0000 1.0000
25.6800 1670.0000 1.0000
25.6900 1653.0000 1.0000
25.7000 1711.0000 1.0000
25.7100 1747.0000 1.0000
25.7200 1679.0000 1.0000
25.7300 1623.0000 1.0000
25.7400 1659.0000 1.0000
25.7500 1729.0000 1.0000
25.7600 1728.0000 1.0000
25.7700 1747.0000 1.0000
25.7800 1685.0000 1.0000
25.7900 1678.0000 1.0000
25.8000 1716.0000 1.0000
25.8100 1676.0000 1.0000
25.8200 1685.0000 1.0000
25.8300 1693.0000 1.0000
25.8400 1688.0000 1.0000
25.8500 1752.0000 1.0000
25.8600 1684.0000 1.0000
25.8700 1763.0000 1.0000
25.8800 1795.0000 1.0000
25.8900 1764.0000 1.0000
25.9000 1813.0000 1.0000
25.9100 1732.0000 1.0000
25.9200 1716.0000 1.0000
25.9300 1766.0000 1.0000
25.9400 1683.0000 1.0000
25.9500 1692.0000 1.0000
25.9600 1702.0000 1.0000
25.9700 1763.0000 1.0000
25.9800 1750.0000 1.0000
25.9900 1693.0000 1.0000
26.0000 1750.0000 1.0000
26.0100 1783.0000 1.0000
26.0200 1719.0000 1.0000
26.0300 1798.0000 1.0000
26.0400 1707.0000 1.0000
26.0500 1747.0000 1.0000
26.0600 1714.0000 1.0000
26.0700 1770.0000 1.0000
26.0800 1717.0000 1.0000
26.0900 1721.0000 1.0000
26.1000 1771.0000 1.0000
26.1100 1716.0000 1.0000
26.1200 1725.0000 1.0000
26.1300 1722.0000 1.0000
26.1400 1704.0000 1.0000
26.1500 1733.0000 1.0000
26.1600 1718.0000 1.0000
26.1700 1722.0000 1.0000
26.1800 1670.0000 1.0000
26.1900 1718.0000 1.0000
26.2000 1745.0000 1.0000
26.2100 1691.0000 1.0000
26.2200 1666.0000 1.0000
26.2300 1777.0000 1.0000
26.2400 1777.0000 1.0000
26.2500 1728.0000 1.0000
26.2600 1739.0000 1.0000
26.2700 1722.0000 1.0000
26.2800 1771.0000 1.0000
26.2900 1786.0000 1.0000
26.3000 1745.0000 1.0000
26.3100 1759.0000 1.0000
26.3200 1783.0000 1.0000
26.3300 1777.0000 1.0000
26.3400 1754.0000 1.0000
26.3500 1803.0000 1.0000
26.3600 1776.0000 1.0000
26.3700 1825.0000 1.0000
26.3800 1712.0000 1.0000
26.3900 1793.0000 1.0000
26.4000 1779.0000 1.0000
26.4100 1714.0000 1.0000
26.4200 1785.0000 1.0000
26.4300 1831.0000 1.0000
26.4400 1823.0000 1.0000
26.4500 1788.0000 1.0000
26.4600 1787.0000 1.0000
26.4700 1819.0000 1.0000
26.4800 1807.0000 1.0000
26.4900 1815.0000 1.0000
26.5000 1775.0000 1.0000
26.5100 1810.0000 1.0000
26.5200 1804.0000 1.0000
26.5300 1851.0000 1.0000
26.5400 1798.0000 1.0000
26.5500 1818.0000 1.0000
26.5600 1880.0000 1.0000
26.5700 1850.0000 1.0000
26.5800 1880.0000 1.0000
26.5900 1841.0000 1.0000
26.6000 1803.0000 1.0000
26.6100 1849.0000 1.0000
26.6200 1804.0000 1.0000
26.6300 1852.0000 1.0000
26.6400 1916.0000 1.0000
26.6500 1913.0000 1.0000
26.6600 1894.0000 1.0000
26.6700 1884.0000 1.0000
26.6800 1858.0000 1.0000
26.6900 1943.0000 1.0000
26.7000 1891.0000 1.0000
26.7100 1912.0000 1.0000
26.7200 1911.0000 1.0000
26.7300 1940.0000 1.0000
26.7400 1891.0000 1.0000
26.7500 1871.0000 1.0000
26.7600 1964.0000 1.0000
26.7700 1913.0000 1.0000
26.7800 1918.0000 1.0000
26.7900 1948.0000 1.0000
26.8000 1970.0000 1.0000
26.8100 2008.0000 1.0000
26.8200 1963.0000 1.0000
26.8300 1922.0000 1.0000
26.8400 2020.0000 1.0000
26.8500 1999.0000 1.0000
26.8600 2025.0000 1.0000
26.8700 2021.0000 1.0000
26.8800 2063.0000 1.0000
26.8900 2032.0000 1.0000
26.9000 2118.0000 1.0000
26.9100 2159.0000 1.0000
26.9200 2148.0000 1.0000
26.9300 2105.0000 1.0000
26.9400 2203.0000 1.0000
26.9500 2231.0000 1.0000
26.9600 2246.0000 1.0000
26.9700 2250.0000 1.0000
26.9800 2341.0000 1.0000
26.9900 2362.0000 1.0000
27.0000 2406.0000 1.0000
27.0100 2430.0000 1.0000
27.0200 2486.0000 1.0000
27.0300 2608.0000 1.0000
27.0400 2582.0000 1.0000
27.0500 2603.0000 1.0000
27.0600 2717.0000 1.0000
27.0700 2825.0000 1.0000
27.0800 2902.0000 1.0000
27.0900 3019.0000 1.0000
27.1000 3140.0000 1.0000
27.1100 3283.0000 1.0000
27.1200 3415.0000 1.0000
27.1300 3426.0000 1.0000
27.1400 3633.0000 1.0000
27.1500 3902.0000 1.0000
27.1600 4042.0000 1.0000
27.1700 4256.0000 1.0000
27.1800 4488.0000 1.0000
27.1900 4650.0000 1.0000
27.2000 4963.0000 1.0000
27.2100 5238.0000 1.0000
27.2200 5555.0000 1.0000
27.2300 5854.0000 1.0000
27.2400 6148.0000 1.0000
27.2500 6467.0000 1.0000
27.2600 6756.0000 1.0000
27.2700 6859.0000 1.0000
27.2800 7102.0000 1.0000
27.2900 7179.0000 1.0000
27.3000 7272.0000 1.0000
27.3100 6988.0000 1.0000
27.3200 6855.0000 1.0000
27.3300 6693.0000 1.0000
27.3400 6578.0000 1.0000
27.3500 6271.0000 1.0000
27.3600 5962.0000 1.0000
27.3700 5704.0000 1.0000
27.3800 5456.0000 1.0000
27.3900 5055.0000 1.0000
27.4000 4819.0000 1.0000
27.4100 4689.0000 1.0000
27.4200 4438.0000 1.0000
27.4300 4142.0000 1.0000
27.4400 3909.0000 1.0000
27.4500 3891.0000 1.0000
27.4600 3606.0000 1.0000
27.4700 3350.0000 1.0000
27.4800 3302.0000 1.0000
27.4900 3108.0000 1.0000
27.5000 3037.0000 1.0000
27.5100 2910.0000 1.0000
27.5200 2859.0000 1.0000
27.5300 2715.0000 1.0000
27.5400 2674.0000 1.0000
27.5500 2616.0000 1.0000
27.5600 2581.0000 1.0000
27.5700 2575.0000 1.0000
27.5800 2530.0000 1.0000
27.5900 2410.0000 1.0000
27.6000 2389.0000 1.0000
27.6100 2308.0000 1.0000
27.6200 2251.0000 1.0000
27.6300 2258.0000 1.0000
27.6400 2282.0000 1.0000
27.6500 2298.0000 1.0000
27.6600 2187.0000 1.0000
27.6700 2165.0000 1.0000
27.6800 2098.0000 1.0000
27.6900 2059.0000 1.0000
27.7000 2108.0000 1.0000
27.7100 2013.0000 1.0000
27.7200 2007.0000 1.0000
27.7300 2148.0000 1.0000
27.7400 2009.0000 1.0000
27.7500 2005.0000 1.0000
27.7600 2017.0000 1.0000
27.7700 1998.0000 1.0000
27.7800 2021.0000 1.0000
27.7900 2017.0000 1.0000
27.8000 1944.0000 1.0000
27.8100 1901.0000 1.0000
27.8200 1834.0000 1.0000
27.8300 1875.0000 1.0000
27.8400 1933.0000 1.0000
27.8500 1880.0000 1.0000
27.8600 1879.0000 1.0000
27.8700 1913.0000 1.0000
27.8800 1874.0000 1.0000
27.8900 1933.0000 1.0000
27.9000 1863.0000 1.0000
27.9100 1866.0000 1.0000
27.9200 1824.0000 1.0000
27.9300 1817.0000 1.0000
27.9400 1816.0000 1.0000
27.9500 1810.0000 1.0000
27.9600 1796.0000 1.0000
27.9700 1842.0000 1.0000
27.9800 1798.0000 1.0000
27.9900 1840.0000 1.0000
28.0000 1837.0000 1.0000
28.0100 1788.0000 1.0000
28.0200 1771.0000 1.0000
28.0300 1733.0000 1.0000
28.0400 1822.0000 1.0000
28.0500 1765.0000 1.0000
28.0600 1784.0000 1.0000
28.0700 1760.0000 1.0000
28.0800 1765.0000 1.0000
28.0900 1796.0000 1.0000
28.1000 1739.0000 1.0000
28.1100 1780.0000 1.0000
28.1200 1775.0000 1.0000
28.1300 1777.0000 1.0000
28.1400 1737.0000 1.0000
28.1500 1734.0000 1.0000
28.1600 1773.0000 1.0000
28.1700 1731.0000 1.0000
28.1800 1715.0000 1.0000
28.1900 1779.0000 1.0000
28.2000 1776.0000 1.0000
28.2100 1725.0000 1.0000
28.2200 1747.0000 1.0000
28.2300 1723.0000 1.0000
28.2400 1755.0000 1.0000
28.2500 1696.0000 1.0000
28.2600 1727.0000 1.0000
28.2700 1739.0000 1.0000
28.2800 1731.0000 1.0000
28.2900 1761.0000 1.0000
28.3000 1645.0000 1.0000
28.3100 1683.0000 1.0000
28.3200 1694.0000 1.0000
28.3300 1748.0000 1.0000
28.3400 1764.0000 1.0000
28.3500 1770.0000 1.0000
28.3600 1711.0000 1.0000
28.3700 1717.0000 1.0000
28.3800 1736.0000 1.0000
28.3900 1738.0000 1.0000
28.4000 1698.0000 1.0000
28.4100 1698.0000 1.0000
28.4200 1736.0000 1.0000
28.4300 1781.0000 1.0000
28.4400 1726.0000 1.0000
28.4500 1725.0000 1.0000
28.4600 1676.0000 1.0000
28.4700 1709.0000 1.0000
28.4800 1675.0000 1.0000
28.4900 1708.0000 1.0000
28.5000 1681.0000 1.0000
28.5100 1749.0000 1.0000
28.5200 1638.0000 1.0000
28.5300 1742.0000 1.0000
28.5400 1710.0000 1.0000
28.5500 1687.0000 1.0000
28.5600 1750.0000 1.0000
28.5700 1708.0000 1.0000
28.5800 1731.0000 1.0000
28.5900 1693.0000 1.0000
28.6000 1667.0000 1.0000
28.6100 1697.0000 1.0000
28.6200 1654.0000 1.0000
28.6300 1680.0000 1.0000
28.6400 1647.0000 1.0000
28.6500 1690.0000 1.0000
28.6600 1621.0000 1.0000
28.6700 1611.0000 1.0000
28.6800 1728.0000 1.0000
28.6900 1740.0000 1.0000
28.7000 1618.0000 1.0000
28.7100 1657.0000 1.0000
28.7200 1703.0000 1.0000
28.7300 1664.0000 1.0000
28.7400 1656.0000 1.0000
28.7500 1678.0000 1.0000
28.7600 1678.0000 1.0000
28.7700 1650.0000 1.0000
28.7800 1708.0000 1.0000
28.7900 1697.0000 1.0000
28.8000 1676.0000 1.0000
28.8100 1588.0000 1.0000
28.8200 1588.0000 1.0000
28.8300 1653.0000 1.0000
28.8400 1694.0000 1.0000
28.8500 1668.0000 1.0000
28.8600 1693.0000 1.0000
28.8700 1626.0000 1.0000
28.8800 1723.0000 1.0000
28.8900 1708.0000 1.0000
28.9000 1694.0000 1.0000
28.9100 1717.0000 1.0000
28.9200 1693.0000 1.0000
28.9300 1668.0000 1.0000
28.9400 1659.0000 1.0000
28.9500 1661.0000 1.0000
28.9600 1642.0000 1.0000
28.9700 1627.0000 1.0000
28.9800 1683.0000 1.0000
28.9900 1622.0000 1.0000
29.0000 1683.0000 1.0000
29.0100 1663.0000 1.0000
29.0200 1693.0000 1.0000
29.0300 1690.0000 1.0000
29.0400 1679.0000 1.0000
29.0500 1742.0000 1.0000
29.0600 1718.0000 1.0000
29.0700 1740.0000 1.0000
29.0800 1725.0000 1.0000
29.0900 1771.0000 1.0000
29.1000 1774.0000 1.0000
29.1100 1737.0000 1.0000
29.1200 1738.0000 1.0000
29.1300 1790.0000 1.0000
29.1400 1768.0000 1.0000
29.1500 1699.0000 1.0000
29.1600 1735.0000 1.0000
29.1700 1782.0000 1.0000
29.1800 1705.0000 1.0000
29.1900 1712.0000 1.0000
29.2000 1722.0000 1.0000
29.2100 1650.0000 1.0000
29.2200 1669.0000 1.0000
29.2300 1560.0000 1.0000
29.2400 1626.0000 1.0000
29.2500 1633.0000 1.0000
29.2600 1637.0000 1.0000
29.2700 1630.0000 1.0000
29.2800 1592.0000 1.0000
29.2900 1583.0000 1.0000
29.3000 1650.0000 1.0000
29.3100 1626.0000 1.0000
29.3200 1641.0000 1.0000
29.3300 1607.0000 1.0000
29.3400 1680.0000 1.0000
29.3500 1647.0000 1.0000
29.3600 1677.0000 1.0000
29.3700 1696.0000 1.0000
29.3800 1566.0000 1.0000
29.3900 1570.0000 1.0000
29.4000 1583.0000 1.0000
29.4100 1594.0000 1.0000
29.4200 1626.0000 1.0000
29.4300 1662.0000 1.0000
29.4400 1743.0000 1.0000
29.4500 1618.0000 1.0000
29.4600 1658.0000 1.0000
29.4700 1656.0000 1.0000
29.4800 1695.0000 1.0000
29.4900 1640.0000 1.0000
29.5000 1605.0000 1.0000
29.5100 1658.0000 1.0000
29.5200 1722.0000 1.0000
29.5300 1641.0000 1.0000
29.5400 1638.0000 1.0000
29.5500 1632.0000 1.0000
29.5600 1660.0000 1.0000
29.5700 1670.0000 1.0000
29.5800 1607.0000 1.0000
29.5900 1686.0000 1.0000
29.6000 1658.0000 1.0000
29.6100 1646.0000 1.0000
29.6200 1618.0000 1.0000
29.6300 1632.0000 1.0000
29.6400 1638.0000 1.0000
29.6500 1675.0000 1.0000
29.6600 1623.0000 1.0000
29.6700 1625.0000 1.0000
29.6800 1604.0000 1.0000
29.6900 1597.0000 1.0000
29.7000 1623.0000 1.0000
29.7100 1622.0000 1.0000
29.7200 1679.0000 1.0000
29.7300 1633.0000 1.0000
29.7400 1628.0000 1.0000
29.7500 1546.0000 1.0000
29.7600 1623.0000 1.0000
29.7700 1615.0000 1.0000
29.7800 1535.0000 1.0000
29.7900 1639.0000 1.0000
29.8000 1585.0000 1.0000
29.8100 1612.0000 1.0000
29.8200 1608.0000 1.0000
29.8300 1575.0000 1.0000
29.8400 1587.0000 1.0000
29.8500 1629.0000 1.0000
29.8600 1626.0000 1.0000
29.8700 1566.0000 1.0000
29.8800 1572.0000 1.0000
29.8900 1517.0000 1.0000
29.9000 1665.0000 1.0000
29.9100 1614.0000 1.0000
29.9200 1614.0000 1.0000
29.9300 1553.0000 1.0000
29.9400 1610.0000 1.0000
29.9500 1578.0000 1.0000
29.9600 1604.0000 1.0000
29.9700 1640.0000 1.0000
29.9800 1603.0000 1.0000
29.9900 1598.0000 1.0000
30.0000 1601.0000 1.0000
30.0100 1553.0000 1.0000
30.0200 1605.0000 1.0000
30.0300 1599.0000 1.0000
30.0400 1612.0000 1.0000
30.0500 1615.0000 1.0000
30.0600 1632.0000 1.0000
30.0700 1645.0000 1.0000
30.0800 1620.0000 1.0000
30.0900 1600.0000 1.0000
30.1000 1607.0000 1.0000
30.1100 1576.0000 1.0000
30.1200 1643.0000 1.0000
30.1300 1572.0000 1.0000
30.1400 1585.0000 1.0000
30.1500 1639.0000 1.0000
30.1600 1626.0000 1.0000
30.1700 1576.0000 1.0000
30.1800 1515.0000 1.0000
30.1900 1539.0000 1.0000
30.2000 1555.0000 1.0000
30.2100 1519.0000 1.0000
30.2200 1545.0000 1.0000
30.2300 1513.0000 1.0000
30.2400 1562.0000 1.0000
30.2500 1611.0000 1.0000
30.2600 1607.0000 1.0000
30.2700 1550.0000 1.0000
30.2800 1572.0000 1.0000
30.2900 1552.0000 1.0000
30.3000 1565.0000 1.0000
30.3100 1549.0000 1.0000
30.3200 1613.0000 1.0000
30.3300 1568.0000 1.0000
30.3400 1569.0000 1.0000
30.3500 1647.0000 1.0000
30.3600 1514.0000 1.0000
30.3700 1557.0000 1.0000
30.3800 1581.0000 1.0000
30.3900 1566.0000 1.0000
30.4000 1582.0000 1.0000
30.4100 1596.0000 1.0000
30.4200 1650.0000 1.0000
30.4300 1534.0000 1.0000
30.4400 1574.0000 1.0000
30.4500 1519.0000 1.0000
30.4600 1535.0000 1.0000
30.4700 1519.0000 1.0000
30.4800 1599.0000 1.0000
30.4900 1607.0000 1.0000
30.5000 1537.0000 1.0000
30.5100 1551.0000 1.0000
30.5200 1597.0000 1.0000
30.5300 1582.0000 1.0000
30.5400 1554.0000 1.0000
30.5500 1553.0000 1.0000
30.5600 1562.0000 1.0000
30.5700 1619.0000 1.0000
30.5800 1634.0000 1.0000
30.5900 1556.0000 1.0000
30.6000 1503.0000 1.0000
30.6100 1590.0000 1.0000
30.6200 1650.0000 1.0000
30.6300 1584.0000 1.0000
30.6400 1564.0000 1.0000
30.6500 1524.0000 1.0000
30.6600 1527.0000 1.0000
30.6700 1532.0000 1.0000
30.6800 1505.0000 1.0000
30.6900 1530.0000 1.0000
30.7000 1534.0000 1.0000
30.7100 1552.0000 1.0000
30.7200 1504.0000 1.0000
30.7300 1523.0000 1.0000
30.7400 1577.0000 1.0000
30.7500 1637.0000 1.0000
30.7600 1541.0000 1.0000
30.7700 1549.0000 1.0000
30.7800 1503.0000 1.0000
30.7900 1539.0000 1.0000
30.8000 1549.0000 1.0000
30.8100 1573.0000 1.0000
30.8200 1564.0000 1.0000
30.8300 1553.0000 1.0000
30.8400 1510.0000 1.0000
30.8500 1522.0000 1.0000
30.8600 1506.0000 1.0000
30.8700 1555.0000 1.0000
30.8800 1512.0000 1.0000
30.8900 1538.0000 1.0000
30.9000 1567.0000 1.0000
30.9100 1529.0000 1.0000
30.9200 1566.0000 1.0000
30.9300 1556.0000 1.0000
30.9400 1543.0000 1.0000
30.9500 1534.0000 1.0000
30.9600 1536.0000 1.0000
30.9700 1575.0000 1.0000
30.9800 1524.0000 1.0000
30.9900 1548.0000 1.0000
31.0000 1547.0000 1.0000
31.0100 1530.0000 1.0000
31.0200 1541.0000 1.0000
31.0300 1559.0000 1.0000
31.0400 1516.0000 1.0000
31.0500 1529.0000 1.0000
31.0600 1528.0000 1.0000
31.0700 1603.0000 1.0000
31.0800 1610.0000 1.0000
31.0900 1555.0000 1.0000
31.1000 1500.0000 1.0000
31.1100 1582.0000 1.0000
31.1200 1503.0000 1.0000
31.1300 1560.0000 1.0000
31.1400 1534.0000 1.0000
31.1500 1495.0000 1.0000
31.1600 1549.0000 1.0000
31.1700 1574.0000 1.0000
31.1800 1548.0000 1.0000
31.1900 1518.0000 1.0000
31.2000 1544.0000 1.0000
31.2100 1500.0000 1.0000
31.2200 1486.0000 1.0000
31.2300 1560.0000 1.0000
31.2400 1608.0000 1.0000
31.2500 1491.0000 1.0000
31.2600 1491.0000 1.0000
31.2700 1527.0000 1.0000
31.2800 1488.0000 1.0000
31.2900 1539.0000 1.0000
31.3000 1549.0000 1.0000
31.3100 1552.0000 1.0000
31.3200 1526.0000 1.0000
31.3300 1559.0000 1.0000
31.3400 1530.0000 1.0000
31.3500 1558.0000 1.0000
31.3600 1533.0000 1.0000
31.3700 1511.0000 1.0000
31.3800 1514.0000 1.0000
31.3900 1477.0000 1.0000
31.4000 1507.0000 1.0000
31.4100 1516.0000 1.0000
31.4200 1565.0000 1.0000
31.4300 1543.0000 1.0000
31.4400 1537.0000 1.0000
31.4500 1476.0000 1.0000
31.4600 1538.0000 1.0000
31.4700 1537.0000 1.0000
31.4800 1507.0000 1.0000
31.4900 1535.0000 1.0000
31.5000 1578.0000 1.0000
31.5100 1465.0000 1.0000
31.5200 1479.0000 1.0000
31.5300 1504.0000 1.0000
31.5400 1508.0000 1.0000
31.5500 1534.0000 1.0000
31.5600 1514.0000 1.0000
31.5700 1444.0000 1.0000
31.5800 1478.0000 1.0000
31.5900 1552.0000 1.0000
31.6000 1411.0000 1.0000
31.6100 1501.0000 1.0000
31.6200 1598.0000 1.0000
31.6300 1530.0000 1.0000
31.6400 1512.0000 1.0000
31.6500 1516.0000 1.0000
31.6600 1442.0000 1.0000
31.6700 1545.0000 1.0000
31.6800 1447.0000 1.0000
31.6900 1488.0000 1.0000
31.7000 1527.0000 1.0000
31.7100 1497.0000 1.0000
31.7200 1467.0000 1.0000
31.7300 1533.0000 1.0000
31.7400 1548.0000 1.0000
31.7500 1516.0000 1.0000
31.7600 1516.0000 1.0000
31.7700 1461.0000 1.0000
31.7800 1466.0000 1.0000
31.7900 1492.0000 1.0000
31.8000 1575.0000 1.0000
31.8100 1511.0000 1.0000
31.8200 1506.0000 1.0000
31.8300 1439.0000 1.0000
31.8400 1504.0000 1.0000
31.8500 1531.0000 1.0000
31.8600 1492.0000 1.0000
31.8700 1561.0000 1.0000
31.8800 1494.0000 1.0000
31.8900 1586.0000 1.0000
31.9000 1531.0000 1.0000
31.9100 1629.0000 1.0000
31.9200 1619.0000 1.0000
31.9300 1534.0000 1.0000
31.9400 1557.0000 1.0000
31.9500 1544.0000 1.0000
31.9600 1480.0000 1.0000
31.9700 1513.0000 1.0000
31.9800 1507.0000 1.0000
31.9900 1560.0000 1.0000
32.0000 1508.0000 1.0000
32.0100 1486.0000 1.0000
32.0200 1554.0000 1.0000
32.0300 1655.0000 1.0000
32.0400 1557.0000 1.0000
32.0500 1512.0000 1.0000
32.0600 1527.0000 1.0000
32.0700 1557.0000 1.0000
32.0800 1495.0000 1.0000
32.0900 1521.0000 1.0000
32.1000 1536.0000 1.0000
32.1100 1495.0000 1.0000
32.1200 1504.0000 1.0000
32.1300 1541.0000 1.0000
32.1400 1464.0000 1.0000
32.1500 1503.0000 1.0000
32.1600 1512.0000 1.0000
32.1700 1452.0000 1.0000
32.1800 1453.0000 1.0000
32.1900 1455.0000 1.0000
32.2000 1458.0000 1.0000
32.2100 1479.0000 1.0000
32.2200 1462.0000 1.0000
32.2300 1438.0000 1.0000
32.2400 1467.0000 1.0000
32.2500 1474.0000 1.0000
32.2600 1466.0000 1.0000
32.2700 1475.0000 1.0000
32.2800 1490.0000 1.0000
32.2900 1499.0000 1.0000
32.3000 1478.0000 1.0000
32.3100 1501.0000 1.0000
32.3200 1465.0000 1.0000
32.3300 1544.0000 1.0000
32.3400 1504.0000 1.0000
32.3500 1479.0000 1.0000
32.3600 1439.0000 1.0000
32.3700 1520.0000 1.0000
32.3800 1449.0000 1.0000
32.3900 1575.0000 1.0000
32.4000 1467.0000 1.0000
32.4100 1487.0000 1.0000
32.4200 1440.0000 1.0000
32.4300 1446.0000 1.0000
32.4400 1470.0000 1.0000
32.4500 1518.0000 1.0000
32.4600 1489.0000 1.0000
32.4700 1464.0000 1.0000
32.4800 1448.0000 1.0000
32.4900 1417.0000 1.0000
32.5000 1472.0000 1.0000
32.5100 1511.0000 1.0000
32.5200 1465.0000 1.0000
32.5300 1439.0000 1.0000
32.5400 1431.0000 1.0000
32.5500 1436.0000 1.0000
32.5600 1524.0000 1.0000
32.5700 1420.0000 1.0000
32.5800 1420.0000 1.0000
32.5900 1431.0000 1.0000
32.6000 1466.0000 1.0000
32.6100 1500.0000 1.0000
32.6200 1508.0000 1.0000
32.6300 1461.0000 1.0000
32.6400 1465.0000 1.0000
32.6500 1452.0000 1.0000
32.6600 1486.0000 1.0000
32.6700 1384.0000 1.0000
32.6800 1448.0000 1.0000
32.6900 1426.0000 1.0000
32.7000 1446.0000 1.0000
32.7100 1448.0000 1.0000
32.7200 1441.0000 1.0000
32.7300 1501.0000 1.0000
32.7400 1455.0000 1.0000
32.7500 1476.0000 1.0000
32.7600 1480.0000 1.0000
32.7700 1438.0000 1.0000
32.7800 1438.0000 1.0000
32.7900 1387.0000 1.0000
32.8000 1461.0000 1.0000
32.8100 1423.0000 1.0000
32.8200 1445.0000 1.0000
32.8300 1389.0000 1.0000
32.8400 1370.0000 1.0000
32.8500 1442.0000 1.0000
32.8600 1401.0000 1.0000
32.8700 1403.0000 1.0000
32.8800 1435.0000 1.0000
32.8900 1440.0000 1.0000
32.9000 1463.0000 1.0000
32.9100 1507.0000 1.0000
32.9200 1445.0000 1.0000
32.9300 1438.0000 1.0000
32.9400 1404.0000 1.0000
32.9500 1453.0000 1.0000
32.9600 1457.0000 1.0000
32.9700 1414.0000 1.0000
32.9800 1446.0000 1.0000
32.9900 1474.0000 1.0000
33.0000 1432.0000 1.0000
33.0100 1445.0000 1.0000
33.0200 1463.0000 1.0000
33.0300 1453.0000 1.0000
33.0400 1426.0000 1.0000
33.0500 1403.0000 1.0000
33.0600 1432.0000 1.0000
33.0700 1446.0000 1.0000
33.0800 1459.0000 1.0000
33.0900 1468.0000 1.0000
33.1000 1397.0000 1.0000
33.1100 1392.0000 1.0000
33.1200 1395.0000 1.0000
33.1300 1409.0000 1.0000
33.1400 1393.0000 1.0000
33.1500 1456.0000 1.0000
33.1600 1419.0000 1.0000
33.1700 1402.0000 1.0000
33.1800 1405.0000 1.0000
33.1900 1448.0000 1.0000
33.2000 1459.0000 1.0000
33.2100 1416.0000 1.0000
33.2200 1368.0000 1.0000
33.2300 1387.0000 1.0000
33.2400 1362.0000 1.0000
33.2500 1443.0000 1.0000
33.2600 1482.0000 1.0000
33.2700 1385.0000 1.0000
33.2800 1422.0000 1.0000
33.2900 1382.0000 1.0000
33.3000 1390.0000 1.0000
33.3100 1406.0000 1.0000
33.3200 1411.0000 1.0000
33.3300 1437.0000 1.0000
33.3400 1427.0000 1.0000
33.3500 1374.0000 1.0000
33.3600 1408.0000 1.0000
33.3700 1424.0000 1.0000
33.3800 1442.0000 1.0000
33.3900 1452.0000 1.0000
33.4000 1413.0000 1.0000
33.4100 1433.0000 1.0000
33.4200 1392.0000 1.0000
33.4300 1463.0000 1.0000
33.4400 1439.0000 1.0000
33.4500 1493.0000 1.0000
33.4600 1367.0000 1.0000
33.4700 1371.0000 1.0000
33.4800 1382.0000 1.0000
33.4900 1353.0000 1.0000
33.5000 1393.0000 1.0000
33.5100 1322.0000 1.0000
33.5200 1382.0000 1.0000
33.5300 1400.0000 1.0000
33.5400 1433.0000 1.0000
33.5500 1475.0000 1.0000
33.5600 1442.0000 1.0000
33.5700 1455.0000 1.0000
33.5800 1461.0000 1.0000
33.5900 1377.0000 1.0000
33.6000 1443.0000 1.0000
33.6100 1431.0000 1.0000
33.6200 1459.0000 1.0000
33.6300 1469.0000 1.0000
33.6400 1431.0000 1.0000
33.6500 1455.0000 1.0000
33.6600 1497.0000 1.0000
33.6700 1417.0000 1.0000
33.6800 1413.0000 1.0000
33.6900 1406.0000 1.0000
33.7000 1389.0000 1.0000
33.7100 1431.0000 1.0000
33.7200 1437.0000 1.0000
33.7300 1446.0000 1.0000
33.7400 1460.0000 1.0000
33.7500 1445.0000 1.0000
33.7600 1427.0000 1.0000
33.7700 1522.0000 1.0000
33.7800 1422.0000 1.0000
33.7900 1494.0000 1.0000
33.8000 1397.0000 1.0000
33.8100 1474.0000 1.0000
33.8200 1402.0000 1.0000
33.8300 1448.0000 1.0000
33.8400 1454.0000 1.0000
33.8500 1431.0000 1.0000
33.8600 1503.0000 1.0000
33.8700 1508.0000 1.0000
33.8800 1403.0000 1.0000
33.8900 1414.0000 1.0000
33.9000 1472.0000 1.0000
33.9100 1465.0000 1.0000
33.9200 1524.0000 1.0000
33.9300 1444.0000 1.0000
33.9400 1451.0000 1.0000
33.9500 1496.0000 1.0000
33.9600 1515.0000 1.0000
33.9700 1448.0000 1.0000
33.9800 1508.0000 1.0000
33.9900 1553.0000 1.0000
34.0000 1528.0000 1.0000
34.0100 1487.0000 1.0000
34.0200 1523.0000 1.0000
34.0300 1584.0000 1.0000
34.0400 1508.0000 1.0000
34.0500 1566.0000 1.0000
34.0600 1562.0000 1.0000
34.0700 1567.0000 1.0000
34.0800 1547.0000 1.0000
34.0900 1615.0000 1.0000
34.1000 1519.0000 1.0000
34.1100 1548.0000 1.0000
34.1200 1570.0000 1.0000
34.1300 1601.0000 1.0000
34.1400 1599.0000 1.0000
34.1500 1622.0000 1.0000
34.1600 1658.0000 1.0000
34.1700 1640.0000 1.0000
34.1800 1631.0000 1.0000
34.1900 1700.0000 1.0000
34.2000 1693.0000 1.0000
34.2100 1687.0000 1.0000
34.2200 1792.0000 1.0000
34.2300 1688.0000 1.0000
34.2400 1768.0000 1.0000
34.2500 1807.0000 1.0000
34.2600 1769.0000 1.0000
34.2700 1825.0000 1.0000
34.2800 1894.0000 1.0000
34.2900 1925.0000 1.0000
34.3000 1976.0000 1.0000
34.3100 2050.0000 1.0000
34.3200 2054.0000 1.0000
34.3300 2186.0000 1.0000
34.3400 2192.0000 1.0000
34.3500 2277.0000 1.0000
34.3600 2399.0000 1.0000
34.3700 2447.0000 1.0000
34.3800 2476.0000 1.0000
34.3900 2597.0000 1.0000
34.4000 2746.0000 1.0000
34.4100 2790.0000 1.0000
34.4200 2945.0000 1.0000
34.4300 3017.0000 1.0000
34.4400 3067.0000 1.0000
34.4500 3187.0000 1.0000
34.4600 3193.0000 1.0000
34.4700 3164.0000 1.0000
34.4800 3240.0000 1.0000
34.4900 3270.0000 1.0000
34.5000 3158.0000 1.0000
34.5100 3089.0000 1.0000
34.5200 3085.0000 1.0000
34.5300 3057.0000 1.0000
34.5400 2878.0000 1.0000
34.5500 2832.0000 1.0000
34.5600 2817.0000 1.0000
34.5700 2711.0000 1.0000
34.5800 2606.0000 1.0000
34.5900 2540.0000 1.0000
34.6000 2434.0000 1.0000
34.6100 2352.0000 1.0000
34.6200 2253.0000 1.0000
34.6300 2277.0000 1.0000
34.6400 2157.0000 1.0000
34.6500 2134.0000 1.0000
34.6600 2036.0000 1.0000
34.6700 1960.0000 1.0000
34.6800 1944.0000 1.0000
34.6900 1927.0000 1.0000
34.7000 1875.0000 1.0000
34.7100 1759.0000 1.0000
34.7200 1762.0000 1.0000
34.7300 1818.0000 1.0000
34.7400 1788.0000 1.0000
34.7500 1695.0000 1.0000
34.7600 1632.0000 1.0000
34.7700 1716.0000 1.0000
34.7800 1600.0000 1.0000
34.7900 1636.0000 1.0000
34.8000 1569.0000 1.0000
34.8100 1561.0000 1.0000
34.8200 1531.0000 1.0000
34.8300 1546.0000 1.0000
34.8400 1490.0000 1.0000
34.8500 1544.0000 1.0000
34.8600 1553.0000 1.0000
34.8700 1513.0000 1.0000
34.8800 1410.0000 1.0000
34.8900 1437.0000 1.0000
34.9000 1477.0000 1.0000
34.9100 1451.0000 1.0000
34.9200 1457.0000 1.0000
34.9300 1412.0000 1.0000
34.9400 1430.0000 1.0000
34.9500 1450.0000 1.0000
34.9600 1442.0000 1.0000
34.9700 1393.0000 1.0000
34.9800 1419.0000 1.0000
34.9900 1373.0000 1.0000
35.0000 1447.0000 1.0000
35.0100 1376.0000 1.0000
35.0200 1371.0000 1.0000
35.0300 1355.0000 1.0000
35.0400 1314.0000 1.0000
35.0500 1344.0000 1.0000
35.0600 1384.0000 1.0000
35.0700 1344.0000 1.0000
35.0800 1318.0000 1.0000
35.0900 1370.0000 1.0000
35.1000 1420.0000 1.0000
35.1100 1354.0000 1.0000
35.1200 1273.0000 1.0000
35.1300 1296.0000 1.0000
35.1400 1283.0000 1.0000
35.1500 1253.0000 1.0000
35.1600 1281.0000 1.0000
35.1700 1336.0000 1.0000
35.1800 1307.0000 1.0000
35.1900 1313.0000 1.0000
35.2000 1278.0000 1.0000
35.2100 1311.0000 1.0000
35.2200 1316.0000 1.0000
35.2300 1288.0000 1.0000
35.2400 1326.0000 1.0000
35.2500 1264.0000 1.0000
35.2600 1277.0000 1.0000
35.2700 1313.0000 1.0000
35.2800 1300.0000 1.0000
35.2900 1267.0000 1.0000
35.3000 1313.0000 1.0000
35.3100 1336.0000 1.0000
35.3200 1192.0000 1.0000
35.3300 1252.0000 1.0000
35.3400 1228.0000 1.0000
35.3500 1319.0000 1.0000
35.3600 1250.0000 1.0000
35.3700 1205.0000 1.0000
35.3800 1322.0000 1.0000
35.3900 1226.0000 1.0000
35.4000 1278.0000 1.0000
35.4100 1286.0000 1.0000
35.4200 1261.0000 1.0000
35.4300 1231.0000 1.0000
35.4400 1232.0000 1.0000
35.4500 1247.0000 1.0000
35.4600 1216.0000 1.0000
35.4700 1217.0000 1.0000
35.4800 1232.0000 1.0000
35.4900 1209.0000 1.0000
35.5000 1186.0000 1.0000
35.5100 1202.0000 1.0000
35.5200 1254.0000 1.0000
35.5300 1264.0000 1.0000
35.5400 1249.0000 1.0000
35.5500 1271.0000 1.0000
35.5600 1263.0000 1.0000
35.5700 1237.0000 1.0000
35.5800 1225.0000 1.0000
35.5900 1241.0000 1.0000
35.6000 1238.0000 1.0000
35.6100 1250.0000 1.0000
35.6200 1297.0000 1.0000
35.6300 1258.0000 1.0000
35.6400 1284.0000 1.0000
35.6500 1202.0000 1.0000
35.6600 1197.0000 1.0000
35.6700 1223.0000 1.0000
35.6800 1214.0000 1.0000
35.6900 1193.0000 1.0000
35.7000 1225.0000 1.0000
35.7100 1187.0000 1.0000
35.7200 1201.0000 1.0000
35.7300 1197.0000 1.0000
35.7400 1232.0000 1.0000
35.7500 1213.0000 1.0000
35.7600 1213.0000 1.0000
35.7700 1199.0000 1.0000
35.7800 1219.0000 1.0000
35.7900 1229.0000 1.0000
35.8000 1271.0000 1.0000
35.8100 1194.0000 1.0000
35.8200 1174.0000 1.0000
35.8300 1191.0000 1.0000
35.8400 1201.0000 1.0000
35.8500 1228.0000 1.0000
35.8600 1166.0000 1.0000
35.8700 1228.0000 1.0000
35.8800 1180.0000 1.0000
35.8900 1226.0000 1.0000
35.9000 1255.0000 1.0000
35.9100 1197.0000 1.0000
35.9200 1247.0000 1.0000
35.9300 1309.0000 1.0000
35.9400 1218.0000 1.0000
35.9500 1244.0000 1.0000
35.9600 1250.0000 1.0000
35.9700 1254.0000 1.0000
35.9800 1233.0000 1.0000
35.9900 1207.0000 1.0000
36.0000 1243.0000 1.0000
36.0100 1194.0000 1.0000
36.0200 1236.0000 1.0000
36.0300 1231.0000 1.0000
36.0400 1241.0000 1.0000
36.0500 1229.0000 1.0000
36.0600 1266.0000 1.0000
36.0700 1293.0000 1.0000
36.0800 1250.0000 1.0000
36.0900 1215.0000 1.0000
36.1000 1268.0000 1.0000
36.1100 1265.0000 1.0000
36.1200 1274.0000 1.0000
36.1300 1269.0000 1.0000
36.1400 1332.0000 1.0000
36.1500 1291.0000 1.0000
36.1600 1317.0000 1.0000
36.1700 1369.0000 1.0000
36.1800 1334.0000 1.0000
36.1900 1342.0000 1.0000
36.2000 1388.0000 1.0000
36.2100 1436.0000 1.0000
36.2200 1344.0000 1.0000
36.2300 1468.0000 1.0000
36.2400 1513.0000 1.0000
36.2500 1533.0000 1.0000
36.2600 1605.0000 1.0000
36.2700 1610.0000 1.0000
36.2800 1656.0000 1.0000
36.2900 1705.0000 1.0000
36.3000 1761.0000 1.0000
36.3100 1748.0000 1.0000
36.3200 1746.0000 1.0000
36.3300 1801.0000 1.0000
36.3400 1901.0000 1.0000
36.3500 1891.0000 1.0000
36.3600 1911.0000 1.0000
36.3700 1946.0000 1.0000
36.3800 1907.0000 1.0000
36.3900 1902.0000 1.0000
36.4000 1912.0000 1.0000
36.4100 1829.0000 1.0000
36.4200 1759.0000 1.0000
36.4300 1795.0000 1.0000
36.4400 1814.0000 1.0000
36.4500 1735.0000 1.0000
36.4600 1784.0000 1.0000
36.4700 1702.0000 1.0000
36.4800 1609.0000 1.0000
36.4900 1628.0000 1.0000
36.5000 1528.0000 1.0000
36.5100 1549.0000 1.0000
36.5200 1485.0000 1.0000
36.5300 1466.0000 1.0000
36.5400 1421.0000 1.0000
36.5500 1450.0000 1.0000
36.5600 1403.0000 1.0000
36.5700 1362.0000 1.0000
36.5800 1364.0000 1.0000
36.5900 1351.0000 1.0000
36.6000 1297.0000 1.0000
36.6100 1278.0000 1.0000
36.6200 1334.0000 1.0000
36.6300 1225.0000 1.0000
36.6400 1232.0000 1.0000
36.6500 1209.0000 1.0000
36.6600 1239.0000 1.0000
36.6700 1254.0000 1.0000
36.6800 1197.0000 1.0000
36.6900 1136.0000 1.0000
36.7000 1155.0000 1.0000
36.7100 1179.0000 1.0000
36.7200 1224.0000 1.0000
36.7300 1199.0000 1.0000
36.7400 1175.0000 1.0000
36.7500 1106.0000 1.0000
36.7600 1170.0000 1.0000
36.7700 1143.0000 1.0000
36.7800 1171.0000 1.0000
36.7900 1172.0000 1.0000
36.8000 1165.0000 1.0000
36.8100 1139.0000 1.0000
36.8200 1160.0000 1.0000
36.8300 1145.0000 1.0000
36.8400 1205.0000 1.0000
36.8500 1152.0000 1.0000
36.8600 1163.0000 1.0000
36.8700 1102.0000 1.0000
36.8800 1172.0000 1.0000
36.8900 1170.0000 1.0000
36.9000 1144.0000 1.0000
36.9100 1134.0000 1.0000
36.9200 1157.0000 1.0000
36.9300 1156.0000 1.0000
36.9400 1132.0000 1.0000
36.9500 1144.0000 1.0000
36.9600 1176.0000 1.0000
36.9700 1159.0000 1.0000
36.9800 1147.0000 1.0000
36.9900 1160.0000 1.0000
37.0000 1107.0000 1.0000
37.0100 1062.0000 1.0000
37.0200 1104.0000 1.0000
37.0300 1117.0000 1.0000
37.0400 1127.0000 1.0000
37.0500 1106.0000 1.0000
37.0600 1157.0000 1.0000
37.0700 1088.0000 1.0000
37.0800 1086.0000 1.0000
37.0900 1100.0000 1.0000
37.1000 1131.0000 1.0000
37.1100 1117.0000 1.0000
37.1200 1184.0000 1.0000
37.1300 1106.0000 1.0000
37.1400 1144.0000 1.0000
37.1500 1118.0000 1.0000
37.1600 1159.0000 1.0000
37.1700 1178.0000 1.0000
37.1800 1108.0000 1.0000
37.1900 1103.0000 1.0000
37.2000 1127.0000 1.0000
37.2100 1099.0000 1.0000
37.2200 1139.0000 1.0000
37.2300 1132.0000 1.0000
37.2400 1095.0000 1.0000
37.2500 1164.0000 1.0000
37.2600 1163.0000 1.0000
37.2700 1102.0000 1.0000
37.2800 1125.0000 1.0000
37.2900 1145.0000 1.0000
37.3000 1156.0000 1.0000
37.3100 1105.0000 1.0000
37.3200 1168.0000 1.0000
37.3300 1136.0000 1.0000
37.3400 1116.0000 1.0000
37.3500 1154.0000 1.0000
37.3600 1162.0000 1.0000
37.3700 1168.0000 1.0000
37.3800 1108.0000 1.0000
37.3900 1126.0000 1.0000
37.4000 1155.0000 1.0000
37.4100 1125.0000 1.0000
37.4200 1077.0000 1.0000
37.4300 1162.0000 1.0000
37.4400 1167.0000 1.0000
37.4500 1137.0000 1.0000
37.4600 1073.0000 1.0000
37.4700 1137.0000 1.0000
37.4800 1164.0000 1.0000
37.4900 1126.0000 1.0000
37.5000 1135.0000 1.0000
37.5100 1094.0000 1.0000
37.5200 1141.0000 1.0000
37.5300 1126.0000 1.0000
37.5400 1142.0000 1.0000
37.5500 1132.0000 1.0000
37.5600 1134.0000 1.0000
37.5700 1064.0000 1.0000
37.5800 1165.0000 1.0000
37.5900 1085.0000 1.0000
37.6000 1097.0000 1.0000
37.6100 1171.0000 1.0000
37.6200 1161.0000 1.0000
37.6300 1199.0000 1.0000
37.6400 1132.0000 1.0000
37.6500 1142.0000 1.0000
37.6600 1131.0000 1.0000
37.6700 1109.0000 1.0000
37.6800 1130.0000 1.0000
37.6900 1123.0000 1.0000
37.7000 1144.0000 1.0000
37.7100 1095.0000 1.0000
37.7200 1150.0000 1.0000
37.7300 1147.0000 1.0000
37.7400 1132.0000 1.0000
37.7500 1109.0000 1.0000
37.7600 1128.0000 1.0000
37.7700 1172.0000 1.0000
37.7800 1138.0000 1.0000
37.7900 1159.0000 1.0000
37.8000 1152.0000 1.0000
37.8100 1181.0000 1.0000
37.8200 1111.0000 1.0000
37.8300 1134.0000 1.0000
37.8400 1107.0000 1.0000
37.8500 1159.0000 1.0000
37.8600 1158.0000 1.0000
37.8700 1157.0000 1.0000
37.8800 1112.0000 1.0000
37.8900 1168.0000 1.0000
37.9000 1189.0000 1.0000
37.9100 1146.0000 1.0000
37.9200 1175.0000 1.0000
37.9300 1152.0000 1.0000
37.9400 1196.0000 1.0000
37.9500 1151.0000 1.0000
37.9600 1198.0000 1.0000
37.9700 1221.0000 1.0000
37.9800 1211.0000 1.0000
37.9900 1226.0000 1.0000
38.0000 1227.0000 1.0000
38.0100 1226.0000 1.0000
38.0200 1247.0000 1.0000
38.0300 1201.0000 1.0000
38.0400 1298.0000 1.0000
38.0500 1291.0000 1.0000
38.0600 1290.0000 1.0000
38.0700 1321.0000 1.0000
38.0800 1314.0000 1.0000
38.0900 1367.0000 1.0000
38.1000 1374.0000 1.0000
38.1100 1360.0000 1.0000
38.1200 1406.0000 1.0000
38.1300 1429.0000 1.0000
38.1400 1481.0000 1.0000
38.1500 1498.0000 1.0000
38.1600 1545.0000 1.0000
38.1700 1610.0000 1.0000
38.1800 1670.0000 1.0000
38.1900 1678.0000 1.0000
38.2000 1710.0000 1.0000
38.2100 1741.0000 1.0000
38.2200 1783.0000 1.0000
38.2300 1860.0000 1.0000
38.2400 1871.0000 1.0000
38.2500 1963.0000 1.0000
38.2600 2003.0000 1.0000
38.2700 2120.0000 1.0000
38.2800 2210.0000 1.0000
38.2900 2354.0000 1.0000
38.3000 2396.0000 1.0000
38.3100 2628.0000 1.0000
38.3200 2714.0000 1.0000
38.3300 2931.0000 1.0000
38.3400 3045.0000 1.0000
38.3500 3244.0000 1.0000
38.3600 3419.0000 1.0000
38.3700 3697.0000 1.0000
38.3800 3981.0000 1.0000
38.3900 4315.0000 1.0000
38.4000 4503.0000 1.0000
38.4100 4923.0000 1.0000
38.4200 5403.0000 1.0000
38.4300 5679.0000 1.0000
38.4400 6080.0000 1.0000
38.4500 6567.0000 1.0000
38.4600 6821.0000 1.0000
38.4700 7223.0000 1.0000
38.4800 7450.0000 1.0000
38.4900 7716.0000 1.0000
38.5000 7908.0000 1.0000
38.5100 7907.0000 1.0000
38.5200 8071.0000 1.0000
38.5300 7871.0000 1.0000
38.5400 7858.0000 1.0000
38.5500 7695.0000 1.0000
38.5600 7506.0000 1.0000
38.5700 7369.0000 1.0000
38.5800 6980.0000 1.0000
38.5900 6799.0000 1.0000
38.6000 6548.0000 1.0000
38.6100 6199.0000 1.0000
38.6200 5920.0000 1.0000
38.6300 5501.0000 1.0000
38.6400 5250.0000 1.0000
38.6500 4934.0000 1.0000
38.6600 4531.0000 1.0000
38.6700 4256.0000 1.0000
38.6800 4012.0000 1.0000
38.6900 3817.0000 1.0000
38.7000 3513.0000 1.0000
38.7100 3238.0000 1.0000
38.7200 3088.0000 1.0000
38.7300 2922.0000 1.0000
38.7400 2820.0000 1.0000
38.7500 2705.0000 1.0000
38.7600 2537.0000 1.0000
38.7700 2346.0000 1.0000
38.7800 2289.0000 1.0000
38.7900 2176.0000 1.0000
38.8000 2079.0000 1.0000
38.8100 2023.0000 1.0000
38.8200 1916.0000 1.0000
38.8300 1799.0000 1.0000
38.8400 1773.0000 1.0000
38.8500 1669.0000 1.0000
38.8600 1635.0000 1.0000
38.8700 1538.0000 1.0000
38.8800 1501.0000 1.0000
38.8900 1513.0000 1.0000
38.9000 1465.0000 1.0000
38.9100 1417.0000 1.0000
38.9200 1395.0000 1.0000
38.9300 1382.0000 1.0000
38.9400 1300.0000 1.0000
38.9500 1316.0000 1.0000
38.9600 1342.0000 1.0000
38.9700 1300.0000 1.0000
38.9800 1234.0000 1.0000
38.9900 1206.0000 1.0000
39.0000 1245.0000 1.0000
39.0100 1210.0000 1.0000
39.0200 1207.0000 1.0000
39.0300 1195.0000 1.0000
39.0400 1168.0000 1.0000
39.0500 1201.0000 1.0000
39.0600 1163.0000 1.0000
39.0700 1131.0000 1.0000
39.0800 1078.0000 1.0000
39.0900 1093.0000 1.0000
39.1000 1126.0000 1.0000
39.1100 1084.0000 1.0000
39.1200 1091.0000 1.0000
39.1300 1032.0000 1.0000
39.1400 1070.0000 1.0000
39.1500 1065.0000 1.0000
39.1600 1075.0000 1.0000
39.1700 1067.0000 1.0000
39.1800 1042.0000 1.0000
39.1900 1022.0000 1.0000
39.2000 1065.0000 1.0000
39.2100 1062.0000 1.0000
39.2200 1026.0000 1.0000
39.2300 1019.0000 1.0000
39.2400 1057.0000 1.0000
39.2500 1071.0000 1.0000
39.2600 1054.0000 1.0000
39.2700 1078.0000 1.0000
39.2800 1021.0000 1.0000
39.2900 1036.0000 1.0000
39.3000 1038.0000 1.0000
39.3100 1024.0000 1.0000
39.3200 1005.0000 1.0000
39.3300 1038.0000 1.0000
39.3400 1015.0000 1.0000
39.3500 1050.0000 1.0000
39.3600 998.0000 1.0000
39.3700 1024.0000 1.0000
39.3800 1069.0000 1.0000
39.3900 1059.0000 1.0000
39.4000 1054.0000 1.0000
39.4100 999.0000 1.0000
39.4200 1037.0000 1.0000
39.4300 997.0000 1.0000
39.4400 1069.0000 1.0000
39.4500 1068.0000 1.0000
39.4600 1051.0000 1.0000
39.4700 1027.0000 1.0000
39.4800 997.0000 1.0000
39.4900 1007.0000 1.0000
39.5000 1014.0000 1.0000
39.5100 1055.0000 1.0000
39.5200 1022.0000 1.0000
39.5300 1077.0000 1.0000
39.5400 1079.0000 1.0000
39.5500 1086.0000 1.0000
39.5600 1056.0000 1.0000
39.5700 1083.0000 1.0000
39.5800 1104.0000 1.0000
39.5900 1060.0000 1.0000
39.6000 1041.0000 1.0000
39.6100 1069.0000 1.0000
39.6200 996.0000 1.0000
39.6300 1016.0000 1.0000
39.6400 1011.0000 1.0000
39.6500 1050.0000 1.0000
39.6600 1027.0000 1.0000
39.6700 1011.0000 1.0000
39.6800 1009.0000 1.0000
39.6900 1043.0000 1.0000
39.7000 1023.0000 1.0000
39.7100 1034.0000 1.0000
39.7200 1018.0000 1.0000
39.7300 974.0000 1.0000
39.7400 998.0000 1.0000
39.7500 1052.0000 1.0000
39.7600 954.0000 1.0000
39.7700 1025.0000 1.0000
39.7800 1033.0000 1.0000
39.7900 919.0000 1.0000
39.8000 969.0000 1.0000
39.8100 912.0000 1.0000
39.8200 972.0000 1.0000
39.8300 965.0000 1.0000
39.8400 968.0000 1.0000
39.8500 984.0000 1.0000
39.8600 971.0000 1.0000
39.8700 1000.0000 1.0000
39.8800 1018.0000 1.0000
39.8900 950.0000 1.0000
39.9000 959.0000 1.0000
39.9100 981.0000 1.0000
39.9200 956.0000 1.0000
39.9300 995.0000 1.0000
39.9400 939.0000 1.0000
39.9500 940.0000 1.0000
39.9600 910.0000 1.0000
39.9700 929.0000 1.0000
39.9800 970.0000 1.0000
39.9900 961.0000 1.0000
40.0000 955.0000 1.0000
40.0100 931.0000 1.0000
40.0200 997.0000 1.0000
40.0300 927.0000 1.0000
40.0400 912.0000 1.0000
40.0500 977.0000 1.0000
40.0600 919.0000 1.0000
40.0700 971.0000 1.0000
40.0800 962.0000 1.0000
40.0900 959.0000 1.0000
40.1000 943.0000 1.0000
40.1100 915.0000 1.0000
40.1200 907.0000 1.0000
40.1300 920.0000 1.0000
40.1400 976.0000 1.0000
40.1500 975.0000 1.0000
40.1600 950.0000 1.0000
40.1700 952.0000 1.0000
40.1800 940.0000 1.0000
40.1900 927.0000 1.0000
40.2000 893.0000 1.0000
40.2100 932.0000 1.0000
40.2200 936.0000 1.0000
40.2300 927.0000 1.0000
40.2400 983.0000 1.0000
40.2500 974.0000 1.0000
40.2600 973.0000 1.0000
40.2700 943.0000 1.0000
40.2800 876.0000 1.0000
40.2900 934.0000 1.0000
40.3000 967.0000 1.0000
40.3100 935.0000 1.0000
40.3200 946.0000 1.0000
40.3300 922.0000 1.0000
40.3400 900.0000 1.0000
40.3500 951.0000 1.0000
40.3600 1011.0000 1.0000
40.3700 927.0000 1.0000
40.3800 949.0000 1.0000
40.3900 930.0000 1.0000
40.4000 878.0000 1.0000
40.4100 902.0000 1.0000
40.4200 1003.0000 1.0000
40.4300 953.0000 1.0000
40.4400 991.0000 1.0000
40.4500 892.0000 1.0000
40.4600 910.0000 1.0000
40.4700 898.0000 1.0000
40.4800 951.0000 1.0000
40.4900 954.0000 1.0000
40.5000 954.0000 1.0000
40.5100 896.0000 1.0000
40.5200 920.0000 1.0000
40.5300 939.0000 1.0000
40.5400 909.0000 1.0000
40.5500 917.0000 1.0000
40.5600 869.0000 1.0000
40.5700 895.0000 1.0000
40.5800 927.0000 1.0000
40.5900 925.0000 1.0000
40.6000 878.0000 1.0000
40.6100 907.0000 1.0000
40.6200 933.0000 1.0000
40.6300 949.0000 1.0000
40.6400 951.0000 1.0000
40.6500 913.0000 1.0000
40.6600 924.0000 1.0000
40.6700 967.0000 1.0000
40.6800 952.0000 1.0000
40.6900 902.0000 1.0000
40.7000 926.0000 1.0000
40.7100 926.0000 1.0000
40.7200 912.0000 1.0000
40.7300 903.0000 1.0000
40.7400 930.0000 1.0000
40.7500 904.0000 1.0000
40.7600 897.0000 1.0000
40.7700 916.0000 1.0000
40.7800 913.0000 1.0000
40.7900 910.0000 1.0000
40.8000 885.0000 1.0000
40.8100 903.0000 1.0000
40.8200 954.0000 1.0000
40.8300 884.0000 1.0000
40.8400 890.0000 1.0000
40.8500 897.0000 1.0000
40.8600 912.0000 1.0000
40.8700 971.0000 1.0000
40.8800 940.0000 1.0000
40.8900 956.0000 1.0000
40.9000 932.0000 1.0000
40.9100 944.0000 1.0000
40.9200 905.0000 1.0000
40.9300 924.0000 1.0000
40.9400 905.0000 1.0000
40.9500 916.0000 1.0000
40.9600 940.0000 1.0000
40.9700 946.0000 1.0000
40.9800 956.0000 1.0000
40.9900 923.0000 1.0000
41.0000 906.0000 1.0000
41.0100 899.0000 1.0000
41.0200 918.0000 1.0000
41.0300 872.0000 1.0000
41.0400 948.0000 1.0000
41.0500 965.0000 1.0000
41.0600 954.0000 1.0000
41.0700 899.0000 1.0000
41.0800 924.0000 1.0000
41.0900 920.0000 1.0000
41.1000 926.0000 1.0000
41.1100 909.0000 1.0000
41.1200 940.0000 1.0000
41.1300 912.0000 1.0000
41.1400 967.0000 1.0000
41.1500 911.0000 1.0000
41.1600 894.0000 1.0000
41.1700 857.0000 1.0000
41.1800 926.0000 1.0000
41.1900 897.0000 1.0000
41.2000 942.0000 1.0000
41.2100 907.0000 1.0000
41.2200 911.0000 1.0000
41.2300 946.0000 1.0000
41.2400 907.0000 1.0000
41.2500 930.0000 1.0000
41.2600 964.0000 1.0000
41.2700 931.0000 1.0000
41.2800 920.0000 1.0000
41.2900 945.0000 1.0000
41.3000 926.0000 1.0000
41.3100 856.0000 1.0000
41.3200 925.0000 1.0000
41.3300 923.0000 1.0000
41.3400 876.0000 1.0000
41.3500 917.0000 1.0000
41.3600 928.0000 1.0000
41.3700 908.0000 1.0000
41.3800 896.0000 1.0000
41.3900 902.0000 1.0000
41.4000 913.0000 1.0000
41.4100 921.0000 1.0000
41.4200 940.0000 1.0000
41.4300 896.0000 1.0000
41.4400 917.0000 1.0000
41.4500 920.0000 1.0000
41.4600 874.0000 1.0000
41.4700 911.0000 1.0000
41.4800 910.0000 1.0000
41.4900 901.0000 1.0000
41.5000 933.0000 1.0000
41.5100 880.0000 1.0000
41.5200 936.0000 1.0000
41.5300 890.0000 1.0000
41.5400 939.0000 1.0000
41.5500 914.0000 1.0000
41.5600 928.0000 1.0000
41.5700 943.0000 1.0000
41.5800 847.0000 1.0000
41.5900 902.0000 1.0000
41.6000 873.0000 1.0000
41.6100 913.0000 1.0000
41.6200 902.0000 1.0000
41.6300 910.0000 1.0000
41.6400 923.0000 1.0000
41.6500 915.0000 1.0000
41.6600 902.0000 1.0000
41.6700 918.0000 1.0000
41.6800 921.0000 1.0000
41.6900 895.0000 1.0000
41.7000 913.0000 1.0000
41.7100 920.0000 1.0000
41.7200 907.0000 1.0000
41.7300 940.0000 1.0000
41.7400 963.0000 1.0000
41.7500 871.0000 1.0000
41.7600 885.0000 1.0000
41.7700 884.0000 1.0000
41.7800 892.0000 1.0000
41.7900 919.0000 1.0000
41.8000 882.0000 1.0000
41.8100 867.0000 1.0000
41.8200 869.0000 1.0000
41.8300 900.0000 1.0000
41.8400 941.0000 1.0000
41.8500 896.0000 1.0000
41.8600 888.0000 1.0000
41.8700 856.0000 1.0000
41.8800 911.0000 1.0000
41.8900 968.0000 1.0000
41.9000 882.0000 1.0000
41.9100 857.0000 1.0000
41.9200 869.0000 1.0000
41.9300 855.0000 1.0000
41.9400 905.0000 1.0000
41.9500 879.0000 1.0000
41.9600 914.0000 1.0000
41.9700 884.0000 1.0000
41.9800 889.0000 1.0000
41.9900 865.0000 1.0000
42.0000 847.0000 1.0000
42.0100 925.0000 1.0000
42.0200 886.0000 1.0000
42.0300 893.0000 1.0000
42.0400 921.0000 1.0000
42.0500 936.0000 1.0000
42.0600 870.0000 1.0000
42.0700 887.0000 1.0000
42.0800 918.0000 1.0000
42.0900 846.0000 1.0000
42.1000 855.0000 1.0000
42.1100 892.0000 1.0000
42.1200 937.0000 1.0000
42.1300 881.0000 1.0000
42.1400 900.0000 1.0000
42.1500 917.0000 1.0000
42.1600 915.0000 1.0000
42.1700 858.0000 1.0000
42.1800 865.0000 1.0000
42.1900 885.0000 1.0000
42.2000 886.0000 1.0000
42.2100 874.0000 1.0000
42.2200 870.0000 1.0000
42.2300 940.0000 1.0000
42.2400 916.0000 1.0000
42.2500 897.0000 1.0000
42.2600 917.0000 1.0000
42.2700 846.0000 1.0000
42.2800 917.0000 1.0000
42.2900 895.0000 1.0000
42.3000 922.0000 1.0000
42.3100 908.0000 1.0000
42.3200 902.0000 1.0000
42.3300 863.0000 1.0000
42.3400 869.0000 1.0000
42.3500 898.0000 1.0000
42.3600 904.0000 1.0000
42.3700 877.0000 1.0000
42.3800 876.0000 1.0000
42.3900 915.0000 1.0000
42.4000 895.0000 1.0000
42.4100 914.0000 1.0000
42.4200 937.0000 1.0000
42.4300 929.0000 1.0000
42.4400 867.0000 1.0000
42.4500 896.0000 1.0000
42.4600 841.0000 1.0000
42.4700 848.0000 1.0000
42.4800 893.0000 1.0000
42.4900 857.0000 1.0000
42.5000 873.0000 1.0000
42.5100 884.0000 1.0000
42.5200 913.0000 1.0000
42.5300 935.0000 1.0000
42.5400 871.0000 1.0000
42.5500 879.0000 1.0000
42.5600 875.0000 1.0000
42.5700 914.0000 1.0000
42.5800 880.0000 1.0000
42.5900 936.0000 1.0000
42.6000 891.0000 1.0000
42.6100 896.0000 1.0000
42.6200 896.0000 1.0000
42.6300 898.0000 1.0000
42.6400 899.0000 1.0000
42.6500 911.0000 1.0000
42.6600 883.0000 1.0000
42.6700 897.0000 1.0000
42.6800 840.0000 1.0000
42.6900 873.0000 1.0000
42.7000 879.0000 1.0000
42.7100 898.0000 1.0000
42.7200 907.0000 1.0000
42.7300 887.0000 1.0000
42.7400 877.0000 1.0000
42.7500 846.0000 1.0000
42.7600 879.0000 1.0000
42.7700 863.0000 1.0000
42.7800 886.0000 1.0000
42.7900 919.0000 1.0000
42.8000 855.0000 1.0000
42.8100 906.0000 1.0000
42.8200 876.0000 1.0000
42.8300 931.0000 1.0000
42.8400 862.0000 1.0000
42.8500 874.0000 1.0000
42.8600 883.0000 1.0000
42.8700 889.0000 1.0000
42.8800 936.0000 1.0000
42.8900 890.0000 1.0000
42.9000 883.0000 1.0000
42.9100 855.0000 1.0000
42.9200 887.0000 1.0000
42.9300 884.0000 1.0000
42.9400 903.0000 1.0000
42.9500 877.0000 1.0000
42.9600 900.0000 1.0000
42.9700 882.0000 1.0000
42.9800 905.0000 1.0000
42.9900 961.0000 1.0000
43.0000 884.0000 1.0000
43.0100 913.0000 1.0000
43.0200 902.0000 1.0000
43.0300 908.0000 1.0000
43.0400 923.0000 1.0000
43.0500 945.0000 1.0000
43.0600 938.0000 1.0000
43.0700 872.0000 1.0000
43.0800 932.0000 1.0000
43.0900 940.0000 1.0000
43.1000 960.0000 1.0000
43.1100 974.0000 1.0000
43.1200 971.0000 1.0000
43.1300 966.0000 1.0000
43.1400 965.0000 1.0000
43.1500 1021.0000 1.0000
43.1600 999.0000 1.0000
43.1700 1025.0000 1.0000
43.1800 976.0000 1.0000
43.1900 1026.0000 1.0000
43.2000 994.0000 1.0000
43.2100 983.0000 1.0000
43.2200 954.0000 1.0000
43.2300 997.0000 1.0000
43.2400 959.0000 1.0000
43.2500 957.0000 1.0000
43.2600 958.0000 1.0000
43.2700 931.0000 1.0000
43.2800 986.0000 1.0000
43.2900 1021.0000 1.0000
43.3000 929.0000 1.0000
43.3100 964.0000 1.0000
43.3200 967.0000 1.0000
43.3300 987.0000 1.0000
43.3400 941.0000 1.0000
43.3500 942.0000 1.0000
43.3600 972.0000 1.0000
43.3700 970.0000 1.0000
43.3800 929.0000 1.0000
43.3900 898.0000 1.0000
43.4000 908.0000 1.0000
43.4100 927.0000 1.0000
43.4200 930.0000 1.0000
43.4300 856.0000 1.0000
43.4400 888.0000 1.0000
43.4500 914.0000 1.0000
43.4600 850.0000 1.0000
43.4700 897.0000 1.0000
43.4800 889.0000 1.0000
43.4900 926.0000 1.0000
43.5000 869.0000 1.0000
43.5100 921.0000 1.0000
43.5200 907.0000 1.0000
43.5300 858.0000 1.0000
43.5400 897.0000 1.0000
43.5500 896.0000 1.0000
43.5600 883.0000 1.0000
43.5700 889.0000 1.0000
43.5800 847.0000 1.0000
43.5900 834.0000 1.0000
43.6000 888.0000 1.0000
43.6100 887.0000 1.0000
43.6200 826.0000 1.0000
43.6300 891.0000 1.0000
43.6400 861.0000 1.0000
43.6500 881.0000 1.0000
43.6600 866.0000 1.0000
43.6700 870.0000 1.0000
43.6800 816.0000 1.0000
43.6900 886.0000 1.0000
43.7000 886.0000 1.0000
43.7100 870.0000 1.0000
43.7200 828.0000 1.0000
43.7300 883.0000 1.0000
43.7400 851.0000 1.0000
43.7500 871.0000 1.0000
43.7600 878.0000 1.0000
43.7700 879.0000 1.0000
43.7800 870.0000 1.0000
43.7900 889.0000 1.0000
43.8000 885.0000 1.0000
43.8100 906.0000 1.0000
43.8200 887.0000 1.0000
43.8300 890.0000 1.0000
43.8400 840.0000 1.0000
43.8500 870.0000 1.0000
43.8600 869.0000 1.0000
43.8700 869.0000 1.0000
43.8800 859.0000 1.0000
43.8900 847.0000 1.0000
43.9000 853.0000 1.0000
43.9100 871.0000 1.0000
43.9200 880.0000 1.0000
43.9300 862.0000 1.0000
43.9400 905.0000 1.0000
43.9500 864.0000 1.0000
43.9600 866.0000 1.0000
43.9700 842.0000 1.0000
43.9800 834.0000 1.0000
43.9900 809.0000 1.0000
44.0000 889.0000 1.0000
44.0100 922.0000 1.0000
44.0200 886.0000 1.0000
44.0300 878.0000 1.0000
44.0400 831.0000 1.0000
44.0500 869.0000 1.0000
44.0600 863.0000 1.0000
44.0700 871.0000 1.0000
44.0800 877.0000 1.0000
44.0900 892.0000 1.0000
44.1000 843.0000 1.0000
44.1100 860.0000 1.0000
44.1200 837.0000 1.0000
44.1300 834.0000 1.0000
44.1400 828.0000 1.0000
44.1500 853.0000 1.0000
44.1600 887.0000 1.0000
44.1700 859.0000 1.0000
44.1800 857.0000 1.0000
44.1900 838.0000 1.0000
44.2000 840.0000 1.0000
44.2100 823.0000 1.0000
44.2200 825.0000 1.0000
44.2300 838.0000 1.0000
44.2400 829.0000 1.0000
44.2500 866.0000 1.0000
44.2600 890.0000 1.0000
44.2700 884.0000 1.0000
44.2800 883.0000 1.0000
44.2900 871.0000 1.0000
44.3000 867.0000 1.0000
44.3100 887.0000 1.0000
44.3200 847.0000 1.0000
44.3300 840.0000 1.0000
44.3400 840.0000 1.0000
44.3500 877.0000 1.0000
44.3600 869.0000 1.0000
44.3700 885.0000 1.0000
44.3800 896.0000 1.0000
44.3900 853.0000 1.0000
44.4000 856.0000 1.0000
44.4100 897.0000 1.0000
44.4200 844.0000 1.0000
44.4300 889.0000 1.0000
44.4400 910.0000 1.0000
44.4500 887.0000 1.0000
44.4600 885.0000 1.0000
44.4700 867.0000 1.0000
44.4800 825.0000 1.0000
44.4900 818.0000 1.0000
44.5000 816.0000 1.0000
44.5100 834.0000 1.0000
44.5200 841.0000 1.0000
44.5300 840.0000 1.0000
44.5400 837.0000 1.0000
44.5500 855.0000 1.0000
44.5600 827.0000 1.0000
44.5700 857.0000 1.0000
44.5800 823.0000 1.0000
44.5900 813.0000 1.0000
44.6000 834.0000 1.0000
44.6100 832.0000 1.0000
44.6200 822.0000 1.0000
44.6300 808.0000 1.0000
44.6400 847.0000 1.0000
44.6500 866.0000 1.0000
44.6600 872.0000 1.0000
44.6700 838.0000 1.0000
44.6800 820.0000 1.0000
44.6900 833.0000 1.0000
44.7000 809.0000 1.0000
44.7100 845.0000 1.0000
44.7200 891.0000 1.0000
44.7300 834.0000 1.0000
44.7400 813.0000 1.0000
44.7500 885.0000 1.0000
44.7600 830.0000 1.0000
44.7700 867.0000 1.0000
44.7800 834.0000 1.0000
44.7900 880.0000 1.0000
44.8000 835.0000 1.0000
44.8100 781.0000 1.0000
44.8200 832.0000 1.0000
44.8300 847.0000 1.0000
44.8400 847.0000 1.0000
44.8500 831.0000 1.0000
44.8600 870.0000 1.0000
44.8700 809.0000 1.0000
44.8800 848.0000 1.0000
44.8900 821.0000 1.0000
44.9000 837.0000 1.0000
44.9100 801.0000 1.0000
44.9200 815.0000 1.0000
44.9300 845.0000 1.0000
44.9400 855.0000 1.0000
44.9500 816.0000 1.0000
44.9600 827.0000 1.0000
44.9700 876.0000 1.0000
44.9800 840.0000 1.0000
44.9900 836.0000 1.0000
45.0000 842.0000 1.0000
45.0100 824.0000 1.0000
45.0200 840.0000 1.0000
45.0300 847.0000 1.0000
45.0400 854.0000 1.0000
45.0500 875.0000 1.0000
45.0600 833.0000 1.0000
45.0700 805.0000 1.0000
45.0800 841.0000 1.0000
45.0900 817.0000 1.0000
45.1000 852.0000 1.0000
45.1100 789.0000 1.0000
45.1200 827.0000 1.0000
45.1300 885.0000 1.0000
45.1400 850.0000 1.0000
45.1500 848.0000 1.0000
45.1600 839.0000 1.0000
45.1700 828.0000 1.0000
45.1800 821.0000 1.0000
45.1900 856.0000 1.0000
45.2000 848.0000 1.0000
45.2100 878.0000 1.0000
45.2200 859.0000 1.0000
45.2300 852.0000 1.0000
45.2400 825.0000 1.0000
45.2500 810.0000 1.0000
45.2600 840.0000 1.0000
45.2700 858.0000 1.0000
45.2800 838.0000 1.0000
45.2900 857.0000 1.0000
45.3000 828.0000 1.0000
45.3100 846.0000 1.0000
45.3200 829.0000 1.0000
45.3300 869.0000 1.0000
45.3400 879.0000 1.0000
45.3500 837.0000 1.0000
45.3600 820.0000 1.0000
45.3700 818.0000 1.0000
45.3800 817.0000 1.0000
45.3900 876.0000 1.0000
45.4000 839.0000 1.0000
45.4100 800.0000 1.0000
45.4200 868.0000 1.0000
45.4300 803.0000 1.0000
45.4400 843.0000 1.0000
45.4500 873.0000 1.0000
45.4600 787.0000 1.0000
45.4700 820.0000 1.0000
45.4800 830.0000 1.0000
45.4900 829.0000 1.0000
45.5000 802.0000 1.0000
45.5100 815.0000 1.0000
45.5200 799.0000 1.0000
45.5300 836.0000 1.0000
45.5400 854.0000 1.0000
45.5500 839.0000 1.0000
45.5600 848.0000 1.0000
45.5700 848.0000 1.0000
45.5800 828.0000 1.0000
45.5900 859.0000 1.0000
45.6000 861.0000 1.0000
45.6100 837.0000 1.0000
45.6200 824.0000 1.0000
45.6300 831.0000 1.0000
45.6400 837.0000 1.0000
45.6500 807.0000 1.0000
45.6600 822.0000 1.0000
45.6700 821.0000 1.0000
45.6800 809.0000 1.0000
45.6900 832.0000 1.0000
45.7000 798.0000 1.0000
45.7100 771.0000 1.0000
45.7200 857.0000 1.0000
45.7300 801.0000 1.0000
45.7400 838.0000 1.0000
45.7500 832.0000 1.0000
45.7600 844.0000 1.0000
45.7700 853.0000 1.0000
45.7800 834.0000 1.0000
45.7900 830.0000 1.0000
45.8000 781.0000 1.0000
45.8100 788.0000 1.0000
45.8200 812.0000 1.0000
45.8300 856.0000 1.0000
45.8400 831.0000 1.0000
45.8500 863.0000 1.0000
45.8600 872.0000 1.0000
45.8700 833.0000 1.0000
45.8800 848.0000 1.0000
45.8900 814.0000 1.0000
45.9000 800.0000 1.0000
45.9100 841.0000 1.0000
45.9200 772.0000 1.0000
45.9300 847.0000 1.0000
45.9400 823.0000 1.0000
45.9500 873.0000 1.0000
45.9600 790.0000 1.0000
45.9700 829.0000 1.0000
45.9800 837.0000 1.0000
45.9900 809.0000 1.0000
46.0000 796.0000 1.0000
46.0100 804.0000 1.0000
46.0200 788.0000 1.0000
46.0300 802.0000 1.0000
46.0400 789.0000 1.0000
46.0500 817.0000 1.0000
46.0600 803.0000 1.0000
46.0700 870.0000 1.0000
46.0800 859.0000 1.0000
46.0900 806.0000 1.0000
46.1000 826.0000 1.0000
46.1100 857.0000 1.0000
46.1200 826.0000 1.0000
46.1300 875.0000 1.0000
46.1400 846.0000 1.0000
46.1500 854.0000 1.0000
46.1600 847.0000 1.0000
46.1700 865.0000 1.0000
46.1800 879.0000 1.0000
46.1900 824.0000 1.0000
46.2000 805.0000 1.0000
46.2100 815.0000 1.0000
46.2200 853.0000 1.0000
46.2300 792.0000 1.0000
46.2400 790.0000 1.0000
46.2500 802.0000 1.0000
46.2600 758.0000 1.0000
46.2700 790.0000 1.0000
46.2800 819.0000 1.0000
46.2900 786.0000 1.0000
46.3000 786.0000 1.0000
46.3100 803.0000 1.0000
46.3200 784.0000 1.0000
46.3300 794.0000 1.0000
46.3400 811.0000 1.0000
46.3500 811.0000 1.0000
46.3600 787.0000 1.0000
46.3700 787.0000 1.0000
46.3800 820.0000 1.0000
46.3900 811.0000 1.0000
46.4000 777.0000 1.0000
46.4100 810.0000 1.0000
46.4200 823.0000 1.0000
46.4300 788.0000 1.0000
46.4400 857.0000 1.0000
46.4500 834.0000 1.0000
46.4600 810.0000 1.0000
46.4700 792.0000 1.0000
46.4800 801.0000 1.0000
46.4900 793.0000 1.0000
46.5000 811.0000 1.0000
46.5100 799.0000 1.0000
46.5200 784.0000 1.0000
46.5300 785.0000 1.0000
46.5400 784.0000 1.0000
46.5500 819.0000 1.0000
46.5600 836.0000 1.0000
46.5700 789.0000 1.0000
46.5800 803.0000 1.0000
46.5900 810.0000 1.0000
46.6000 832.0000 1.0000
46.6100 803.0000 1.0000
46.6200 801.0000 1.0000
46.6300 814.0000 1.0000
46.6400 805.0000 1.0000
46.6500 795.0000 1.0000
46.6600 801.0000 1.0000
46.6700 814.0000 1.0000
46.6800 847.0000 1.0000
46.6900 806.0000 1.0000
46.7000 848.0000 1.0000
46.7100 838.0000 1.0000
46.7200 834.0000 1.0000
46.7300 847.0000 1.0000
46.7400 791.0000 1.0000
46.7500 842.0000 1.0000
46.7600 808.0000 1.0000
46.7700 776.0000 1.0000
46.7800 744.0000 1.0000
46.7900 773.0000 1.0000
46.8000 754.0000 1.0000
46.8100 770.0000 1.0000
46.8200 821.0000 1.0000
46.8300 814.0000 1.0000
46.8400 807.0000 1.0000
46.8500 798.0000 1.0000
46.8600 801.0000 1.0000
46.8700 832.0000 1.0000
46.8800 785.0000 1.0000
46.8900 768.0000 1.0000
46.9000 836.0000 1.0000
46.9100 799.0000 1.0000
46.9200 846.0000 1.0000
46.9300 834.0000 1.0000
46.9400 794.0000 1.0000
46.9500 799.0000 1.0000
46.9600 827.0000 1.0000
46.9700 839.0000 1.0000
46.9800 836.0000 1.0000
46.9900 836.0000 1.0000
47.0000 822.0000 1.0000
47.0100 868.0000 1.0000
47.0200 866.0000 1.0000
47.0300 801.0000 1.0000
47.0400 832.0000 1.0000
47.0500 798.0000 1.0000
47.0600 826.0000 1.0000
47.0700 806.0000 1.0000
47.0800 844.0000 1.0000
47.0900 834.0000 1.0000
47.1000 804.0000 1.0000
47.1100 826.0000 1.0000
47.1200 807.0000 1.0000
47.1300 773.0000 1.0000
47.1400 789.0000 1.0000
47.1500 784.0000 1.0000
47.1600 811.0000 1.0000
47.1700 817.0000 1.0000
47.1800 792.0000 1.0000
47.1900 796.0000 1.0000
47.2000 777.0000 1.0000
47.2100 793.0000 1.0000
47.2200 768.0000 1.0000
47.2300 736.0000 1.0000
47.2400 804.0000 1.0000
47.2500 795.0000 1.0000
47.2600 744.0000 1.0000
47.2700 802.0000 1.0000
47.2800 788.0000 1.0000
47.2900 775.0000 1.0000
47.3000 808.0000 1.0000
47.3100 801.0000 1.0000
47.3200 815.0000 1.0000
47.3300 794.0000 1.0000
47.3400 858.0000 1.0000
47.3500 786.0000 1.0000
47.3600 803.0000 1.0000
47.3700 815.0000 1.0000
47.3800 739.0000 1.0000
47.3900 784.0000 1.0000
47.4000 806.0000 1.0000
47.4100 791.0000 1.0000
47.4200 788.0000 1.0000
47.4300 791.0000 1.0000
47.4400 783.0000 1.0000
47.4500 795.0000 1.0000
47.4600 832.0000 1.0000
47.4700 806.0000 1.0000
47.4800 823.0000 1.0000
47.4900 798.0000 1.0000
47.5000 782.0000 1.0000
47.5100 781.0000 1.0000
47.5200 746.0000 1.0000
47.5300 812.0000 1.0000
47.5400 778.0000 1.0000
47.5500 807.0000 1.0000
47.5600 801.0000 1.0000
47.5700 769.0000 1.0000
47.5800 835.0000 1.0000
47.5900 775.0000 1.0000
47.6000 798.0000 1.0000
47.6100 796.0000 1.0000
47.6200 820.0000 1.0000
47.6300 794.0000 1.0000
47.6400 791.0000 1.0000
47.6500 804.0000 1.0000
47.6600 828.0000 1.0000
47.6700 794.0000 1.0000
47.6800 814.0000 1.0000
47.6900 813.0000 1.0000
47.7000 797.0000 1.0000
47.7100 778.0000 1.0000
47.7200 780.0000 1.0000
47.7300 754.0000 1.0000
47.7400 768.0000 1.0000
47.7500 819.0000 1.0000
47.7600 756.0000 1.0000
47.7700 777.0000 1.0000
47.7800 762.0000 1.0000
47.7900 762.0000 1.0000
47.8000 790.0000 1.0000
47.8100 814.0000 1.0000
47.8200 794.0000 1.0000
47.8300 777.0000 1.0000
47.8400 769.0000 1.0000
47.8500 770.0000 1.0000
47.8600 806.0000 1.0000
47.8700 730.0000 1.0000
47.8800 826.0000 1.0000
47.8900 780.0000 1.0000
47.9000 788.0000 1.0000
47.9100 762.0000 1.0000
47.9200 739.0000 1.0000
47.9300 787.0000 1.0000
47.9400 781.0000 1.0000
47.9500 814.0000 1.0000
47.9600 746.0000 1.0000
47.9700 770.0000 1.0000
47.9800 766.0000 1.0000
47.9900 780.0000 1.0000
48.0000 782.0000 1.0000
48.0100 810.0000 1.0000
48.0200 818.0000 1.0000
48.0300 835.0000 1.0000
48.0400 774.0000 1.0000
48.0500 793.0000 1.0000
48.0600 777.0000 1.0000
48.0700 802.0000 1.0000
48.0800 759.0000 1.0000
48.0900 778.0000 1.0000
48.1000 753.0000 1.0000
48.1100 760.0000 1.0000
48.1200 771.0000 1.0000
48.1300 763.0000 1.0000
48.1400 757.0000 1.0000
48.1500 739.0000 1.0000
48.1600 765.0000 1.0000
48.1700 783.0000 1.0000
48.1800 743.0000 1.0000
48.1900 787.0000 1.0000
48.2000 758.0000 1.0000
48.2100 771.0000 1.0000
48.2200 775.0000 1.0000
48.2300 751.0000 1.0000
48.2400 769.0000 1.0000
48.2500 754.0000 1.0000
48.2600 747.0000 1.0000
48.2700 750.0000 1.0000
48.2800 791.0000 1.0000
48.2900 813.0000 1.0000
48.3000 835.0000 1.0000
48.3100 787.0000 1.0000
48.3200 767.0000 1.0000
48.3300 820.0000 1.0000
48.3400 748.0000 1.0000
48.3500 744.0000 1.0000
48.3600 801.0000 1.0000
48.3700 792.0000 1.0000
48.3800 788.0000 1.0000
48.3900 780.0000 1.0000
48.4000 810.0000 1.0000
48.4100 781.0000 1.0000
48.4200 784.0000 1.0000
48.4300 731.0000 1.0000
48.4400 742.0000 1.0000
48.4500 740.0000 1.0000
48.4600 804.0000 1.0000
48.4700 741.0000 1.0000
48.4800 738.0000 1.0000
48.4900 792.0000 1.0000
48.5000 774.0000 1.0000
48.5100 792.0000 1.0000
48.5200 753.0000 1.0000
48.5300 745.0000 1.0000
48.5400 757.0000 1.0000
48.5500 784.0000 1.0000
48.5600 772.0000 1.0000
48.5700 757.0000 1.0000
48.5800 766.0000 1.0000
48.5900 749.0000 1.0000
48.6000 773.0000 1.0000
48.6100 739.0000 1.0000
48.6200 789.0000 1.0000
48.6300 796.0000 1.0000
48.6400 786.0000 1.0000
48.6500 753.0000 1.0000
48.6600 741.0000 1.0000
48.6700 742.0000 1.0000
48.6800 747.0000 1.0000
48.6900 745.0000 1.0000
48.7000 717.0000 1.0000
48.7100 746.0000 1.0000
48.7200 769.0000 1.0000
48.7300 785.0000 1.0000
48.7400 789.0000 1.0000
48.7500 739.0000 1.0000
48.7600 763.0000 1.0000
48.7700 749.0000 1.0000
48.7800 749.0000 1.0000
48.7900 692.0000 1.0000
48.8000 749.0000 1.0000
48.8100 752.0000 1.0000
48.8200 749.0000 1.0000
48.8300 767.0000 1.0000
48.8400 767.0000 1.0000
48.8500 775.0000 1.0000
48.8600 767.0000 1.0000
48.8700 776.0000 1.0000
48.8800 762.0000 1.0000
48.8900 743.0000 1.0000
48.9000 755.0000 1.0000
48.9100 759.0000 1.0000
48.9200 792.0000 1.0000
48.9300 744.0000 1.0000
48.9400 755.0000 1.0000
48.9500 754.0000 1.0000
48.9600 765.0000 1.0000
48.9700 755.0000 1.0000
48.9800 751.0000 1.0000
48.9900 711.0000 1.0000
49.0000 735.0000 1.0000
49.0100 737.0000 1.0000
49.0200 765.0000 1.0000
49.0300 766.0000 1.0000
49.0400 757.0000 1.0000
49.0500 773.0000 1.0000
49.0600 769.0000 1.0000
49.0700 789.0000 1.0000
49.0800 758.0000 1.0000
49.0900 713.0000 1.0000
49.1000 773.0000 1.0000
49.1100 807.0000 1.0000
49.1200 768.0000 1.0000
49.1300 762.0000 1.0000
49.1400 752.0000 1.0000
49.1500 719.0000 1.0000
49.1600 740.0000 1.0000
49.1700 746.0000 1.0000
49.1800 729.0000 1.0000
49.1900 742.0000 1.0000
49.2000 763.0000 1.0000
49.2100 757.0000 1.0000
49.2200 760.0000 1.0000
49.2300 734.0000 1.0000
49.2400 709.0000 1.0000
49.2500 762.0000 1.0000
49.2600 741.0000 1.0000
49.2700 761.0000 1.0000
49.2800 726.0000 1.0000
49.2900 753.0000 1.0000
49.3000 751.0000 1.0000
49.3100 755.0000 1.0000
49.3200 716.0000 1.0000
49.3300 781.0000 1.0000
49.3400 749.0000 1.0000
49.3500 727.0000 1.0000
49.3600 785.0000 1.0000
49.3700 760.0000 1.0000
49.3800 706.0000 1.0000
49.3900 727.0000 1.0000
49.4000 778.0000 1.0000
49.4100 752.0000 1.0000
49.4200 744.0000 1.0000
49.4300 747.0000 1.0000
49.4400 747.0000 1.0000
49.4500 742.0000 1.0000
49.4600 777.0000 1.0000
49.4700 764.0000 1.0000
49.4800 748.0000 1.0000
49.4900 749.0000 1.0000
49.5000 736.0000 1.0000
49.5100 728.0000 1.0000
49.5200 752.0000 1.0000
49.5300 748.0000 1.0000
49.5400 759.0000 1.0000
49.5500 746.0000 1.0000
49.5600 747.0000 1.0000
49.5700 757.0000 1.0000
49.5800 792.0000 1.0000
49.5900 758.0000 1.0000
49.6000 768.0000 1.0000
49.6100 779.0000 1.0000
49.6200 765.0000 1.0000
49.6300 763.0000 1.0000
49.6400 727.0000 1.0000
49.6500 746.0000 1.0000
49.6600 718.0000 1.0000
49.6700 767.0000 1.0000
49.6800 747.0000 1.0000
49.6900 722.0000 1.0000
49.7000 739.0000 1.0000
49.7100 709.0000 1.0000
49.7200 767.0000 1.0000
49.7300 815.0000 1.0000
49.7400 778.0000 1.0000
49.7500 759.0000 1.0000
49.7600 736.0000 1.0000
49.7700 684.0000 1.0000
49.7800 798.0000 1.0000
49.7900 726.0000 1.0000
49.8000 786.0000 1.0000
49.8100 751.0000 1.0000
49.8200 764.0000 1.0000
49.8300 740.0000 1.0000
49.8400 745.0000 1.0000
49.8500 739.0000 1.0000
49.8600 762.0000 1.0000
49.8700 765.0000 1.0000
49.8800 720.0000 1.0000
49.8900 746.0000 1.0000
49.9000 736.0000 1.0000
49.9100 753.0000 1.0000
49.9200 750.0000 1.0000
49.9300 747.0000 1.0000
49.9400 748.0000 1.0000
49.9500 762.0000 1.0000
49.9600 747.0000 1.0000
49.9700 729.0000 1.0000
49.9800 752.0000 1.0000
49.9900 700.0000 1.0000
50.0000 713.0000 1.0000
50.0100 716.0000 1.0000
50.0200 707.0000 1.0000
50.0300 776.0000 1.0000
50.0400 744.0000 1.0000
50.0500 668.0000 1.0000
50.0600 724.0000 1.0000
50.0700 737.0000 1.0000
50.0800 718.0000 1.0000
50.0900 757.0000 1.0000
50.1000 742.0000 1.0000
50.1100 725.0000 1.0000
50.1200 741.0000 1.0000
50.1300 777.0000 1.0000
50.1400 778.0000 1.0000
50.1500 804.0000 1.0000
50.1600 741.0000 1.0000
50.1700 768.0000 1.0000
50.1800 784.0000 1.0000
50.1900 748.0000 1.0000
50.2000 755.0000 1.0000
50.2100 788.0000 1.0000
50.2200 819.0000 1.0000
50.2300 782.0000 1.0000
50.2400 766.0000 1.0000
50.2500 777.0000 1.0000
50.2600 760.0000 1.0000
50.2700 758.0000 1.0000
50.2800 783.0000 1.0000
50.2900 749.0000 1.0000
50.3000 718.0000 1.0000
50.3100 716.0000 1.0000
50.3200 742.0000 1.0000
50.3300 787.0000 1.0000
50.3400 773.0000 1.0000
50.3500 727.0000 1.0000
50.3600 766.0000 1.0000
50.3700 766.0000 1.0000
50.3800 781.0000 1.0000
50.3900 786.0000 1.0000
50.4000 765.0000 1.0000
50.4100 793.0000 1.0000
50.4200 805.0000 1.0000
50.4300 761.0000 1.0000
50.4400 770.0000 1.0000
50.4500 746.0000 1.0000
50.4600 745.0000 1.0000
50.4700 715.0000 1.0000
50.4800 737.0000 1.0000
50.4900 774.0000 1.0000
50.5000 740.0000 1.0000
50.5100 723.0000 1.0000
50.5200 757.0000 1.0000
50.5300 752.0000 1.0000
50.5400 798.0000 1.0000
50.5500 763.0000 1.0000
50.5600 767.0000 1.0000
50.5700 759.0000 1.0000
50.5800 770.0000 1.0000
50.5900 823.0000 1.0000
50.6000 778.0000 1.0000
50.6100 760.0000 1.0000
50.6200 760.0000 1.0000
50.6300 764.0000 1.0000
50.6400 767.0000 1.0000
50.6500 793.0000 1.0000
50.6600 781.0000 1.0000
50.6700 778.0000 1.0000
50.6800 769.0000 1.0000
50.6900 733.0000 1.0000
50.7000 771.0000 1.0000
50.7100 767.0000 1.0000
50.7200 755.0000 1.0000
50.7300 781.0000 1.0000
50.7400 760.0000 1.0000
50.7500 752.0000 1.0000
50.7600 771.0000 1.0000
50.7700 753.0000 1.0000
50.7800 754.0000 1.0000
50.7900 781.0000 1.0000
50.8000 802.0000 1.0000
50.8100 752.0000 1.0000
50.8200 722.0000 1.0000
50.8300 799.0000 1.0000
50.8400 778.0000 1.0000
50.8500 732.0000 1.0000
50.8600 767.0000 1.0000
50.8700 768.0000 1.0000
50.8800 757.0000 1.0000
50.8900 793.0000 1.0000
50.9000 784.0000 1.0000
50.9100 771.0000 1.0000
50.9200 799.0000 1.0000
50.9300 774.0000 1.0000
50.9400 767.0000 1.0000
50.9500 749.0000 1.0000
50.9600 762.0000 1.0000
50.9700 712.0000 1.0000
50.9800 763.0000 1.0000
50.9900 765.0000 1.0000
51.0000 749.0000 1.0000
51.0100 791.0000 1.0000
51.0200 736.0000 1.0000
51.0300 777.0000 1.0000
51.0400 779.0000 1.0000
51.0500 821.0000 1.0000
51.0600 787.0000 1.0000
51.0700 785.0000 1.0000
51.0800 734.0000 1.0000
51.0900 750.0000 1.0000
51.1000 814.0000 1.0000
51.1100 771.0000 1.0000
51.1200 770.0000 1.0000
51.1300 773.0000 1.0000
51.1400 794.0000 1.0000
51.1500 771.0000 1.0000
51.1600 729.0000 1.0000
51.1700 797.0000 1.0000
51.1800 740.0000 1.0000
51.1900 741.0000 1.0000
51.2000 758.0000 1.0000
51.2100 723.0000 1.0000
51.2200 755.0000 1.0000
51.2300 794.0000 1.0000
51.2400 785.0000 1.0000
51.2500 731.0000 1.0000
51.2600 746.0000 1.0000
51.2700 798.0000 1.0000
51.2800 761.0000 1.0000
51.2900 744.0000 1.0000
51.3000 765.0000 1.0000
51.3100 756.0000 1.0000
51.3200 744.0000 1.0000
51.3300 757.0000 1.0000
51.3400 803.0000 1.0000
51.3500 733.0000 1.0000
51.3600 761.0000 1.0000
51.3700 776.0000 1.0000
51.3800 798.0000 1.0000
51.3900 775.0000 1.0000
51.4000 824.0000 1.0000
51.4100 808.0000 1.0000
51.4200 805.0000 1.0000
51.4300 790.0000 1.0000
51.4400 776.0000 1.0000
51.4500 775.0000 1.0000
51.4600 828.0000 1.0000
51.4700 809.0000 1.0000
51.4800 750.0000 1.0000
51.4900 790.0000 1.0000
51.5000 767.0000 1.0000
51.5100 749.0000 1.0000
51.5200 781.0000 1.0000
51.5300 788.0000 1.0000
51.5400 774.0000 1.0000
51.5500 788.0000 1.0000
51.5600 844.0000 1.0000
51.5700 827.0000 1.0000
51.5800 717.0000 1.0000
51.5900 809.0000 1.0000
51.6000 840.0000 1.0000
51.6100 792.0000 1.0000
51.6200 773.0000 1.0000
51.6300 820.0000 1.0000
51.6400 778.0000 1.0000
51.6500 789.0000 1.0000
51.6600 848.0000 1.0000
51.6700 846.0000 1.0000
51.6800 800.0000 1.0000
51.6900 807.0000 1.0000
51.7000 830.0000 1.0000
51.7100 798.0000 1.0000
51.7200 798.0000 1.0000
51.7300 843.0000 1.0000
51.7400 832.0000 1.0000
51.7500 808.0000 1.0000
51.7600 828.0000 1.0000
51.7700 906.0000 1.0000
51.7800 828.0000 1.0000
51.7900 860.0000 1.0000
51.8000 794.0000 1.0000
51.8100 841.0000 1.0000
51.8200 903.0000 1.0000
51.8300 900.0000 1.0000
51.8400 896.0000 1.0000
51.8500 919.0000 1.0000
51.8600 899.0000 1.0000
51.8700 954.0000 1.0000
51.8800 961.0000 1.0000
51.8900 1017.0000 1.0000
51.9000 1017.0000 1.0000
51.9100 1044.0000 1.0000
51.9200 1011.0000 1.0000
51.9300 1062.0000 1.0000
51.9400 1148.0000 1.0000
51.9500 1128.0000 1.0000
51.9600 1121.0000 1.0000
51.9700 1175.0000 1.0000
51.9800 1186.0000 1.0000
51.9900 1276.0000 1.0000
52.0000 1299.0000 1.0000
52.0100 1347.0000 1.0000
52.0200 1382.0000 1.0000
52.0300 1443.0000 1.0000
52.0400 1521.0000 1.0000
52.0500 1633.0000 1.0000
52.0600 1684.0000 1.0000
52.0700 1722.0000 1.0000
52.0800 1870.0000 1.0000
52.0900 1986.0000 1.0000
52.1000 2119.0000 1.0000
52.1100 2271.0000 1.0000
52.1200 2615.0000 1.0000
52.1300 2715.0000 1.0000
52.1400 2897.0000 1.0000
52.1500 3125.0000 1.0000
52.1600 3481.0000 1.0000
52.1700 3819.0000 1.0000
52.1800 4235.0000 1.0000
52.1900 4496.0000 1.0000
52.2000 4703.0000 1.0000
52.2100 5016.0000 1.0000
52.2200 5125.0000 1.0000
52.2300 5240.0000 1.0000
52.2400 5347.0000 1.0000
52.2500 5374.0000 1.0000
52.2600 5178.0000 1.0000
52.2700 4970.0000 1.0000
52.2800 4875.0000 1.0000
52.2900 4817.0000 1.0000
52.3000 4520.0000 1.0000
52.3100 4330.0000 1.0000
52.3200 4328.0000 1.0000
52.3300 4281.0000 1.0000
52.3400 4177.0000 1.0000
52.3500 4197.0000 1.0000
52.3600 4021.0000 1.0000
52.3700 3885.0000 1.0000
52.3800 3722.0000 1.0000
52.3900 3598.0000 1.0000
52.4000 3457.0000 1.0000
52.4100 3219.0000 1.0000
52.4200 3016.0000 1.0000
52.4300 2805.0000 1.0000
52.4400 2690.0000 1.0000
52.4500 2375.0000 1.0000
52.4600 2253.0000 1.0000
52.4700 2075.0000 1.0000
52.4800 2029.0000 1.0000
52.4900 1985.0000 1.0000
52.5000 1809.0000 1.0000
52.5100 1768.0000 1.0000
52.5200 1641.0000 1.0000
52.5300 1629.0000 1.0000
52.5400 1522.0000 1.0000
52.5500 1413.0000 1.0000
52.5600 1370.0000 1.0000
52.5700 1331.0000 1.0000
52.5800 1294.0000 1.0000
52.5900 1286.0000 1.0000
52.6000 1232.0000 1.0000
52.6100 1139.0000 1.0000
52.6200 1120.0000 1.0000
52.6300 1146.0000 1.0000
52.6400 1139.0000 1.0000
52.6500 1099.0000 1.0000
52.6600 1044.0000 1.0000
52.6700 985.0000 1.0000
52.6800 1020.0000 1.0000
52.6900 974.0000 1.0000
52.7000 942.0000 1.0000
52.7100 901.0000 1.0000
52.7200 918.0000 1.0000
52.7300 899.0000 1.0000
52.7400 930.0000 1.0000
52.7500 916.0000 1.0000
52.7600 888.0000 1.0000
52.7700 879.0000 1.0000
52.7800 896.0000 1.0000
52.7900 890.0000 1.0000
52.8000 876.0000 1.0000
52.8100 822.0000 1.0000
52.8200 865.0000 1.0000
52.8300 853.0000 1.0000
52.8400 861.0000 1.0000
52.8500 858.0000 1.0000
52.8600 784.0000 1.0000
52.8700 796.0000 1.0000
52.8800 809.0000 1.0000
52.8900 783.0000 1.0000
52.9000 844.0000 1.0000
52.9100 807.0000 1.0000
52.9200 802.0000 1.0000
52.9300 782.0000 1.0000
52.9400 791.0000 1.0000
52.9500 814.0000 1.0000
52.9600 816.0000 1.0000
52.9700 782.0000 1.0000
52.9800 814.0000 1.0000
52.9900 841.0000 1.0000
53.0000 813.0000 1.0000
53.0100 810.0000 1.0000
53.0200 810.0000 1.0000
53.0300 805.0000 1.0000
53.0400 801.0000 1.0000
53.0500 786.0000 1.0000
53.0600 776.0000 1.0000
53.0700 747.0000 1.0000
53.0800 811.0000 1.0000
53.0900 741.0000 1.0000
53.1000 811.0000 1.0000
53.1100 766.0000 1.0000
53.1200 796.0000 1.0000
53.1300 748.0000 1.0000
53.1400 831.0000 1.0000
53.1500 747.0000 1.0000
53.1600 771.0000 1.0000
53.1700 770.0000 1.0000
53.1800 785.0000 1.0000
53.1900 814.0000 1.0000
53.2000 743.0000 1.0000
53.2100 760.0000 1.0000
53.2200 760.0000 1.0000
53.2300 761.0000 1.0000
53.2400 771.0000 1.0000
53.2500 762.0000 1.0000
53.2600 808.0000 1.0000
53.2700 778.0000 1.0000
53.2800 813.0000 1.0000
53.2900 745.0000 1.0000
53.3000 719.0000 1.0000
53.3100 775.0000 1.0000
53.3200 788.0000 1.0000
53.3300 726.0000 1.0000
53.3400 801.0000 1.0000
53.3500 772.0000 1.0000
53.3600 726.0000 1.0000
53.3700 776.0000 1.0000
53.3800 721.0000 1.0000
53.3900 776.0000 1.0000
53.4000 774.0000 1.0000
53.4100 758.0000 1.0000
53.4200 757.0000 1.0000
53.4300 748.0000 1.0000
53.4400 726.0000 1.0000
53.4500 716.0000 1.0000
53.4600 707.0000 1.0000
53.4700 760.0000 1.0000
53.4800 759.0000 1.0000
53.4900 744.0000 1.0000
53.5000 752.0000 1.0000
53.5100 726.0000 1.0000
53.5200 758.0000 1.0000
53.5300 743.0000 1.0000
53.5400 727.0000 1.0000
53.5500 738.0000 1.0000
53.5600 735.0000 1.0000
53.5700 769.0000 1.0000
53.5800 796.0000 1.0000
53.5900 741.0000 1.0000
53.6000 712.0000 1.0000
53.6100 736.0000 1.0000
53.6200 732.0000 1.0000
53.6300 770.0000 1.0000
53.6400 729.0000 1.0000
53.6500 732.0000 1.0000
53.6600 717.0000 1.0000
53.6700 742.0000 1.0000
53.6800 738.0000 1.0000
53.6900 754.0000 1.0000
53.7000 828.0000 1.0000
53.7100 739.0000 1.0000
53.7200 743.0000 1.0000
53.7300 755.0000 1.0000
53.7400 751.0000 1.0000
53.7500 766.0000 1.0000
53.7600 785.0000 1.0000
53.7700 749.0000 1.0000
53.7800 722.0000 1.0000
53.7900 728.0000 1.0000
53.8000 739.0000 1.0000
53.8100 751.0000 1.0000
53.8200 776.0000 1.0000
53.8300 719.0000 1.0000
53.8400 749.0000 1.0000
53.8500 726.0000 1.0000
53.8600 728.0000 1.0000
53.8700 740.0000 1.0000
53.8800 743.0000 1.0000
53.8900 739.0000 1.0000
53.9000 759.0000 1.0000
53.9100 736.0000 1.0000
53.9200 726.0000 1.0000
53.9300 710.0000 1.0000
53.9400 736.0000 1.0000
53.9500 764.0000 1.0000
53.9600 728.0000 1.0000
53.9700 757.0000 1.0000
53.9800 762.0000 1.0000
53.9900 702.0000 1.0000
54.0000 734.0000 1.0000
54.0100 785.0000 1.0000
54.0200 715.0000 1.0000
54.0300 770.0000 1.0000
54.0400 760.0000 1.0000
54.0500 739.0000 1.0000
54.0600 719.0000 1.0000
54.0700 740.0000 1.0000
54.0800 729.0000 1.0000
54.0900 736.0000 1.0000
54.1000 744.0000 1.0000
54.1100 738.0000 1.0000
54.1200 726.0000 1.0000
54.1300 719.0000 1.0000
54.1400 764.0000 1.0000
54.1500 741.0000 1.0000
54.1600 738.0000 1.0000
54.1700 755.0000 1.0000
54.1800 729.0000 1.0000
54.1900 779.0000 1.0000
54.2000 757.0000 1.0000
54.2100 743.0000 1.0000
54.2200 768.0000 1.0000
54.2300 721.0000 1.0000
54.2400 697.0000 1.0000
54.2500 724.0000 1.0000
54.2600 780.0000 1.0000
54.2700 713.0000 1.0000
54.2800 720.0000 1.0000
54.2900 700.0000 1.0000
54.3000 721.0000 1.0000
54.3100 723.0000 1.0000
54.3200 725.0000 1.0000
54.3300 783.0000 1.0000
54.3400 724.0000 1.0000
54.3500 741.0000 1.0000
54.3600 733.0000 1.0000
54.3700 750.0000 1.0000
54.3800 749.0000 1.0000
54.3900 757.0000 1.0000
54.4000 758.0000 1.0000
54.4100 757.0000 1.0000
54.4200 695.0000 1.0000
54.4300 725.0000 1.0000
54.4400 737.0000 1.0000
54.4500 706.0000 1.0000
54.4600 765.0000 1.0000
54.4700 746.0000 1.0000
54.4800 698.0000 1.0000
54.4900 740.0000 1.0000
54.5000 744.0000 1.0000
54.5100 699.0000 1.0000
54.5200 746.0000 1.0000
54.5300 787.0000 1.0000
54.5400 770.0000 1.0000
54.5500 747.0000 1.0000
54.5600 780.0000 1.0000
54.5700 742.0000 1.0000
54.5800 786.0000 1.0000
54.5900 755.0000 1.0000
54.6000 766.0000 1.0000
54.6100 777.0000 1.0000
54.6200 732.0000 1.0000
54.6300 728.0000 1.0000
54.6400 751.0000 1.0000
54.6500 769.0000 1.0000
54.6600 708.0000 1.0000
54.6700 748.0000 1.0000
54.6800 788.0000 1.0000
54.6900 781.0000 1.0000
54.7000 766.0000 1.0000
54.7100 759.0000 1.0000
54.7200 757.0000 1.0000
54.7300 764.0000 1.0000
54.7400 757.0000 1.0000
54.7500 758.0000 1.0000
54.7600 757.0000 1.0000
54.7700 775.0000 1.0000
54.7800 773.0000 1.0000
54.7900 817.0000 1.0000
54.8000 753.0000 1.0000
54.8100 756.0000 1.0000
54.8200 769.0000 1.0000
54.8300 739.0000 1.0000
54.8400 773.0000 1.0000
54.8500 780.0000 1.0000
54.8600 738.0000 1.0000
54.8700 843.0000 1.0000
54.8800 782.0000 1.0000
54.8900 814.0000 1.0000
54.9000 770.0000 1.0000
54.9100 751.0000 1.0000
54.9200 779.0000 1.0000
54.9300 788.0000 1.0000
54.9400 800.0000 1.0000
54.9500 802.0000 1.0000
54.9600 791.0000 1.0000
54.9700 802.0000 1.0000
54.9800 848.0000 1.0000
54.9900 829.0000 1.0000
55.0000 805.0000 1.0000
55.0100 821.0000 1.0000
55.0200 832.0000 1.0000
55.0300 839.0000 1.0000
55.0400 848.0000 1.0000
55.0500 874.0000 1.0000
55.0600 867.0000 1.0000
55.0700 873.0000 1.0000
55.0800 861.0000 1.0000
55.0900 854.0000 1.0000
55.1000 920.0000 1.0000
55.1100 882.0000 1.0000
55.1200 909.0000 1.0000
55.1300 972.0000 1.0000
55.1400 948.0000 1.0000
55.1500 1023.0000 1.0000
55.1600 1005.0000 1.0000
55.1700 1079.0000 1.0000
55.1800 1009.0000 1.0000
55.1900 1078.0000 1.0000
55.2000 1099.0000 1.0000
55.2100 1109.0000 1.0000
55.2200 1119.0000 1.0000
55.2300 1125.0000 1.0000
55.2400 1151.0000 1.0000
55.2500 1176.0000 1.0000
55.2600 1188.0000 1.0000
55.2700 1174.0000 1.0000
55.2800 1122.0000 1.0000
55.2900 1130.0000 1.0000
55.3000 1165.0000 1.0000
55.3100 1198.0000 1.0000
55.3200 1145.0000 1.0000
55.3300 1148.0000 1.0000
55.3400 1142.0000 1.0000
55.3500 1113.0000 1.0000
55.3600 1129.0000 1.0000
55.3700 1081.0000 1.0000
55.3800 1047.0000 1.0000
55.3900 1137.0000 1.0000
55.4000 1046.0000 1.0000
55.4100 1042.0000 1.0000
55.4200 1052.0000 1.0000
55.4300 1061.0000 1.0000
55.4400 1047.0000 1.0000
55.4500 983.0000 1.0000
55.4600 983.0000 1.0000
55.4700 946.0000 1.0000
55.4800 950.0000 1.0000
55.4900 952.0000 1.0000
55.5000 954.0000 1.0000
55.5100 836.0000 1.0000
55.5200 874.0000 1.0000
55.5300 854.0000 1.0000
55.5400 872.0000 1.0000
55.5500 828.0000 1.0000
55.5600 846.0000 1.0000
55.5700 854.0000 1.0000
55.5800 840.0000 1.0000
55.5900 814.0000 1.0000
55.6000 796.0000 1.0000
55.6100 856.0000 1.0000
55.6200 802.0000 1.0000
55.6300 763.0000 1.0000
55.6400 802.0000 1.0000
55.6500 811.0000 1.0000
55.6600 840.0000 1.0000
55.6700 801.0000 1.0000
55.6800 814.0000 1.0000
55.6900 806.0000 1.0000
55.7000 772.0000 1.0000
55.7100 743.0000 1.0000
55.7200 779.0000 1.0000
55.7300 814.0000 1.0000
55.7400 782.0000 1.0000
55.7500 740.0000 1.0000
55.7600 762.0000 1.0000
55.7700 730.0000 1.0000
55.7800 753.0000 1.0000
55.7900 773.0000 1.0000
55.8000 697.0000 1.0000
55.8100 764.0000 1.0000
55.8200 743.0000 1.0000
55.8300 750.0000 1.0000
55.8400 743.0000 1.0000
55.8500 771.0000 1.0000
55.8600 745.0000 1.0000
55.8700 752.0000 1.0000
55.8800 761.0000 1.0000
55.8900 738.0000 1.0000
55.9000 730.0000 1.0000
55.9100 764.0000 1.0000
55.9200 748.0000 1.0000
55.9300 750.0000 1.0000
55.9400 736.0000 1.0000
55.9500 718.0000 1.0000
55.9600 741.0000 1.0000
55.9700 727.0000 1.0000
55.9800 693.0000 1.0000
55.9900 741.0000 1.0000
56.0000 758.0000 1.0000
56.0100 732.0000 1.0000
56.0200 699.0000 1.0000
56.0300 726.0000 1.0000
56.0400 725.0000 1.0000
56.0500 717.0000 1.0000
56.0600 727.0000 1.0000
56.0700 698.0000 1.0000
56.0800 727.0000 1.0000
56.0900 738.0000 1.0000
56.1000 720.0000 1.0000
56.1100 699.0000 1.0000
56.1200 705.0000 1.0000
56.1300 756.0000 1.0000
56.1400 710.0000 1.0000
56.1500 739.0000 1.0000
56.1600 760.0000 1.0000
56.1700 723.0000 1.0000
56.1800 748.0000 1.0000
56.1900 712.0000 1.0000
56.2000 747.0000 1.0000
56.2100 734.0000 1.0000
56.2200 720.0000 1.0000
56.2300 730.0000 1.0000
56.2400 718.0000 1.0000
56.2500 703.0000 1.0000
56.2600 707.0000 1.0000
56.2700 750.0000 1.0000
56.2800 767.0000 1.0000
56.2900 677.0000 1.0000
56.3000 735.0000 1.0000
56.3100 766.0000 1.0000
56.3200 753.0000 1.0000
56.3300 715.0000 1.0000
56.3400 704.0000 1.0000
56.3500 740.0000 1.0000
56.3600 696.0000 1.0000
56.3700 702.0000 1.0000
56.3800 680.0000 1.0000
56.3900 699.0000 1.0000
56.4000 694.0000 1.0000
56.4100 678.0000 1.0000
56.4200 737.0000 1.0000
56.4300 724.0000 1.0000
56.4400 712.0000 1.0000
56.4500 699.0000 1.0000
56.4600 706.0000 1.0000
56.4700 724.0000 1.0000
56.4800 718.0000 1.0000
56.4900 734.0000 1.0000
56.5000 720.0000 1.0000
56.5100 718.0000 1.0000
56.5200 725.0000 1.0000
56.5300 723.0000 1.0000
56.5400 756.0000 1.0000
56.5500 740.0000 1.0000
56.5600 702.0000 1.0000
56.5700 732.0000 1.0000
56.5800 741.0000 1.0000
56.5900 694.0000 1.0000
56.6000 639.0000 1.0000
56.6100 718.0000 1.0000
56.6200 746.0000 1.0000
56.6300 738.0000 1.0000
56.6400 766.0000 1.0000
56.6500 715.0000 1.0000
56.6600 701.0000 1.0000
56.6700 704.0000 1.0000
56.6800 719.0000 1.0000
56.6900 716.0000 1.0000
56.7000 703.0000 1.0000
56.7100 720.0000 1.0000
56.7200 703.0000 1.0000
56.7300 720.0000 1.0000
56.7400 721.0000 1.0000
56.7500 695.0000 1.0000
56.7600 730.0000 1.0000
56.7700 718.0000 1.0000
56.7800 716.0000 1.0000
56.7900 694.0000 1.0000
56.8000 706.0000 1.0000
56.8100 714.0000 1.0000
56.8200 710.0000 1.0000
56.8300 732.0000 1.0000
56.8400 659.0000 1.0000
56.8500 739.0000 1.0000
56.8600 739.0000 1.0000
56.8700 693.0000 1.0000
56.8800 679.0000 1.0000
56.8900 741.0000 1.0000
56.9000 738.0000 1.0000
56.9100 710.0000 1.0000
56.9200 716.0000 1.0000
56.9300 677.0000 1.0000
56.9400 711.0000 1.0000
56.9500 731.0000 1.0000
56.9600 718.0000 1.0000
56.9700 722.0000 1.0000
56.9800 735.0000 1.0000
56.9900 723.0000 1.0000
57.0000 716.0000 1.0000
57.0100 734.0000 1.0000
57.0200 718.0000 1.0000
57.0300 725.0000 1.0000
57.0400 740.0000 1.0000
57.0500 723.0000 1.0000
57.0600 725.0000 1.0000
57.0700 719.0000 1.0000
57.0800 753.0000 1.0000
57.0900 694.0000 1.0000
57.1000 727.0000 1.0000
57.1100 719.0000 1.0000
57.1200 715.0000 1.0000
57.1300 733.0000 1.0000
57.1400 710.0000 1.0000
57.1500 689.0000 1.0000
57.1600 687.0000 1.0000
57.1700 713.0000 1.0000
57.1800 722.0000 1.0000
57.1900 709.0000 1.0000
57.2000 720.0000 1.0000
57.2100 670.0000 1.0000
57.2200 739.0000 1.0000
57.2300 662.0000 1.0000
57.2400 726.0000 1.0000
57.2500 748.0000 1.0000
57.2600 711.0000 1.0000
57.2700 714.0000 1.0000
57.2800 733.0000 1.0000
57.2900 751.0000 1.0000
57.3000 741.0000 1.0000
57.3100 712.0000 1.0000
57.3200 708.0000 1.0000
57.3300 719.0000 1.0000
57.3400 748.0000 1.0000
57.3500 749.0000 1.0000
57.3600 697.0000 1.0000
57.3700 751.0000 1.0000
57.3800 737.0000 1.0000
57.3900 734.0000 1.0000
57.4000 705.0000 1.0000
57.4100 732.0000 1.0000
57.4200 707.0000 1.0000
57.4300 762.0000 1.0000
57.4400 770.0000 1.0000
57.4500 711.0000 1.0000
57.4600 675.0000 1.0000
57.4700 700.0000 1.0000
57.4800 715.0000 1.0000
57.4900 719.0000 1.0000
57.5000 766.0000 1.0000
57.5100 734.0000 1.0000
57.5200 746.0000 1.0000
57.5300 730.0000 1.0000
57.5400 722.0000 1.0000
57.5500 709.0000 1.0000
57.5600 712.0000 1.0000
57.5700 690.0000 1.0000
57.5800 697.0000 1.0000
57.5900 689.0000 1.0000
57.6000 750.0000 1.0000
57.6100 723.0000 1.0000
57.6200 695.0000 1.0000
57.6300 728.0000 1.0000
57.6400 671.0000 1.0000
57.6500 675.0000 1.0000
57.6600 671.0000 1.0000
57.6700 700.0000 1.0000
57.6800 719.0000 1.0000
57.6900 679.0000 1.0000
57.7000 723.0000 1.0000
57.7100 714.0000 1.0000
57.7200 702.0000 1.0000
57.7300 717.0000 1.0000
57.7400 699.0000 1.0000
57.7500 689.0000 1.0000
57.7600 699.0000 1.0000
57.7700 696.0000 1.0000
57.7800 711.0000 1.0000
57.7900 715.0000 1.0000
57.8000 693.0000 1.0000
57.8100 712.0000 1.0000
57.8200 702.0000 1.0000
57.8300 692.0000 1.0000
57.8400 705.0000 1.0000
57.8500 699.0000 1.0000
57.8600 721.0000 1.0000
57.8700 704.0000 1.0000
57.8800 661.0000 1.0000
57.8900 707.0000 1.0000
57.9000 693.0000 1.0000
57.9100 736.0000 1.0000
57.9200 704.0000 1.0000
57.9300 692.0000 1.0000
57.9400 655.0000 1.0000
57.9500 738.0000 1.0000
57.9600 728.0000 1.0000
57.9700 741.0000 1.0000
57.9800 695.0000 1.0000
57.9900 715.0000 1.0000
58.0000 686.0000 1.0000
58.0100 752.0000 1.0000
58.0200 724.0000 1.0000
58.0300 697.0000 1.0000
58.0400 712.0000 1.0000
58.0500 730.0000 1.0000
58.0600 743.0000 1.0000
58.0700 694.0000 1.0000
58.0800 677.0000 1.0000
58.0900 718.0000 1.0000
58.1000 733.0000 1.0000
58.1100 765.0000 1.0000
58.1200 720.0000 1.0000
58.1300 679.0000 1.0000
58.1400 746.0000 1.0000
58.1500 714.0000 1.0000
58.1600 691.0000 1.0000
58.1700 733.0000 1.0000
58.1800 734.0000 1.0000
58.1900 728.0000 1.0000
58.2000 712.0000 1.0000
58.2100 673.0000 1.0000
58.2200 703.0000 1.0000
58.2300 731.0000 1.0000
58.2400 661.0000 1.0000
58.2500 705.0000 1.0000
58.2600 724.0000 1.0000
58.2700 719.0000 1.0000
58.2800 741.0000 1.0000
58.2900 715.0000 1.0000
58.3000 727.0000 1.0000
58.3100 722.0000 1.0000
58.3200 699.0000 1.0000
58.3300 710.0000 1.0000
58.3400 731.0000 1.0000
58.3500 712.0000 1.0000
58.3600 764.0000 1.0000
58.3700 738.0000 1.0000
58.3800 714.0000 1.0000
58.3900 713.0000 1.0000
58.4000 715.0000 1.0000
58.4100 763.0000 1.0000
58.4200 724.0000 1.0000
58.4300 704.0000 1.0000
58.4400 699.0000 1.0000
58.4500 713.0000 1.0000
58.4600 708.0000 1.0000
58.4700 724.0000 1.0000
58.4800 713.0000 1.0000
58.4900 708.0000 1.0000
58.5000 699.0000 1.0000
58.5100 710.0000 1.0000
58.5200 709.0000 1.0000
58.5300 717.0000 1.0000
58.5400 699.0000 1.0000
58.5500 671.0000 1.0000
58.5600 713.0000 1.0000
58.5700 713.0000 1.0000
58.5800 733.0000 1.0000
58.5900 712.0000 1.0000
58.6000 698.0000 1.0000
58.6100 707.0000 1.0000
58.6200 713.0000 1.0000
58.6300 709.0000 1.0000
58.6400 718.0000 1.0000
58.6500 752.0000 1.0000
58.6600 697.0000 1.0000
58.6700 711.0000 1.0000
58.6800 718.0000 1.0000
58.6900 675.0000 1.0000
58.7000 693.0000 1.0000
58.7100 662.0000 1.0000
58.7200 680.0000 1.0000
58.7300 728.0000 1.0000
58.7400 709.0000 1.0000
58.7500 718.0000 1.0000
58.7600 694.0000 1.0000
58.7700 715.0000 1.0000
58.7800 754.0000 1.0000
58.7900 731.0000 1.0000
58.8000 705.0000 1.0000
58.8100 703.0000 1.0000
58.8200 722.0000 1.0000
58.8300 713.0000 1.0000
58.8400 709.0000 1.0000
58.8500 747.0000 1.0000
58.8600 723.0000 1.0000
58.8700 707.0000 1.0000
58.8800 719.0000 1.0000
58.8900 710.0000 1.0000
58.9000 740.0000 1.0000
58.9100 727.0000 1.0000
58.9200 741.0000 1.0000
58.9300 687.0000 1.0000
58.9400 708.0000 1.0000
58.9500 680.0000 1.0000
58.9600 694.0000 1.0000
58.9700 737.0000 1.0000
58.9800 702.0000 1.0000
58.9900 714.0000 1.0000
59.0000 727.0000 1.0000
59.0100 734.0000 1.0000
59.0200 704.0000 1.0000
59.0300 701.0000 1.0000
59.0400 703.0000 1.0000
59.0500 693.0000 1.0000
59.0600 718.0000 1.0000
59.0700 661.0000 1.0000
59.0800 712.0000 1.0000
59.0900 734.0000 1.0000
59.1000 716.0000 1.0000
59.1100 748.0000 1.0000
59.1200 727.0000 1.0000
59.1300 732.0000 1.0000
59.1400 709.0000 1.0000
59.1500 695.0000 1.0000
59.1600 664.0000 1.0000
59.1700 673.0000 1.0000
59.1800 714.0000 1.0000
59.1900 714.0000 1.0000
59.2000 709.0000 1.0000
59.2100 752.0000 1.0000
59.2200 761.0000 1.0000
59.2300 719.0000 1.0000
59.2400 694.0000 1.0000
59.2500 749.0000 1.0000
59.2600 735.0000 1.0000
59.2700 714.0000 1.0000
59.2800 692.0000 1.0000
59.2900 687.0000 1.0000
59.3000 706.0000 1.0000
59.3100 710.0000 1.0000
59.3200 683.0000 1.0000
59.3300 686.0000 1.0000
59.3400 720.0000 1.0000
59.3500 681.0000 1.0000
59.3600 699.0000 1.0000
59.3700 766.0000 1.0000
59.3800 718.0000 1.0000
59.3900 717.0000 1.0000
59.4000 691.0000 1.0000
59.4100 714.0000 1.0000
59.4200 689.0000 1.0000
59.4300 689.0000 1.0000
59.4400 732.0000 1.0000
59.4500 693.0000 1.0000
59.4600 749.0000 1.0000
59.4700 700.0000 1.0000
59.4800 673.0000 1.0000
59.4900 708.0000 1.0000
59.5000 740.0000 1.0000
59.5100 723.0000 1.0000
59.5200 689.0000 1.0000
59.5300 696.0000 1.0000
59.5400 696.0000 1.0000
59.5500 678.0000 1.0000
59.5600 688.0000 1.0000
59.5700 741.0000 1.0000
59.5800 717.0000 1.0000
59.5900 714.0000 1.0000
59.6000 667.0000 1.0000
59.6100 696.0000 1.0000
59.6200 711.0000 1.0000
59.6300 698.0000 1.0000
59.6400 685.0000 1.0000
59.6500 718.0000 1.0000
59.6600 729.0000 1.0000
59.6700 695.0000 1.0000
59.6800 726.0000 1.0000
59.6900 661.0000 1.0000
59.7000 665.0000 1.0000
59.7100 655.0000 1.0000
59.7200 735.0000 1.0000
59.7300 742.0000 1.0000
59.7400 689.0000 1.0000
59.7500 688.0000 1.0000
59.7600 686.0000 1.0000
59.7700 690.0000 1.0000
59.7800 713.0000 1.0000
59.7900 701.0000 1.0000
59.8000 710.0000 1.0000
59.8100 697.0000 1.0000
59.8200 701.0000 1.0000
59.8300 702.0000 1.0000
59.8400 675.0000 1.0000
59.8500 670.0000 1.0000
59.8600 733.0000 1.0000
59.8700 719.0000 1.0000
59.8800 690.0000 1.0000
59.8900 718.0000 1.0000
59.9000 714.0000 1.0000
59.9100 702.0000 1.0000
59.9200 717.0000 1.0000
59.9300 706.0000 1.0000
59.9400 755.0000 1.0000
59.9500 731.0000 1.0000
59.9600 700.0000 1.0000
59.9700 700.0000 1.0000
59.9800 706.0000 1.0000
59.9900 727.0000 1.0000
60.0000 666.0000 1.0000
60.0100 712.0000 1.0000
60.0200 686.0000 1.0000
60.0300 724.0000 1.0000
60.0400 694.0000 1.0000
60.0500 661.0000 1.0000
60.0600 716.0000 1.0000
60.0700 690.0000 1.0000
60.0800 710.0000 1.0000
60.0900 708.0000 1.0000
60.1000 703.0000 1.0000
60.1100 691.0000 1.0000
60.1200 681.0000 1.0000
60.1300 703.0000 1.0000
60.1400 728.0000 1.0000
60.1500 685.0000 1.0000
60.1600 730.0000 1.0000
60.1700 740.0000 1.0000
60.1800 666.0000 1.0000
60.1900 657.0000 1.0000
60.2000 680.0000 1.0000
60.2100 706.0000 1.0000
60.2200 693.0000 1.0000
60.2300 728.0000 1.0000
60.2400 683.0000 1.0000
60.2500 694.0000 1.0000
60.2600 740.0000 1.0000
60.2700 701.0000 1.0000
60.2800 704.0000 1.0000
60.2900 707.0000 1.0000
60.3000 693.0000 1.0000
60.3100 693.0000 1.0000
60.3200 690.0000 1.0000
60.3300 656.0000 1.0000
60.3400 718.0000 1.0000
60.3500 699.0000 1.0000
60.3600 698.0000 1.0000
60.3700 704.0000 1.0000
60.3800 715.0000 1.0000
60.3900 689.0000 1.0000
60.4000 728.0000 1.0000
60.4100 709.0000 1.0000
60.4200 678.0000 1.0000
60.4300 715.0000 1.0000
60.4400 684.0000 1.0000
60.4500 697.0000 1.0000
60.4600 710.0000 1.0000
60.4700 687.0000 1.0000
60.4800 704.0000 1.0000
60.4900 704.0000 1.0000
60.5000 693.0000 1.0000
60.5100 695.0000 1.0000
60.5200 687.0000 1.0000
60.5300 744.0000 1.0000
60.5400 701.0000 1.0000
60.5500 701.0000 1.0000
60.5600 744.0000 1.0000
60.5700 702.0000 1.0000
60.5800 709.0000 1.0000
60.5900 709.0000 1.0000
60.6000 724.0000 1.0000
60.6100 664.0000 1.0000
60.6200 709.0000 1.0000
60.6300 688.0000 1.0000
60.6400 716.0000 1.0000
60.6500 718.0000 1.0000
60.6600 732.0000 1.0000
60.6700 655.0000 1.0000
60.6800 723.0000 1.0000
60.6900 722.0000 1.0000
60.7000 730.0000 1.0000
60.7100 709.0000 1.0000
60.7200 767.0000 1.0000
60.7300 752.0000 1.0000
60.7400 693.0000 1.0000
60.7500 676.0000 1.0000
60.7600 707.0000 1.0000
60.7700 735.0000 1.0000
60.7800 713.0000 1.0000
60.7900 681.0000 1.0000
60.8000 734.0000 1.0000
60.8100 709.0000 1.0000
60.8200 697.0000 1.0000
60.8300 710.0000 1.0000
60.8400 730.0000 1.0000
60.8500 720.0000 1.0000
60.8600 657.0000 1.0000
60.8700 709.0000 1.0000
60.8800 683.0000 1.0000
60.8900 719.0000 1.0000
60.9000 735.0000 1.0000
60.9100 721.0000 1.0000
60.9200 709.0000 1.0000
60.9300 726.0000 1.0000
60.9400 668.0000 1.0000
60.9500 746.0000 1.0000
60.9600 728.0000 1.0000
60.9700 698.0000 1.0000
60.9800 687.0000 1.0000
60.9900 774.0000 1.0000
61.0000 731.0000 1.0000
61.0100 721.0000 1.0000
61.0200 712.0000 1.0000
61.0300 670.0000 1.0000
61.0400 691.0000 1.0000
61.0500 703.0000 1.0000
61.0600 676.0000 1.0000
61.0700 685.0000 1.0000
61.0800 693.0000 1.0000
61.0900 698.0000 1.0000
61.1000 675.0000 1.0000
61.1100 678.0000 1.0000
61.1200 704.0000 1.0000
61.1300 718.0000 1.0000
61.1400 687.0000 1.0000
61.1500 683.0000 1.0000
61.1600 727.0000 1.0000
61.1700 696.0000 1.0000
61.1800 717.0000 1.0000
61.1900 703.0000 1.0000
61.2000 681.0000 1.0000
61.2100 720.0000 1.0000
61.2200 689.0000 1.0000
61.2300 699.0000 1.0000
61.2400 708.0000 1.0000
61.2500 701.0000 1.0000
61.2600 677.0000 1.0000
61.2700 705.0000 1.0000
61.2800 666.0000 1.0000
61.2900 732.0000 1.0000
61.3000 715.0000 1.0000
61.3100 708.0000 1.0000
61.3200 740.0000 1.0000
61.3300 725.0000 1.0000
61.3400 736.0000 1.0000
61.3500 717.0000 1.0000
61.3600 701.0000 1.0000
61.3700 742.0000 1.0000
61.3800 744.0000 1.0000
61.3900 738.0000 1.0000
61.4000 710.0000 1.0000
61.4100 676.0000 1.0000
61.4200 716.0000 1.0000
61.4300 687.0000 1.0000
61.4400 716.0000 1.0000
61.4500 750.0000 1.0000
61.4600 704.0000 1.0000
61.4700 715.0000 1.0000
61.4800 745.0000 1.0000
61.4900 770.0000 1.0000
61.5000 741.0000 1.0000
61.5100 746.0000 1.0000
61.5200 763.0000 1.0000
61.5300 735.0000 1.0000
61.5400 701.0000 1.0000
61.5500 732.0000 1.0000
61.5600 738.0000 1.0000
61.5700 743.0000 1.0000
61.5800 752.0000 1.0000
61.5900 706.0000 1.0000
61.6000 758.0000 1.0000
61.6100 794.0000 1.0000
61.6200 727.0000 1.0000
61.6300 722.0000 1.0000
61.6400 722.0000 1.0000
61.6500 763.0000 1.0000
61.6600 761.0000 1.0000
61.6700 750.0000 1.0000
61.6800 740.0000 1.0000
61.6900 755.0000 1.0000
61.7000 750.0000 1.0000
61.7100 743.0000 1.0000
61.7200 749.0000 1.0000
61.7300 795.0000 1.0000
61.7400 802.0000 1.0000
61.7500 772.0000 1.0000
61.7600 788.0000 1.0000
61.7700 723.0000 1.0000
61.7800 742.0000 1.0000
61.7900 779.0000 1.0000
61.8000 794.0000 1.0000
61.8100 771.0000 1.0000
61.8200 781.0000 1.0000
61.8300 788.0000 1.0000
61.8400 786.0000 1.0000
61.8500 789.0000 1.0000
61.8600 808.0000 1.0000
61.8700 804.0000 1.0000
61.8800 846.0000 1.0000
61.8900 850.0000 1.0000
61.9000 819.0000 1.0000
61.9100 854.0000 1.0000
61.9200 858.0000 1.0000
61.9300 848.0000 1.0000
61.9400 862.0000 1.0000
61.9500 901.0000 1.0000
61.9600 877.0000 1.0000
61.9700 948.0000 1.0000
61.9800 938.0000 1.0000
61.9900 955.0000 1.0000
62.0000 927.0000 1.0000
62.0100 961.0000 1.0000
62.0200 1050.0000 1.0000
62.0300 1072.0000 1.0000
62.0400 1089.0000 1.0000
62.0500 1074.0000 1.0000
62.0600 1100.0000 1.0000
62.0700 1104.0000 1.0000
62.0800 1127.0000 1.0000
62.0900 1184.0000 1.0000
62.1000 1225.0000 1.0000
62.1100 1278.0000 1.0000
62.1200 1289.0000 1.0000
62.1300 1344.0000 1.0000
62.1400 1402.0000 1.0000
62.1500 1411.0000 1.0000
62.1600 1526.0000 1.0000
62.1700 1514.0000 1.0000
62.1800 1537.0000 1.0000
62.1900 1534.0000 1.0000
62.2000 1658.0000 1.0000
62.2100 1650.0000 1.0000
62.2200 1735.0000 1.0000
62.2300 1684.0000 1.0000
62.2400 1704.0000 1.0000
62.2500 1721.0000 1.0000
62.2600 1735.0000 1.0000
62.2700 1805.0000 1.0000
62.2800 1757.0000 1.0000
62.2900 1771.0000 1.0000
62.3000 1751.0000 1.0000
62.3100 1872.0000 1.0000
62.3200 1763.0000 1.0000
62.3300 1704.0000 1.0000
62.3400 1662.0000 1.0000
62.3500 1676.0000 1.0000
62.3600 1650.0000 1.0000
62.3700 1658.0000 1.0000
62.3800 1596.0000 1.0000
62.3900 1641.0000 1.0000
62.4000 1615.0000 1.0000
62.4100 1555.0000 1.0000
62.4200 1583.0000 1.0000
62.4300 1474.0000 1.0000
62.4400 1525.0000 1.0000
62.4500 1443.0000 1.0000
62.4600 1402.0000 1.0000
62.4700 1460.0000 1.0000
62.4800 1459.0000 1.0000
62.4900 1349.0000 1.0000
62.5000 1311.0000 1.0000
62.5100 1267.0000 1.0000
62.5200 1239.0000 1.0000
62.5300 1173.0000 1.0000
62.5400 1166.0000 1.0000
62.5500 1124.0000 1.0000
62.5600 1148.0000 1.0000
62.5700 1117.0000 1.0000
62.5800 1068.0000 1.0000
62.5900 1087.0000 1.0000
62.6000 1084.0000 1.0000
62.6100 1048.0000 1.0000
62.6200 1041.0000 1.0000
62.6300 1013.0000 1.0000
62.6400 1042.0000 1.0000
62.6500 975.0000 1.0000
62.6600 976.0000 1.0000
62.6700 929.0000 1.0000
62.6800 959.0000 1.0000
62.6900 955.0000 1.0000
62.7000 965.0000 1.0000
62.7100 914.0000 1.0000
62.7200 910.0000 1.0000
62.7300 877.0000 1.0000
62.7400 876.0000 1.0000
62.7500 883.0000 1.0000
62.7600 883.0000 1.0000
62.7700 879.0000 1.0000
62.7800 797.0000 1.0000
62.7900 816.0000 1.0000
62.8000 834.0000 1.0000
62.8100 849.0000 1.0000
62.8200 855.0000 1.0000
62.8300 813.0000 1.0000
62.8400 813.0000 1.0000
62.8500 787.0000 1.0000
62.8600 830.0000 1.0000
62.8700 791.0000 1.0000
62.8800 797.0000 1.0000
62.8900 771.0000 1.0000
62.9000 807.0000 1.0000
62.9100 757.0000 1.0000
62.9200 774.0000 1.0000
62.9300 788.0000 1.0000
62.9400 742.0000 1.0000
62.9500 767.0000 1.0000
62.9600 768.0000 1.0000
62.9700 815.0000 1.0000
62.9800 745.0000 1.0000
62.9900 771.0000 1.0000
63.0000 785.0000 1.0000
63.0100 810.0000 1.0000
63.0200 777.0000 1.0000
63.0300 805.0000 1.0000
63.0400 779.0000 1.0000
63.0500 742.0000 1.0000
63.0600 772.0000 1.0000
63.0700 805.0000 1.0000
63.0800 803.0000 1.0000
63.0900 763.0000 1.0000
63.1000 776.0000 1.0000
63.1100 739.0000 1.0000
63.1200 745.0000 1.0000
63.1300 767.0000 1.0000
63.1400 752.0000 1.0000
63.1500 749.0000 1.0000
63.1600 763.0000 1.0000
63.1700 768.0000 1.0000
63.1800 775.0000 1.0000
63.1900 814.0000 1.0000
63.2000 728.0000 1.0000
63.2100 704.0000 1.0000
63.2200 740.0000 1.0000
63.2300 770.0000 1.0000
63.2400 746.0000 1.0000
63.2500 745.0000 1.0000
63.2600 734.0000 1.0000
63.2700 743.0000 1.0000
63.2800 765.0000 1.0000
63.2900 719.0000 1.0000
63.3000 708.0000 1.0000
63.3100 724.0000 1.0000
63.3200 728.0000 1.0000
63.3300 671.0000 1.0000
63.3400 728.0000 1.0000
63.3500 674.0000 1.0000
63.3600 731.0000 1.0000
63.3700 735.0000 1.0000
63.3800 677.0000 1.0000
63.3900 691.0000 1.0000
63.4000 726.0000 1.0000
63.4100 756.0000 1.0000
63.4200 773.0000 1.0000
63.4300 719.0000 1.0000
63.4400 718.0000 1.0000
63.4500 714.0000 1.0000
63.4600 707.0000 1.0000
63.4700 733.0000 1.0000
63.4800 713.0000 1.0000
63.4900 668.0000 1.0000
63.5000 653.0000 1.0000
63.5100 742.0000 1.0000
63.5200 732.0000 1.0000
63.5300 727.0000 1.0000
63.5400 747.0000 1.0000
63.5500 729.0000 1.0000
63.5600 724.0000 1.0000
63.5700 739.0000 1.0000
63.5800 688.0000 1.0000
63.5900 677.0000 1.0000
63.6000 701.0000 1.0000
63.6100 697.0000 1.0000
63.6200 740.0000 1.0000
63.6300 719.0000 1.0000
63.6400 706.0000 1.0000
63.6500 719.0000 1.0000
63.6600 670.0000 1.0000
63.6700 728.0000 1.0000
63.6800 691.0000 1.0000
63.6900 746.0000 1.0000
63.7000 681.0000 1.0000
63.7100 717.0000 1.0000
63.7200 712.0000 1.0000
63.7300 734.0000 1.0000
63.7400 736.0000 1.0000
63.7500 721.0000 1.0000
63.7600 680.0000 1.0000
63.7700 732.0000 1.0000
63.7800 732.0000 1.0000
63.7900 715.0000 1.0000
63.8000 662.0000 1.0000
63.8100 726.0000 1.0000
63.8200 704.0000 1.0000
63.8300 727.0000 1.0000
63.8400 711.0000 1.0000
63.8500 707.0000 1.0000
63.8600 772.0000 1.0000
63.8700 765.0000 1.0000
63.8800 714.0000 1.0000
63.8900 747.0000 1.0000
63.9000 710.0000 1.0000
63.9100 719.0000 1.0000
63.9200 740.0000 1.0000
63.9300 694.0000 1.0000
63.9400 726.0000 1.0000
63.9500 751.0000 1.0000
63.9600 722.0000 1.0000
63.9700 716.0000 1.0000
63.9800 707.0000 1.0000
63.9900 680.0000 1.0000
64.0000 698.0000 1.0000
64.0100 684.0000 1.0000
64.0200 692.0000 1.0000
64.0300 680.0000 1.0000
64.0400 699.0000 1.0000
64.0500 727.0000 1.0000
64.0600 693.0000 1.0000
64.0700 730.0000 1.0000
64.0800 703.0000 1.0000
64.0900 736.0000 1.0000
64.1000 672.0000 1.0000
64.1100 677.0000 1.0000
64.1200 741.0000 1.0000
64.1300 731.0000 1.0000
64.1400 701.0000 1.0000
64.1500 677.0000 1.0000
64.1600 705.0000 1.0000
64.1700 746.0000 1.0000
64.1800 692.0000 1.0000
64.1900 733.0000 1.0000
64.2000 728.0000 1.0000
64.2100 719.0000 1.0000
64.2200 709.0000 1.0000
64.2300 722.0000 1.0000
64.2400 733.0000 1.0000
64.2500 743.0000 1.0000
64.2600 716.0000 1.0000
64.2700 745.0000 1.0000
64.2800 762.0000 1.0000
64.2900 698.0000 1.0000
64.3000 737.0000 1.0000
64.3100 716.0000 1.0000
64.3200 738.0000 1.0000
64.3300 714.0000 1.0000
64.3400 726.0000 1.0000
64.3500 694.0000 1.0000
64.3600 699.0000 1.0000
64.3700 745.0000 1.0000
64.3800 751.0000 1.0000
64.3900 781.0000 1.0000
64.4000 762.0000 1.0000
64.4100 743.0000 1.0000
64.4200 718.0000 1.0000
64.4300 760.0000 1.0000
64.4400 720.0000 1.0000
64.4500 755.0000 1.0000
64.4600 803.0000 1.0000
64.4700 699.0000 1.0000
64.4800 751.0000 1.0000
64.4900 790.0000 1.0000
64.5000 779.0000 1.0000
64.5100 775.0000 1.0000
64.5200 787.0000 1.0000
64.5300 765.0000 1.0000
64.5400 754.0000 1.0000
64.5500 804.0000 1.0000
64.5600 826.0000 1.0000
64.5700 762.0000 1.0000
64.5800 780.0000 1.0000
64.5900 801.0000 1.0000
64.6000 806.0000 1.0000
64.6100 822.0000 1.0000
64.6200 794.0000 1.0000
64.6300 800.0000 1.0000
64.6400 806.0000 1.0000
64.6500 813.0000 1.0000
64.6600 830.0000 1.0000
64.6700 778.0000 1.0000
64.6800 759.0000 1.0000
64.6900 805.0000 1.0000
64.7000 815.0000 1.0000
64.7100 862.0000 1.0000
64.7200 816.0000 1.0000
64.7300 794.0000 1.0000
64.7400 792.0000 1.0000
64.7500 798.0000 1.0000
64.7600 814.0000 1.0000
64.7700 809.0000 1.0000
64.7800 787.0000 1.0000
64.7900 830.0000 1.0000
64.8000 794.0000 1.0000
64.8100 772.0000 1.0000
64.8200 820.0000 1.0000
64.8300 822.0000 1.0000
64.8400 828.0000 1.0000
64.8500 784.0000 1.0000
64.8600 787.0000 1.0000
64.8700 825.0000 1.0000
64.8800 771.0000 1.0000
64.8900 806.0000 1.0000
64.9000 776.0000 1.0000
64.9100 803.0000 1.0000
64.9200 748.0000 1.0000
64.9300 730.0000 1.0000
64.9400 795.0000 1.0000
64.9500 778.0000 1.0000
64.9600 776.0000 1.0000
64.9700 809.0000 1.0000
64.9800 802.0000 1.0000
64.9900 800.0000 1.0000
65.0000 782.0000 1.0000
65.0100 802.0000 1.0000
65.0200 785.0000 1.0000
65.0300 764.0000 1.0000
65.0400 785.0000 1.0000
65.0500 742.0000 1.0000
65.0600 725.0000 1.0000
65.0700 739.0000 1.0000
65.0800 680.0000 1.0000
65.0900 725.0000 1.0000
65.1000 770.0000 1.0000
65.1100 781.0000 1.0000
65.1200 784.0000 1.0000
65.1300 741.0000 1.0000
65.1400 764.0000 1.0000
65.1500 722.0000 1.0000
65.1600 742.0000 1.0000
65.1700 748.0000 1.0000
65.1800 748.0000 1.0000
65.1900 727.0000 1.0000
65.2000 764.0000 1.0000
65.2100 757.0000 1.0000
65.2200 729.0000 1.0000
65.2300 751.0000 1.0000
65.2400 740.0000 1.0000
65.2500 751.0000 1.0000
65.2600 760.0000 1.0000
65.2700 730.0000 1.0000
65.2800 729.0000 1.0000
65.2900 785.0000 1.0000
65.3000 734.0000 1.0000
65.3100 715.0000 1.0000
65.3200 714.0000 1.0000
65.3300 734.0000 1.0000
65.3400 734.0000 1.0000
65.3500 767.0000 1.0000
65.3600 697.0000 1.0000
65.3700 679.0000 1.0000
65.3800 721.0000 1.0000
65.3900 687.0000 1.0000
65.4000 723.0000 1.0000
65.4100 726.0000 1.0000
65.4200 757.0000 1.0000
65.4300 714.0000 1.0000
65.4400 747.0000 1.0000
65.4500 731.0000 1.0000
65.4600 717.0000 1.0000
65.4700 754.0000 1.0000
65.4800 748.0000 1.0000
65.4900 740.0000 1.0000
65.5000 722.0000 1.0000
65.5100 779.0000 1.0000
65.5200 745.0000 1.0000
65.5300 713.0000 1.0000
65.5400 742.0000 1.0000
65.5500 710.0000 1.0000
65.5600 760.0000 1.0000
65.5700 754.0000 1.0000
65.5800 756.0000 1.0000
65.5900 773.0000 1.0000
65.6000 790.0000 1.0000
65.6100 734.0000 1.0000
65.6200 766.0000 1.0000
65.6300 826.0000 1.0000
65.6400 815.0000 1.0000
65.6500 772.0000 1.0000
65.6600 756.0000 1.0000
65.6700 780.0000 1.0000
65.6800 773.0000 1.0000
65.6900 746.0000 1.0000
65.7000 765.0000 1.0000
65.7100 765.0000 1.0000
65.7200 814.0000 1.0000
65.7300 789.0000 1.0000
65.7400 803.0000 1.0000
65.7500 800.0000 1.0000
65.7600 829.0000 1.0000
65.7700 873.0000 1.0000
65.7800 827.0000 1.0000
65.7900 808.0000 1.0000
65.8000 854.0000 1.0000
65.8100 819.0000 1.0000
65.8200 866.0000 1.0000
65.8300 851.0000 1.0000
65.8400 917.0000 1.0000
65.8500 915.0000 1.0000
65.8600 874.0000 1.0000
65.8700 925.0000 1.0000
65.8800 924.0000 1.0000
65.8900 918.0000 1.0000
65.9000 909.0000 1.0000
65.9100 945.0000 1.0000
65.9200 935.0000 1.0000
65.9300 985.0000 1.0000
65.9400 987.0000 1.0000
65.9500 1105.0000 1.0000
65.9600 1044.0000 1.0000
65.9700 1115.0000 1.0000
65.9800 1125.0000 1.0000
65.9900 1153.0000 1.0000
66.0000 1233.0000 1.0000
66.0100 1261.0000 1.0000
66.0200 1286.0000 1.0000
66.0300 1379.0000 1.0000
66.0400 1330.0000 1.0000
66.0500 1476.0000 1.0000
66.0600 1535.0000 1.0000
66.0700 1584.0000 1.0000
66.0800 1638.0000 1.0000
66.0900 1757.0000 1.0000
66.1000 1853.0000 1.0000
66.1100 2078.0000 1.0000
66.1200 2059.0000 1.0000
66.1300 2174.0000 1.0000
66.1400 2281.0000 1.0000
66.1500 2393.0000 1.0000
66.1600 2491.0000 1.0000
66.1700 2597.0000 1.0000
66.1800 2707.0000 1.0000
66.1900 2754.0000 1.0000
66.2000 2779.0000 1.0000
66.2100 2807.0000 1.0000
66.2200 2771.0000 1.0000
66.2300 2838.0000 1.0000
66.2400 2755.0000 1.0000
66.2500 2713.0000 1.0000
66.2600 2704.0000 1.0000
66.2700 2636.0000 1.0000
66.2800 2619.0000 1.0000
66.2900 2510.0000 1.0000
66.3000 2455.0000 1.0000
66.3100 2481.0000 1.0000
66.3200 2437.0000 1.0000
66.3300 2394.0000 1.0000
66.3400 2439.0000 1.0000
66.3500 2355.0000 1.0000
66.3600 2403.0000 1.0000
66.3700 2410.0000 1.0000
66.3800 2393.0000 1.0000
66.3900 2350.0000 1.0000
66.4000 2277.0000 1.0000
66.4100 2096.0000 1.0000
66.4200 2055.0000 1.0000
66.4300 1970.0000 1.0000
66.4400 1990.0000 1.0000
66.4500 1814.0000 1.0000
66.4600 1825.0000 1.0000
66.4700 1763.0000 1.0000
66.4800 1639.0000 1.0000
66.4900 1652.0000 1.0000
66.5000 1552.0000 1.0000
66.5100 1451.0000 1.0000
66.5200 1432.0000 1.0000
66.5300 1358.0000 1.0000
66.5400 1334.0000 1.0000
66.5500 1314.0000 1.0000
66.5600 1292.0000 1.0000
66.5700 1267.0000 1.0000
66.5800 1180.0000 1.0000
66.5900 1154.0000 1.0000
66.6000 1097.0000 1.0000
66.6100 1089.0000 1.0000
66.6200 1075.0000 1.0000
66.6300 1057.0000 1.0000
66.6400 999.0000 1.0000
66.6500 981.0000 1.0000
66.6600 995.0000 1.0000
66.6700 969.0000 1.0000
66.6800 928.0000 1.0000
66.6900 934.0000 1.0000
66.7000 926.0000 1.0000
66.7100 905.0000 1.0000
66.7200 895.0000 1.0000
66.7300 909.0000 1.0000
66.7400 881.0000 1.0000
66.7500 843.0000 1.0000
66.7600 801.0000 1.0000
66.7700 834.0000 1.0000
66.7800 863.0000 1.0000
66.7900 872.0000 1.0000
66.8000 806.0000 1.0000
66.8100 807.0000 1.0000
66.8200 809.0000 1.0000
66.8300 784.0000 1.0000
66.8400 793.0000 1.0000
66.8500 768.0000 1.0000
66.8600 736.0000 1.0000
66.8700 782.0000 1.0000
66.8800 766.0000 1.0000
66.8900 790.0000 1.0000
66.9000 756.0000 1.0000
66.9100 752.0000 1.0000
66.9200 759.0000 1.0000
66.9300 764.0000 1.0000
66.9400 752.0000 1.0000
66.9500 768.0000 1.0000
66.9600 738.0000 1.0000
66.9700 714.0000 1.0000
66.9800 727.0000 1.0000
66.9900 767.0000 1.0000
67.0000 684.0000 1.0000
67.0100 701.0000 1.0000
67.0200 704.0000 1.0000
67.0300 718.0000 1.0000
67.0400 723.0000 1.0000
67.0500 767.0000 1.0000
67.0600 737.0000 1.0000
67.0700 719.0000 1.0000
67.0800 711.0000 1.0000
67.0900 700.0000 1.0000
67.1000 720.0000 1.0000
67.1100 700.0000 1.0000
67.1200 674.0000 1.0000
67.1300 681.0000 1.0000
67.1400 726.0000 1.0000
67.1500 684.0000 1.0000
67.1600 710.0000 1.0000
67.1700 682.0000 1.0000
67.1800 711.0000 1.0000
67.1900 726.0000 1.0000
67.2000 664.0000 1.0000
67.2100 654.0000 1.0000
67.2200 690.0000 1.0000
67.2300 685.0000 1.0000
67.2400 662.0000 1.0000
67.2500 698.0000 1.0000
67.2600 712.0000 1.0000
67.2700 652.0000 1.0000
67.2800 697.0000 1.0000
67.2900 672.0000 1.0000
67.3000 708.0000 1.0000
67.3100 658.0000 1.0000
67.3200 669.0000 1.0000
67.3300 682.0000 1.0000
67.3400 654.0000 1.0000
67.3500 680.0000 1.0000
67.3600 718.0000 1.0000
67.3700 682.0000 1.0000
67.3800 647.0000 1.0000
67.3900 668.0000 1.0000
67.4000 649.0000 1.0000
67.4100 671.0000 1.0000
67.4200 699.0000 1.0000
67.4300 658.0000 1.0000
67.4400 689.0000 1.0000
67.4500 711.0000 1.0000
67.4600 719.0000 1.0000
67.4700 708.0000 1.0000
67.4800 644.0000 1.0000
67.4900 664.0000 1.0000
67.5000 672.0000 1.0000
67.5100 679.0000 1.0000
67.5200 672.0000 1.0000
67.5300 643.0000 1.0000
67.5400 653.0000 1.0000
67.5500 636.0000 1.0000
67.5600 671.0000 1.0000
67.5700 650.0000 1.0000
67.5800 673.0000 1.0000
67.5900 629.0000 1.0000
67.6000 661.0000 1.0000
67.6100 629.0000 1.0000
67.6200 696.0000 1.0000
67.6300 681.0000 1.0000
67.6400 694.0000 1.0000
67.6500 663.0000 1.0000
67.6600 624.0000 1.0000
67.6700 681.0000 1.0000
67.6800 654.0000 1.0000
67.6900 680.0000 1.0000
67.7000 658.0000 1.0000
67.7100 682.0000 1.0000
67.7200 669.0000 1.0000
67.7300 668.0000 1.0000
67.7400 658.0000 1.0000
67.7500 628.0000 1.0000
67.7600 629.0000 1.0000
67.7700 665.0000 1.0000
67.7800 648.0000 1.0000
67.7900 642.0000 1.0000
67.8000 668.0000 1.0000
67.8100 675.0000 1.0000
67.8200 637.0000 1.0000
67.8300 635.0000 1.0000
67.8400 612.0000 1.0000
67.8500 661.0000 1.0000
67.8600 677.0000 1.0000
67.8700 664.0000 1.0000
67.8800 612.0000 1.0000
67.8900 635.0000 1.0000
67.9000 665.0000 1.0000
67.9100 634.0000 1.0000
67.9200 649.0000 1.0000
67.9300 617.0000 1.0000
67.9400 632.0000 1.0000
67.9500 638.0000 1.0000
67.9600 628.0000 1.0000
67.9700 658.0000 1.0000
67.9800 691.0000 1.0000
67.9900 650.0000 1.0000
68.0000 652.0000 1.0000
68.0100 638.0000 1.0000
68.0200 645.0000 1.0000
68.0300 611.0000 1.0000
68.0400 638.0000 1.0000
68.0500 666.0000 1.0000
68.0600 628.0000 1.0000
68.0700 653.0000 1.0000
68.0800 675.0000 1.0000
68.0900 671.0000 1.0000
68.1000 615.0000 1.0000
68.1100 662.0000 1.0000
68.1200 609.0000 1.0000
68.1300 608.0000 1.0000
68.1400 625.0000 1.0000
68.1500 632.0000 1.0000
68.1600 657.0000 1.0000
68.1700 645.0000 1.0000
68.1800 645.0000 1.0000
68.1900 645.0000 1.0000
68.2000 626.0000 1.0000
68.2100 625.0000 1.0000
68.2200 644.0000 1.0000
68.2300 617.0000 1.0000
68.2400 572.0000 1.0000
68.2500 630.0000 1.0000
68.2600 663.0000 1.0000
68.2700 620.0000 1.0000
68.2800 641.0000 1.0000
68.2900 660.0000 1.0000
68.3000 648.0000 1.0000
68.3100 626.0000 1.0000
68.3200 654.0000 1.0000
68.3300 622.0000 1.0000
68.3400 658.0000 1.0000
68.3500 620.0000 1.0000
68.3600 625.0000 1.0000
68.3700 636.0000 1.0000
68.3800 629.0000 1.0000
68.3900 617.0000 1.0000
68.4000 680.0000 1.0000
68.4100 650.0000 1.0000
68.4200 653.0000 1.0000
68.4300 639.0000 1.0000
68.4400 666.0000 1.0000
68.4500 625.0000 1.0000
68.4600 613.0000 1.0000
68.4700 640.0000 1.0000
68.4800 635.0000 1.0000
68.4900 635.0000 1.0000
68.5000 613.0000 1.0000
68.5100 665.0000 1.0000
68.5200 660.0000 1.0000
68.5300 664.0000 1.0000
68.5400 613.0000 1.0000
68.5500 621.0000 1.0000
68.5600 652.0000 1.0000
68.5700 580.0000 1.0000
68.5800 616.0000 1.0000
68.5900 625.0000 1.0000
68.6000 645.0000 1.0000
68.6100 672.0000 1.0000
68.6200 638.0000 1.0000
68.6300 631.0000 1.0000
68.6400 641.0000 1.0000
68.6500 620.0000 1.0000
68.6600 602.0000 1.0000
68.6700 628.0000 1.0000
68.6800 612.0000 1.0000
68.6900 623.0000 1.0000
68.7000 645.0000 1.0000
68.7100 591.0000 1.0000
68.7200 668.0000 1.0000
68.7300 636.0000 1.0000
68.7400 630.0000 1.0000
68.7500 617.0000 1.0000
68.7600 663.0000 1.0000
68.7700 611.0000 1.0000
68.7800 622.0000 1.0000
68.7900 586.0000 1.0000
68.8000 643.0000 1.0000
68.8100 629.0000 1.0000
68.8200 606.0000 1.0000
68.8300 573.0000 1.0000
68.8400 597.0000 1.0000
68.8500 596.0000 1.0000
68.8600 601.0000 1.0000
68.8700 627.0000 1.0000
68.8800 618.0000 1.0000
68.8900 607.0000 1.0000
68.9000 635.0000 1.0000
68.9100 618.0000 1.0000
68.9200 617.0000 1.0000
68.9300 640.0000 1.0000
68.9400 635.0000 1.0000
68.9500 647.0000 1.0000
68.9600 625.0000 1.0000
68.9700 624.0000 1.0000
68.9800 667.0000 1.0000
68.9900 590.0000 1.0000
69.0000 610.0000 1.0000
69.0100 609.0000 1.0000
69.0200 611.0000 1.0000
69.0300 636.0000 1.0000
69.0400 646.0000 1.0000
69.0500 613.0000 1.0000
69.0600 615.0000 1.0000
69.0700 621.0000 1.0000
69.0800 608.0000 1.0000
69.0900 611.0000 1.0000
69.1000 634.0000 1.0000
69.1100 639.0000 1.0000
69.1200 616.0000 1.0000
69.1300 624.0000 1.0000
69.1400 603.0000 1.0000
69.1500 624.0000 1.0000
69.1600 630.0000 1.0000
69.1700 640.0000 1.0000
69.1800 628.0000 1.0000
69.1900 587.0000 1.0000
69.2000 633.0000 1.0000
69.2100 608.0000 1.0000
69.2200 619.0000 1.0000
69.2300 670.0000 1.0000
69.2400 621.0000 1.0000
69.2500 610.0000 1.0000
69.2600 590.0000 1.0000
69.2700 663.0000 1.0000
69.2800 602.0000 1.0000
69.2900 637.0000 1.0000
69.3000 608.0000 1.0000
69.3100 640.0000 1.0000
69.3200 643.0000 1.0000
69.3300 616.0000 1.0000
69.3400 582.0000 1.0000
69.3500 622.0000 1.0000
69.3600 664.0000 1.0000
69.3700 608.0000 1.0000
69.3800 630.0000 1.0000
69.3900 609.0000 1.0000
69.4000 592.0000 1.0000
69.4100 610.0000 1.0000
69.4200 639.0000 1.0000
69.4300 653.0000 1.0000
69.4400 634.0000 1.0000
69.4500 682.0000 1.0000
69.4600 628.0000 1.0000
69.4700 635.0000 1.0000
69.4800 617.0000 1.0000
69.4900 590.0000 1.0000
69.5000 620.0000 1.0000
69.5100 625.0000 1.0000
69.5200 645.0000 1.0000
69.5300 638.0000 1.0000
69.5400 649.0000 1.0000
69.5500 642.0000 1.0000
69.5600 662.0000 1.0000
69.5700 599.0000 1.0000
69.5800 644.0000 1.0000
69.5900 632.0000 1.0000
69.6000 650.0000 1.0000
69.6100 616.0000 1.0000
69.6200 660.0000 1.0000
69.6300 645.0000 1.0000
69.6400 607.0000 1.0000
69.6500 627.0000 1.0000
69.6600 688.0000 1.0000
69.6700 624.0000 1.0000
69.6800 620.0000 1.0000
69.6900 595.0000 1.0000
69.7000 605.0000 1.0000
69.7100 646.0000 1.0000
69.7200 626.0000 1.0000
69.7300 638.0000 1.0000
69.7400 611.0000 1.0000
69.7500 601.0000 1.0000
69.7600 609.0000 1.0000
69.7700 601.0000 1.0000
69.7800 600.0000 1.0000
69.7900 589.0000 1.0000
69.8000 609.0000 1.0000
69.8100 651.0000 1.0000
69.8200 603.0000 1.0000
69.8300 614.0000 1.0000
69.8400 606.0000 1.0000
69.8500 601.0000 1.0000
69.8600 638.0000 1.0000
69.8700 606.0000 1.0000
69.8800 603.0000 1.0000
69.8900 603.0000 1.0000
69.9000 578.0000 1.0000
69.9100 626.0000 1.0000
69.9200 655.0000 1.0000
69.9300 650.0000 1.0000
69.9400 615.0000 1.0000
69.9500 598.0000 1.0000
69.9600 577.0000 1.0000
69.9700 573.0000 1.0000
69.9800 633.0000 1.0000
69.9900 611.0000 1.0000
70.0000 595.0000 1.0000
*RAS_INT_END
*RAS_TEMPERATURE_START
*RAS_TEMPERATURE_END
*RAS_DATA_END
