*RAS_DATA_START
*RAS_HEADER_START
*DISP_FMT_X "%.2f"
*DISP_FMT_Y "%.0f"
*DISP_FULLSCALE "14754.0000000000"
*DISP_LINE_COLOR "255.0000000000"
*DISP_LINE_STYLE "0.0000000000"
*DISP_LINE_WIDTH "0.2500000000"
*DISP_NOTE "測定データ-10"
*DISP_OFFSET_Y "0.0000000000"
*DISP_PEAKSEARCH_UNIT_Y "cps"
*DISP_RANGE_BOTTOM "0.0000000000"
*DISP_RANGE_LEFT "20.0000000000"
*DISP_RANGE_LOGCUTOFF "0.0100000000"
*DISP_RANGE_RIGHT "70.0000000000"
*DISP_RANGE_TOP "14754.0000000000"
*DISP_SCALE_MODE_Y "0.0000000000"
*DISP_TAB_NAME "2θ/θ"
*DISP_TITLE_Y "強度"
*DISP_UNIT_Y "cps"
*DISP_WINDOW_NAME "MSG_MACROENGINE"
*FILE_COMMENT " "
*FILE_MD5 ""
*FILE_MEMO " "
*FILE_OPERATOR "Administrator"
*FILE_SAMPLE " "
*FILE_TYPE "RAS_RAW"
*FILE_USERGROUP "システムマネージャ"
*FILE_VERSION "1.0000000000"
*HW_ATTACHMENT_ID "ATT0025"
*HW_ATTACHMENT_NAME "標準|Standard"
*HW_COUNTER_ID-0 "CUT0025"
*HW_COUNTER_ID-1 "CUT0020"
*HW_COUNTER_ID-2 "CUT0020"
*HW_COUNTER_ID-3 "CSL0021"
*HW_COUNTER_ID-4 "CMC0021"
*HW_COUNTER_NAME-0 "D/teX Ultra|D/teX Ultra"
*HW_COUNTER_NAME-1 "None|None"
*HW_COUNTER_NAME-2 "None|None"
*HW_COUNTER_NAME-3 "BBM|BBM"
*HW_COUNTER_NAME-4 "検出器モノクロメータ|Detector monochromator"
*HW_COUNTER_SELECT_NAME "D/teX Ultra|D/teX Ultra"
*HW_GONIOMETER_ID "GON0023"
*HW_GONIOMETER_NAME "SmartLab|SmartLab"
*HW_GONIOMETER_RADIUS-0 "90.0"
*HW_GONIOMETER_RADIUS-1 "114.0"
*HW_GONIOMETER_RADIUS-2 "190.0"
*HW_GONIOMETER_RADIUS-3 "300.0"
*HW_GONIOMETER_RADIUS-4 "187.0"
*HW_GONIOMETER_RADIUS-5 "300.0"
*HW_GONIOMETER_RADIUS-6 "113.0"
*HW_GONIOMETER_RADIUS-7 "331.0"
*HW_I_OPT_ID-0 "CBO0021"
*HW_I_OPT_ID-1 "ICR0023"
*HW_I_OPT_ID-2 "ISL0021"
*HW_I_OPT_ID-3 "ISO0021"
*HW_I_OPT_ID-4 "IAD0021"
*HW_I_OPT_ID-5 "IPR0001"
*HW_I_OPT_NAME-0 "CBOユニット|CBO unit"
*HW_I_OPT_NAME-1 "標準入射光学ユニット|Standard incident optical unit"
*HW_I_OPT_NAME-2 "標準入射スリットボックス|Standard incident slit box"
*HW_I_OPT_NAME-3 "入射平行スリット|Incident parallel slit"
*HW_I_OPT_NAME-4 "長手制限スリット|Length limiting slit"
*HW_I_OPT_NAME-5 "None|None"
*HW_R_ATTENUATER_AUTOMODE "0"
*HW_R_OPT_ID-0 "RSS0021"
*HW_R_OPT_ID-1 "RCR0023"
*HW_R_OPT_ID-2 "RSO0021"
*HW_R_OPT_ID-3 "RRS0021"
*HW_R_OPT_ID-4 "ATN0021"
*HW_R_OPT_ID-5 "RFL0021"
*HW_R_OPT_ID-6 "RAD0021"
*HW_R_OPT_NAME-0 "標準受光スリットボックス1|Standard receiving slit box # 1"
*HW_R_OPT_NAME-1 "標準受光光学ユニット1|Standard receiving unit # 1"
*HW_R_OPT_NAME-2 "標準受光光学ユニット2|Standard receiving optical unit # 2"
*HW_R_OPT_NAME-3 "標準受光スリットボックス2|Standard receiving slit box # 2"
*HW_R_OPT_NAME-4 "標準アッテネータ|Standard Attenuator"
*HW_R_OPT_NAME-5 "Cu Kβ|Cu K-beta"
*HW_R_OPT_NAME-6 "調整用受光スリット|Alignment receiving slit"
*HW_SAMPLE_HOLDER_ID "SMP0023"
*HW_SAMPLE_HOLDER_NAME "標準Zステージ|Standard Z stage"
*HW_XG_CURRENT_MAX "50"
*HW_XG_CURRENT_MIN "2"
*HW_XG_CURRENT_RESOLUTION "1"
*HW_XG_CURRENT_UNIT "mA"
*HW_XG_FOCUS "1mm x 10mm"
*HW_XG_FOCUS_TYPE "Normal"
*HW_XG_ID ""
*HW_XG_NAME "3kW 封入管(ID:1200)|3kW Sealed tube(ID:1200)"
*HW_XG_TARGET_ATOMIC_NUMBER "29.0000000000"
*HW_XG_TARGET_NAME "Cu"
*HW_XG_TYPE "Hermetic"
*HW_XG_VOLTAGE_MAX "60"
*HW_XG_VOLTAGE_MIN "20"
*HW_XG_VOLTAGE_RESOLUTION "1"
*HW_XG_VOLTAGE_UNIT "kV"
*HW_XG_WATT_MAX "1.500"
*HW_XG_WATT_UNIT "kW"
*HW_XG_WAVE_LENGTH_ALPHA1 "1.540593"
*HW_XG_WAVE_LENGTH_ALPHA2 "1.544414"
*HW_XG_WAVE_LENGTH_BETA "1.392250"
*MEAS_COND_AXIS_NAME-0 "2θ/θ"
*MEAS_COND_AXIS_NAME-1 "2θ"
*MEAS_COND_AXIS_NAME-2 "ω"
*MEAS_COND_AXIS_NAME-3 "Z"
*MEAS_COND_AXIS_NAME-4 "2θ/ω"
*MEAS_COND_AXIS_NAME-5 "θs"
*MEAS_COND_AXIS_NAME-6 "θd"
*MEAS_COND_AXIS_NAME-7 "Ts"
*MEAS_COND_AXIS_NAME-8 "CBO選択スリット"
*MEAS_COND_AXIS_NAME-9 "M"
*MEAS_COND_AXIS_NAME-10 "入射平行スリット"
*MEAS_COND_AXIS_NAME-11 "入射スリット"
*MEAS_COND_AXIS_NAME-12 ""
*MEAS_COND_AXIS_NAME-13 "Zs"
*MEAS_COND_AXIS_NAME-14 "入射光学素子"
*MEAS_COND_AXIS_NAME-15 "長手制限スリット"
*MEAS_COND_AXIS_NAME-16 "センタースリット"
*MEAS_COND_AXIS_NAME-17 "フィルター"
*MEAS_COND_AXIS_NAME-18 "受光スリット1"
*MEAS_COND_AXIS_NAME-19 "受光スリット2"
*MEAS_COND_AXIS_NAME-20 "受光光学素子"
*MEAS_COND_AXIS_NAME-21 "受光平行スリット"
*MEAS_COND_AXIS_NAME-22 "調整用受光スリット"
*MEAS_COND_AXIS_NAME-23 ""
*MEAS_COND_AXIS_NAME-24 ""
*MEAS_COND_AXIS_NAME-25 "Zd"
*MEAS_COND_AXIS_NAME-26 "アッテネータ"
*MEAS_COND_AXIS_NAME-27 "検出器モノクロメータ"
*MEAS_COND_AXIS_NAME-28 "モノクロメータスリット"
*MEAS_COND_AXIS_NAME-29 "プライマリビーム"
*MEAS_COND_AXIS_NAME-30 "PHA"
*MEAS_COND_AXIS_NAME_INTERNAL-0 "TwoThetaTheta"
*MEAS_COND_AXIS_NAME_INTERNAL-1 "TwoTheta"
*MEAS_COND_AXIS_NAME_INTERNAL-2 "Omega"
*MEAS_COND_AXIS_NAME_INTERNAL-3 "Z"
*MEAS_COND_AXIS_NAME_INTERNAL-4 "TwoThetaOmega"
*MEAS_COND_AXIS_NAME_INTERNAL-5 "ThetaS"
*MEAS_COND_AXIS_NAME_INTERNAL-6 "ThetaD"
*MEAS_COND_AXIS_NAME_INTERNAL-7 "Ts"
*MEAS_COND_AXIS_NAME_INTERNAL-8 "CBO"
*MEAS_COND_AXIS_NAME_INTERNAL-9 "CBO-M"
*MEAS_COND_AXIS_NAME_INTERNAL-10 "IncidentSollerSlit"
*MEAS_COND_AXIS_NAME_INTERNAL-11 "IncidentSlitBox"
*MEAS_COND_AXIS_NAME_INTERNAL-12 "IncidentSlitBox-_Axis"
*MEAS_COND_AXIS_NAME_INTERNAL-13 "Zs"
*MEAS_COND_AXIS_NAME_INTERNAL-14 "IncidentMonochromator"
*MEAS_COND_AXIS_NAME_INTERNAL-15 "IncidentAxdSlit"
*MEAS_COND_AXIS_NAME_INTERNAL-16 "CenterSlit"
*MEAS_COND_AXIS_NAME_INTERNAL-17 "Filter"
*MEAS_COND_AXIS_NAME_INTERNAL-18 "ReceivingSlitBox1"
*MEAS_COND_AXIS_NAME_INTERNAL-19 "ReceivingSlitBox2"
*MEAS_COND_AXIS_NAME_INTERNAL-20 "ReceivingOptics"
*MEAS_COND_AXIS_NAME_INTERNAL-21 "ReceivingSollerSlit"
*MEAS_COND_AXIS_NAME_INTERNAL-22 "ReceivingAxdSlit"
*MEAS_COND_AXIS_NAME_INTERNAL-23 "ReceivingSlitBox1-_Axis"
*MEAS_COND_AXIS_NAME_INTERNAL-24 "ReceivingSlitBox2-_Axis"
*MEAS_COND_AXIS_NAME_INTERNAL-25 "ReceivingSlitBox2-Zd"
*MEAS_COND_AXIS_NAME_INTERNAL-26 "Attenuator"
*MEAS_COND_AXIS_NAME_INTERNAL-27 "CounterMonochromator"
*MEAS_COND_AXIS_NAME_INTERNAL-28 "CounterSlit"
*MEAS_COND_AXIS_NAME_INTERNAL-29 "IncidentPrimary"
*MEAS_COND_AXIS_NAME_INTERNAL-30 "PHA"
*MEAS_COND_AXIS_NAME_MAGICNO-0 "83951616.0000000000"
*MEAS_COND_AXIS_NAME_MAGICNO-1 "268632064.0000000000"
*MEAS_COND_AXIS_NAME_MAGICNO-2 "268500992.0000000000"
*MEAS_COND_AXIS_NAME_MAGICNO-3 "285278208.0000000000"
*MEAS_COND_AXIS_NAME_MAGICNO-4 "83951616.0000000000"
*MEAS_COND_AXIS_NAME_MAGICNO-5 "131072.0000000000"
*MEAS_COND_AXIS_NAME_MAGICNO-6 "131072.0000000000"
*MEAS_COND_AXIS_NAME_MAGICNO-7 "318898176.0000000000"
*MEAS_COND_AXIS_NAME_MAGICNO-8 "20971521.0000000000"
*MEAS_COND_AXIS_NAME_MAGICNO-9 "285343744.0000000000"
*MEAS_COND_AXIS_NAME_MAGICNO-10 "20971521.0000000000"
*MEAS_COND_AXIS_NAME_MAGICNO-11 "22020097.0000000000"
*MEAS_COND_AXIS_NAME_MAGICNO-12 "25165824.0000000000"
*MEAS_COND_AXIS_NAME_MAGICNO-13 "318898176.0000000000"
*MEAS_COND_AXIS_NAME_MAGICNO-14 "1.0000000000"
*MEAS_COND_AXIS_NAME_MAGICNO-15 "20971521.0000000000"
*MEAS_COND_AXIS_NAME_MAGICNO-16 "20971521.0000000000"
*MEAS_COND_AXIS_NAME_MAGICNO-17 "20971521.0000000000"
*MEAS_COND_AXIS_NAME_MAGICNO-18 "23068673.0000000000"
*MEAS_COND_AXIS_NAME_MAGICNO-19 "23068673.0000000000"
*MEAS_COND_AXIS_NAME_MAGICNO-20 "20971521.0000000000"
*MEAS_COND_AXIS_NAME_MAGICNO-21 "20971521.0000000000"
*MEAS_COND_AXIS_NAME_MAGICNO-22 "20971521.0000000000"
*MEAS_COND_AXIS_NAME_MAGICNO-23 "25165824.0000000000"
*MEAS_COND_AXIS_NAME_MAGICNO-24 "25165824.0000000000"
*MEAS_COND_AXIS_NAME_MAGICNO-25 "285343744.0000000000"
*MEAS_COND_AXIS_NAME_MAGICNO-26 "17301505.0000000000"
*MEAS_COND_AXIS_NAME_MAGICNO-27 "20971521.0000000000"
*MEAS_COND_AXIS_NAME_MAGICNO-28 "20971521.0000000000"
*MEAS_COND_AXIS_NAME_MAGICNO-29 "20971521.0000000000"
*MEAS_COND_AXIS_NAME_MAGICNO-30 "0.0000000000"
*MEAS_COND_AXIS_OFFSET-0 "-"
*MEAS_COND_AXIS_OFFSET-1 "-0.1081000000"
*MEAS_COND_AXIS_OFFSET-2 "0.3758000000"
*MEAS_COND_AXIS_OFFSET-3 "-"
*MEAS_COND_AXIS_OFFSET-4 "-"
*MEAS_COND_AXIS_OFFSET-5 "0.3758000000"
*MEAS_COND_AXIS_OFFSET-6 "-0.4839000000"
*MEAS_COND_AXIS_OFFSET-7 "-"
*MEAS_COND_AXIS_OFFSET-8 "-"
*MEAS_COND_AXIS_OFFSET-9 "-"
*MEAS_COND_AXIS_OFFSET-10 "-"
*MEAS_COND_AXIS_OFFSET-11 "-"
*MEAS_COND_AXIS_OFFSET-12 "-"
*MEAS_COND_AXIS_OFFSET-13 "-"
*MEAS_COND_AXIS_OFFSET-14 "-"
*MEAS_COND_AXIS_OFFSET-15 "-"
*MEAS_COND_AXIS_OFFSET-16 "-"
*MEAS_COND_AXIS_OFFSET-17 "-"
*MEAS_COND_AXIS_OFFSET-18 "-"
*MEAS_COND_AXIS_OFFSET-19 "-"
*MEAS_COND_AXIS_OFFSET-20 "-"
*MEAS_COND_AXIS_OFFSET-21 "-"
*MEAS_COND_AXIS_OFFSET-22 "-"
*MEAS_COND_AXIS_OFFSET-23 "-"
*MEAS_COND_AXIS_OFFSET-24 "-"
*MEAS_COND_AXIS_OFFSET-25 "-"
*MEAS_COND_AXIS_OFFSET-26 "-"
*MEAS_COND_AXIS_OFFSET-27 "-"
*MEAS_COND_AXIS_OFFSET-28 "-"
*MEAS_COND_AXIS_OFFSET-29 "-"
*MEAS_COND_AXIS_OFFSET-30 "-"
*MEAS_COND_AXIS_POSITION-0 "0.0000000000"
*MEAS_COND_AXIS_POSITION-1 "0.0000000000"
*MEAS_COND_AXIS_POSITION-2 "0.0000000000"
*MEAS_COND_AXIS_POSITION-3 "-0.5500000000"
*MEAS_COND_AXIS_POSITION-4 "0.0000000000"
*MEAS_COND_AXIS_POSITION-5 "0.0000000000"
*MEAS_COND_AXIS_POSITION-6 "0.0000000000"
*MEAS_COND_AXIS_POSITION-7 "-0.4278800000"
*MEAS_COND_AXIS_POSITION-8 "BB"
*MEAS_COND_AXIS_POSITION-9 "0.0000000000"
*MEAS_COND_AXIS_POSITION-10 "Soller_slit_5.0deg"
*MEAS_COND_AXIS_POSITION-11 "2/3deg"
*MEAS_COND_AXIS_POSITION-12 "2.2088000000"
*MEAS_COND_AXIS_POSITION-13 "-0.4140600000"
*MEAS_COND_AXIS_POSITION-14 "0.0000000000"
*MEAS_COND_AXIS_POSITION-15 "10.0mm"
*MEAS_COND_AXIS_POSITION-16 "None"
*MEAS_COND_AXIS_POSITION-17 "Cu_K-beta"
*MEAS_COND_AXIS_POSITION-18 "13.000mm"
*MEAS_COND_AXIS_POSITION-19 "13.000mm"
*MEAS_COND_AXIS_POSITION-20 "No_unit"
*MEAS_COND_AXIS_POSITION-21 "Soller_slit_5.0deg"
*MEAS_COND_AXIS_POSITION-22 "None"
*MEAS_COND_AXIS_POSITION-23 "13.0000000000"
*MEAS_COND_AXIS_POSITION-24 "13.0000000000"
*MEAS_COND_AXIS_POSITION-25 "0.0109400000"
*MEAS_COND_AXIS_POSITION-26 "Open"
*MEAS_COND_AXIS_POSITION-27 "None"
*MEAS_COND_AXIS_POSITION-28 "None"
*MEAS_COND_AXIS_POSITION-29 "None"
*MEAS_COND_AXIS_POSITION-30 "38.0000000000"
*MEAS_COND_AXIS_UNIT-0 "deg"
*MEAS_COND_AXIS_UNIT-1 "deg"
*MEAS_COND_AXIS_UNIT-2 "deg"
*MEAS_COND_AXIS_UNIT-3 "mm"
*MEAS_COND_AXIS_UNIT-4 "deg"
*MEAS_COND_AXIS_UNIT-5 "deg"
*MEAS_COND_AXIS_UNIT-6 "deg"
*MEAS_COND_AXIS_UNIT-7 "mm"
*MEAS_COND_AXIS_UNIT-8 ""
*MEAS_COND_AXIS_UNIT-9 "pulse"
*MEAS_COND_AXIS_UNIT-10 ""
*MEAS_COND_AXIS_UNIT-11 ""
*MEAS_COND_AXIS_UNIT-12 "mm"
*MEAS_COND_AXIS_UNIT-13 "mm"
*MEAS_COND_AXIS_UNIT-14 ""
*MEAS_COND_AXIS_UNIT-15 ""
*MEAS_COND_AXIS_UNIT-16 ""
*MEAS_COND_AXIS_UNIT-17 ""
*MEAS_COND_AXIS_UNIT-18 ""
*MEAS_COND_AXIS_UNIT-19 ""
*MEAS_COND_AXIS_UNIT-20 ""
*MEAS_COND_AXIS_UNIT-21 ""
*MEAS_COND_AXIS_UNIT-22 ""
*MEAS_COND_AXIS_UNIT-23 "mm"
*MEAS_COND_AXIS_UNIT-24 "mm"
*MEAS_COND_AXIS_UNIT-25 "mm"
*MEAS_COND_AXIS_UNIT-26 ""
*MEAS_COND_AXIS_UNIT-27 ""
*MEAS_COND_AXIS_UNIT-28 ""
*MEAS_COND_AXIS_UNIT-29 ""
*MEAS_COND_AXIS_UNIT-30 "div"
*MEAS_COND_COUNTER_CNTLOSS_CORR "0.0000000000"
*MEAS_COND_COUNTER_PHABASE "38.0000000000"
*MEAS_COND_COUNTER_PHAWINDOW "16.0000000000"
*MEAS_COND_COUNTER_PHA_UNIT "div"
*MEAS_COND_COUNTER_TAUDIFF "30.0000000000"
*MEAS_COND_COUNTER_TAUINT "0.0000000000"
*MEAS_COND_IRRADIATION_MODE "OFF"
*MEAS_COND_IRRADIATION_WIDTH ""
*MEAS_COND_OPT_ATTR "集中法"
*MEAS_COND_OPT_NAME "@集中法"
*MEAS_COND_UNSYMMETRIC_MODE "OFF"
*MEAS_COND_XG_CURRENT "30.0000000000"
*MEAS_COND_XG_VOLTAGE "40.0000000000"
*MEAS_COND_XG_WAVE_TYPE "Ka"
*MEAS_DATA_COUNT "5001.0000000000"
*MEAS_SCAN_AXIS_X "2θ/θ"
*MEAS_SCAN_AXIS_X_INTERNAL "TwoThetaTheta"
*MEAS_SCAN_END_TIME "07/12/21 17:00:48"
*MEAS_SCAN_MODE "CONTINUOUS"
*MEAS_SCAN_MONITOR "0"
*MEAS_SCAN_RESOLUTION_X "0.0002"
*MEAS_SCAN_SPEED "1.0"
*MEAS_SCAN_SPEED_UNIT "deg/min"
*MEAS_SCAN_START "20.0000000000"
*MEAS_SCAN_START_TIME "07/12/21 16:07:55"
*MEAS_SCAN_STEP "0.0100000000"
*MEAS_SCAN_STOP "70.0000000000"
*MEAS_SCAN_UNIT_X "deg"
*MEAS_SCAN_UNIT_Y "counts"
*RAS_HEADER_END
*RAS_INT_START
20.0000 1517.0000 1.0000
20.0100 1529.0000 1.0000
20.0200 1625.0000 1.0000
20.0300 1617.0000 1.0000
20.0400 1527.0000 1.0000
20.0500 1569.0000 1.0000
20.0600 1554.0000 1.0000
20.0700 1584.0000 1.0000
20.0800 1601.0000 1.0000
20.0900 1611.0000 1.0000
20.1000 1621.0000 1.0000
20.1100 1599.0000 1.0000
20.1200 1577.0000 1.0000
20.1300 1612.0000 1.0000
20.1400 1612.0000 1.0000
20.1500 1565.0000 1.0000
20.1600 1604.0000 1.0000
20.1700 1588.0000 1.0000
20.1800 1636.0000 1.0000
20.1900 1563.0000 1.0000
20.2000 1603.0000 1.0000
20.2100 1545.0000 1.0000
20.2200 1609.0000 1.0000
20.2300 1567.0000 1.0000
20.2400 1531.0000 1.0000
20.2500 1516.0000 1.0000
20.2600 1554.0000 1.0000
20.2700 1612.0000 1.0000
20.2800 1578.0000 1.0000
20.2900 1672.0000 1.0000
20.3000 1621.0000 1.0000
20.3100 1594.0000 1.0000
20.3200 1552.0000 1.0000
20.3300 1598.0000 1.0000
20.3400 1597.0000 1.0000
20.3500 1653.0000 1.0000
20.3600 1620.0000 1.0000
20.3700 1525.0000 1.0000
20.3800 1581.0000 1.0000
20.3900 1566.0000 1.0000
20.4000 1612.0000 1.0000
20.4100 1639.0000 1.0000
20.4200 1622.0000 1.0000
20.4300 1591.0000 1.0000
20.4400 1605.0000 1.0000
20.4500 1583.0000 1.0000
20.4600 1656.0000 1.0000
20.4700 1598.0000 1.0000
20.4800 1605.0000 1.0000
20.4900 1573.0000 1.0000
20.5000 1619.0000 1.0000
20.5100 1606.0000 1.0000
20.5200 1600.0000 1.0000
20.5300 1598.0000 1.0000
20.5400 1629.0000 1.0000
20.5500 1542.0000 1.0000
20.5600 1553.0000 1.0000
20.5700 1599.0000 1.0000
20.5800 1574.0000 1.0000
20.5900 1567.0000 1.0000
20.6000 1593.0000 1.0000
20.6100 1588.0000 1.0000
20.6200 1531.0000 1.0000
20.6300 1581.0000 1.0000
20.6400 1513.0000 1.0000
20.6500 1627.0000 1.0000
20.6600 1634.0000 1.0000
20.6700 1599.0000 1.0000
20.6800 1594.0000 1.0000
20.6900 1606.0000 1.0000
20.7000 1571.0000 1.0000
20.7100 1596.0000 1.0000
20.7200 1584.0000 1.0000
20.7300 1578.0000 1.0000
20.7400 1577.0000 1.0000
20.7500 1587.0000 1.0000
20.7600 1559.0000 1.0000
20.7700 1579.0000 1.0000
20.7800 1600.0000 1.0000
20.7900 1561.0000 1.0000
20.8000 1579.0000 1.0000
20.8100 1563.0000 1.0000
20.8200 1600.0000 1.0000
20.8300 1589.0000 1.0000
20.8400 1550.0000 1.0000
20.8500 1574.0000 1.0000
20.8600 1644.0000 1.0000
20.8700 1555.0000 1.0000
20.8800 1483.0000 1.0000
20.8900 1623.0000 1.0000
20.9000 1567.0000 1.0000
20.9100 1559.0000 1.0000
20.9200 1546.0000 1.0000
20.9300 1567.0000 1.0000
20.9400 1522.0000 1.0000
20.9500 1536.0000 1.0000
20.9600 1585.0000 1.0000
20.9700 1615.0000 1.0000
20.9800 1645.0000 1.0000
20.9900 1638.0000 1.0000
21.0000 1567.0000 1.0000
21.0100 1602.0000 1.0000
21.0200 1601.0000 1.0000
21.0300 1542.0000 1.0000
21.0400 1591.0000 1.0000
21.0500 1561.0000 1.0000
21.0600 1648.0000 1.0000
21.0700 1609.0000 1.0000
21.0800 1624.0000 1.0000
21.0900 1549.0000 1.0000
21.1000 1534.0000 1.0000
21.1100 1559.0000 1.0000
21.1200 1577.0000 1.0000
21.1300 1565.0000 1.0000
21.1400 1595.0000 1.0000
21.1500 1622.0000 1.0000
21.1600 1611.0000 1.0000
21.1700 1574.0000 1.0000
21.1800 1561.0000 1.0000
21.1900 1577.0000 1.0000
21.2000 1593.0000 1.0000
21.2100 1533.0000 1.0000
21.2200 1618.0000 1.0000
21.2300 1604.0000 1.0000
21.2400 1616.0000 1.0000
21.2500 1552.0000 1.0000
21.2600 1562.0000 1.0000
21.2700 1616.0000 1.0000
21.2800 1636.0000 1.0000
21.2900 1565.0000 1.0000
21.3000 1606.0000 1.0000
21.3100 1589.0000 1.0000
21.3200 1626.0000 1.0000
21.3300 1598.0000 1.0000
21.3400 1597.0000 1.0000
21.3500 1621.0000 1.0000
21.3600 1562.0000 1.0000
21.3700 1560.0000 1.0000
21.3800 1545.0000 1.0000
21.3900 1561.0000 1.0000
21.4000 1640.0000 1.0000
21.4100 1591.0000 1.0000
21.4200 1609.0000 1.0000
21.4300 1597.0000 1.0000
21.4400 1637.0000 1.0000
21.4500 1595.0000 1.0000
21.4600 1539.0000 1.0000
21.4700 1604.0000 1.0000
21.4800 1582.0000 1.0000
21.4900 1607.0000 1.0000
21.5000 1560.0000 1.0000
21.5100 1559.0000 1.0000
21.5200 1552.0000 1.0000
21.5300 1572.0000 1.0000
21.5400 1615.0000 1.0000
21.5500 1639.0000 1.0000
21.5600 1617.0000 1.0000
21.5700 1578.0000 1.0000
21.5800 1633.0000 1.0000
21.5900 1623.0000 1.0000
21.6000 1607.0000 1.0000
21.6100 1633.0000 1.0000
21.6200 1633.0000 1.0000
21.6300 1634.0000 1.0000
21.6400 1625.0000 1.0000
21.6500 1584.0000 1.0000
21.6600 1616.0000 1.0000
21.6700 1562.0000 1.0000
21.6800 1599.0000 1.0000
21.6900 1563.0000 1.0000
21.7000 1617.0000 1.0000
21.7100 1612.0000 1.0000
21.7200 1626.0000 1.0000
21.7300 1559.0000 1.0000
21.7400 1582.0000 1.0000
21.7500 1625.0000 1.0000
21.7600 1598.0000 1.0000
21.7700 1605.0000 1.0000
21.7800 1559.0000 1.0000
21.7900 1563.0000 1.0000
21.8000 1624.0000 1.0000
21.8100 1621.0000 1.0000
21.8200 1575.0000 1.0000
21.8300 1544.0000 1.0000
21.8400 1550.0000 1.0000
21.8500 1621.0000 1.0000
21.8600 1620.0000 1.0000
21.8700 1659.0000 1.0000
21.8800 1567.0000 1.0000
21.8900 1541.0000 1.0000
21.9000 1593.0000 1.0000
21.9100 1593.0000 1.0000
21.9200 1591.0000 1.0000
21.9300 1617.0000 1.0000
21.9400 1609.0000 1.0000
21.9500 1615.0000 1.0000
21.9600 1583.0000 1.0000
21.9700 1611.0000 1.0000
21.9800 1684.0000 1.0000
21.9900 1595.0000 1.0000
22.0000 1542.0000 1.0000
22.0100 1581.0000 1.0000
22.0200 1567.0000 1.0000
22.0300 1597.0000 1.0000
22.0400 1628.0000 1.0000
22.0500 1634.0000 1.0000
22.0600 1632.0000 1.0000
22.0700 1564.0000 1.0000
22.0800 1659.0000 1.0000
22.0900 1621.0000 1.0000
22.1000 1676.0000 1.0000
22.1100 1646.0000 1.0000
22.1200 1592.0000 1.0000
22.1300 1586.0000 1.0000
22.1400 1553.0000 1.0000
22.1500 1590.0000 1.0000
22.1600 1702.0000 1.0000
22.1700 1692.0000 1.0000
22.1800 1629.0000 1.0000
22.1900 1582.0000 1.0000
22.2000 1609.0000 1.0000
22.2100 1558.0000 1.0000
22.2200 1601.0000 1.0000
22.2300 1645.0000 1.0000
22.2400 1596.0000 1.0000
22.2500 1597.0000 1.0000
22.2600 1589.0000 1.0000
22.2700 1604.0000 1.0000
22.2800 1637.0000 1.0000
22.2900 1629.0000 1.0000
22.3000 1552.0000 1.0000
22.3100 1592.0000 1.0000
22.3200 1618.0000 1.0000
22.3300 1620.0000 1.0000
22.3400 1646.0000 1.0000
22.3500 1593.0000 1.0000
22.3600 1628.0000 1.0000
22.3700 1601.0000 1.0000
22.3800 1597.0000 1.0000
22.3900 1595.0000 1.0000
22.4000 1542.0000 1.0000
22.4100 1615.0000 1.0000
22.4200 1595.0000 1.0000
22.4300 1584.0000 1.0000
22.4400 1606.0000 1.0000
22.4500 1700.0000 1.0000
22.4600 1668.0000 1.0000
22.4700 1647.0000 1.0000
22.4800 1626.0000 1.0000
22.4900 1631.0000 1.0000
22.5000 1649.0000 1.0000
22.5100 1671.0000 1.0000
22.5200 1626.0000 1.0000
22.5300 1626.0000 1.0000
22.5400 1649.0000 1.0000
22.5500 1623.0000 1.0000
22.5600 1585.0000 1.0000
22.5700 1656.0000 1.0000
22.5800 1633.0000 1.0000
22.5900 1650.0000 1.0000
22.6000 1661.0000 1.0000
22.6100 1619.0000 1.0000
22.6200 1699.0000 1.0000
22.6300 1623.0000 1.0000
22.6400 1493.0000 1.0000
22.6500 1575.0000 1.0000
22.6600 1647.0000 1.0000
22.6700 1589.0000 1.0000
22.6800 1608.0000 1.0000
22.6900 1641.0000 1.0000
22.7000 1629.0000 1.0000
22.7100 1648.0000 1.0000
22.7200 1648.0000 1.0000
22.7300 1596.0000 1.0000
22.7400 1647.0000 1.0000
22.7500 1646.0000 1.0000
22.7600 1591.0000 1.0000
22.7700 1580.0000 1.0000
22.7800 1620.0000 1.0000
22.7900 1610.0000 1.0000
22.8000 1596.0000 1.0000
22.8100 1545.0000 1.0000
22.8200 1585.0000 1.0000
22.8300 1609.0000 1.0000
22.8400 1647.0000 1.0000
22.8500 1638.0000 1.0000
22.8600 1589.0000 1.0000
22.8700 1672.0000 1.0000
22.8800 1692.0000 1.0000
22.8900 1615.0000 1.0000
22.9000 1649.0000 1.0000
22.9100 1629.0000 1.0000
22.9200 1556.0000 1.0000
22.9300 1594.0000 1.0000
22.9400 1543.0000 1.0000
22.9500 1593.0000 1.0000
22.9600 1684.0000 1.0000
22.9700 1677.0000 1.0000
22.9800 1694.0000 1.0000
22.9900 1642.0000 1.0000
23.0000 1630.0000 1.0000
23.0100 1673.0000 1.0000
23.0200 1600.0000 1.0000
23.0300 1567.0000 1.0000
23.0400 1623.0000 1.0000
23.0500 1657.0000 1.0000
23.0600 1631.0000 1.0000
23.0700 1609.0000 1.0000
23.0800 1613.0000 1.0000
23.0900 1613.0000 1.0000
23.1000 1657.0000 1.0000
23.1100 1660.0000 1.0000
23.1200 1672.0000 1.0000
23.1300 1574.0000 1.0000
23.1400 1636.0000 1.0000
23.1500 1613.0000 1.0000
23.1600 1634.0000 1.0000
23.1700 1621.0000 1.0000
23.1800 1578.0000 1.0000
23.1900 1619.0000 1.0000
23.2000 1654.0000 1.0000
23.2100 1594.0000 1.0000
23.2200 1674.0000 1.0000
23.2300 1690.0000 1.0000
23.2400 1652.0000 1.0000
23.2500 1637.0000 1.0000
23.2600 1652.0000 1.0000
23.2700 1623.0000 1.0000
23.2800 1688.0000 1.0000
23.2900 1621.0000 1.0000
23.3000 1663.0000 1.0000
23.3100 1642.0000 1.0000
23.3200 1613.0000 1.0000
23.3300 1601.0000 1.0000
23.3400 1675.0000 1.0000
23.3500 1621.0000 1.0000
23.3600 1626.0000 1.0000
23.3700 1581.0000 1.0000
23.3800 1607.0000 1.0000
23.3900 1670.0000 1.0000
23.4000 1695.0000 1.0000
23.4100 1663.0000 1.0000
23.4200 1625.0000 1.0000
23.4300 1615.0000 1.0000
23.4400 1617.0000 1.0000
23.4500 1638.0000 1.0000
23.4600 1713.0000 1.0000
23.4700 1688.0000 1.0000
23.4800 1644.0000 1.0000
23.4900 1636.0000 1.0000
23.5000 1679.0000 1.0000
23.5100 1644.0000 1.0000
23.5200 1623.0000 1.0000
23.5300 1682.0000 1.0000
23.5400 1695.0000 1.0000
23.5500 1701.0000 1.0000
23.5600 1651.0000 1.0000
23.5700 1651.0000 1.0000
23.5800 1621.0000 1.0000
23.5900 1641.0000 1.0000
23.6000 1603.0000 1.0000
23.6100 1667.0000 1.0000
23.6200 1672.0000 1.0000
23.6300 1675.0000 1.0000
23.6400 1608.0000 1.0000
23.6500 1645.0000 1.0000
23.6600 1661.0000 1.0000
23.6700 1626.0000 1.0000
23.6800 1667.0000 1.0000
23.6900 1588.0000 1.0000
23.7000 1645.0000 1.0000
23.7100 1678.0000 1.0000
23.7200 1626.0000 1.0000
23.7300 1700.0000 1.0000
23.7400 1686.0000 1.0000
23.7500 1597.0000 1.0000
23.7600 1600.0000 1.0000
23.7700 1682.0000 1.0000
23.7800 1631.0000 1.0000
23.7900 1611.0000 1.0000
23.8000 1679.0000 1.0000
23.8100 1673.0000 1.0000
23.8200 1613.0000 1.0000
23.8300 1648.0000 1.0000
23.8400 1640.0000 1.0000
23.8500 1622.0000 1.0000
23.8600 1629.0000 1.0000
23.8700 1642.0000 1.0000
23.8800 1671.0000 1.0000
23.8900 1633.0000 1.0000
23.9000 1643.0000 1.0000
23.9100 1654.0000 1.0000
23.9200 1605.0000 1.0000
23.9300 1618.0000 1.0000
23.9400 1615.0000 1.0000
23.9500 1712.0000 1.0000
23.9600 1687.0000 1.0000
23.9700 1658.0000 1.0000
23.9800 1608.0000 1.0000
23.9900 1691.0000 1.0000
24.0000 1615.0000 1.0000
24.0100 1674.0000 1.0000
24.0200 1663.0000 1.0000
24.0300 1611.0000 1.0000
24.0400 1624.0000 1.0000
24.0500 1623.0000 1.0000
24.0600 1660.0000 1.0000
24.0700 1722.0000 1.0000
24.0800 1612.0000 1.0000
24.0900 1617.0000 1.0000
24.1000 1670.0000 1.0000
24.1100 1638.0000 1.0000
24.1200 1658.0000 1.0000
24.1300 1624.0000 1.0000
24.1400 1558.0000 1.0000
24.1500 1658.0000 1.0000
24.1600 1630.0000 1.0000
24.1700 1713.0000 1.0000
24.1800 1747.0000 1.0000
24.1900 1662.0000 1.0000
24.2000 1627.0000 1.0000
24.2100 1656.0000 1.0000
24.2200 1708.0000 1.0000
24.2300 1599.0000 1.0000
24.2400 1604.0000 1.0000
24.2500 1608.0000 1.0000
24.2600 1683.0000 1.0000
24.2700 1623.0000 1.0000
24.2800 1721.0000 1.0000
24.2900 1682.0000 1.0000
24.3000 1689.0000 1.0000
24.3100 1700.0000 1.0000
24.3200 1670.0000 1.0000
24.3300 1673.0000 1.0000
24.3400 1679.0000 1.0000
24.3500 1681.0000 1.0000
24.3600 1733.0000 1.0000
24.3700 1659.0000 1.0000
24.3800 1664.0000 1.0000
24.3900 1697.0000 1.0000
24.4000 1604.0000 1.0000
24.4100 1695.0000 1.0000
24.4200 1648.0000 1.0000
24.4300 1618.0000 1.0000
24.4400 1716.0000 1.0000
24.4500 1682.0000 1.0000
24.4600 1697.0000 1.0000
24.4700 1651.0000 1.0000
24.4800 1690.0000 1.0000
24.4900 1683.0000 1.0000
24.5000 1703.0000 1.0000
24.5100 1659.0000 1.0000
24.5200 1699.0000 1.0000
24.5300 1656.0000 1.0000
24.5400 1602.0000 1.0000
24.5500 1646.0000 1.0000
24.5600 1656.0000 1.0000
24.5700 1655.0000 1.0000
24.5800 1709.0000 1.0000
24.5900 1691.0000 1.0000
24.6000 1657.0000 1.0000
24.6100 1652.0000 1.0000
24.6200 1686.0000 1.0000
24.6300 1659.0000 1.0000
24.6400 1658.0000 1.0000
24.6500 1690.0000 1.0000
24.6600 1689.0000 1.0000
24.6700 1746.0000 1.0000
24.6800 1653.0000 1.0000
24.6900 1736.0000 1.0000
24.7000 1728.0000 1.0000
24.7100 1740.0000 1.0000
24.7200 1743.0000 1.0000
24.7300 1742.0000 1.0000
24.7400 1749.0000 1.0000
24.7500 1716.0000 1.0000
24.7600 1712.0000 1.0000
24.7700 1660.0000 1.0000
24.7800 1755.0000 1.0000
24.7900 1697.0000 1.0000
24.8000 1743.0000 1.0000
24.8100 1715.0000 1.0000
24.8200 1730.0000 1.0000
24.8300 1714.0000 1.0000
24.8400 1745.0000 1.0000
24.8500 1759.0000 1.0000
24.8600 1702.0000 1.0000
24.8700 1727.0000 1.0000
24.8800 1706.0000 1.0000
24.8900 1702.0000 1.0000
24.9000 1713.0000 1.0000
24.9100 1727.0000 1.0000
24.9200 1699.0000 1.0000
24.9300 1757.0000 1.0000
24.9400 1671.0000 1.0000
24.9500 1755.0000 1.0000
24.9600 1728.0000 1.0000
24.9700 1704.0000 1.0000
24.9800 1656.0000 1.0000
24.9900 1767.0000 1.0000
25.0000 1726.0000 1.0000
25.0100 1710.0000 1.0000
25.0200 1697.0000 1.0000
25.0300 1699.0000 1.0000
25.0400 1769.0000 1.0000
25.0500 1752.0000 1.0000
25.0600 1739.0000 1.0000
25.0700 1748.0000 1.0000
25.0800 1783.0000 1.0000
25.0900 1762.0000 1.0000
25.1000 1817.0000 1.0000
25.1100 1776.0000 1.0000
25.1200 1778.0000 1.0000
25.1300 1723.0000 1.0000
25.1400 1760.0000 1.0000
25.1500 1695.0000 1.0000
25.1600 1626.0000 1.0000
25.1700 1687.0000 1.0000
25.1800 1716.0000 1.0000
25.1900 1774.0000 1.0000
25.2000 1754.0000 1.0000
25.2100 1732.0000 1.0000
25.2200 1827.0000 1.0000
25.2300 1735.0000 1.0000
25.2400 1731.0000 1.0000
25.2500 1761.0000 1.0000
25.2600 1746.0000 1.0000
25.2700 1748.0000 1.0000
25.2800 1760.0000 1.0000
25.2900 1795.0000 1.0000
25.3000 1774.0000 1.0000
25.3100 1714.0000 1.0000
25.3200 1718.0000 1.0000
25.3300 1705.0000 1.0000
25.3400 1748.0000 1.0000
25.3500 1661.0000 1.0000
25.3600 1702.0000 1.0000
25.3700 1647.0000 1.0000
25.3800 1686.0000 1.0000
25.3900 1671.0000 1.0000
25.4000 1713.0000 1.0000
25.4100 1699.0000 1.0000
25.4200 1673.0000 1.0000
25.4300 1703.0000 1.0000
25.4400 1681.0000 1.0000
25.4500 1730.0000 1.0000
25.4600 1692.0000 1.0000
25.4700 1710.0000 1.0000
25.4800 1740.0000 1.0000
25.4900 1722.0000 1.0000
25.5000 1710.0000 1.0000
25.5100 1768.0000 1.0000
25.5200 1727.0000 1.0000
25.5300 1644.0000 1.0000
25.5400 1663.0000 1.0000
25.5500 1611.0000 1.0000
25.5600 1632.0000 1.0000
25.5700 1724.0000 1.0000
25.5800 1720.0000 1.0000
25.5900 1677.0000 1.0000
25.6000 1691.0000 1.0000
25.6100 1711.0000 1.0000
25.6200 1714.0000 1.0000
25.6300 1725.0000 1.0000
25.6400 1676.0000 1.0000
25.6500 1704.0000 1.0000
25.6600 1668.0000 1.0000
25.6700 1699.0000 1.0000
25.6800 1759.0000 1.0000
25.6900 1723.0000 1.0000
25.7000 1702.0000 1.0000
25.7100 1679.0000 1.0000
25.7200 1641.0000 1.0000
25.7300 1714.0000 1.0000
25.7400 1680.0000 1.0000
25.7500 1665.0000 1.0000
25.7600 1681.0000 1.0000
25.7700 1694.0000 1.0000
25.7800 1672.0000 1.0000
25.7900 1665.0000 1.0000
25.8000 1700.0000 1.0000
25.8100 1700.0000 1.0000
25.8200 1682.0000 1.0000
25.8300 1672.0000 1.0000
25.8400 1615.0000 1.0000
25.8500 1684.0000 1.0000
25.8600 1697.0000 1.0000
25.8700 1676.0000 1.0000
25.8800 1711.0000 1.0000
25.8900 1758.0000 1.0000
25.9000 1760.0000 1.0000
25.9100 1766.0000 1.0000
25.9200 1730.0000 1.0000
25.9300 1769.0000 1.0000
25.9400 1682.0000 1.0000
25.9500 1659.0000 1.0000
25.9600 1701.0000 1.0000
25.9700 1747.0000 1.0000
25.9800 1742.0000 1.0000
25.9900 1748.0000 1.0000
26.0000 1692.0000 1.0000
26.0100 1685.0000 1.0000
26.0200 1718.0000 1.0000
26.0300 1704.0000 1.0000
26.0400 1723.0000 1.0000
26.0500 1677.0000 1.0000
26.0600 1653.0000 1.0000
26.0700 1654.0000 1.0000
26.0800 1751.0000 1.0000
26.0900 1730.0000 1.0000
26.1000 1703.0000 1.0000
26.1100 1636.0000 1.0000
26.1200 1727.0000 1.0000
26.1300 1744.0000 1.0000
26.1400 1708.0000 1.0000
26.1500 1775.0000 1.0000
26.1600 1699.0000 1.0000
26.1700 1709.0000 1.0000
26.1800 1688.0000 1.0000
26.1900 1737.0000 1.0000
26.2000 1775.0000 1.0000
26.2100 1728.0000 1.0000
26.2200 1714.0000 1.0000
26.2300 1722.0000 1.0000
26.2400 1712.0000 1.0000
26.2500 1710.0000 1.0000
26.2600 1735.0000 1.0000
26.2700 1678.0000 1.0000
26.2800 1700.0000 1.0000
26.2900 1753.0000 1.0000
26.3000 1810.0000 1.0000
26.3100 1791.0000 1.0000
26.3200 1711.0000 1.0000
26.3300 1720.0000 1.0000
26.3400 1664.0000 1.0000
26.3500 1708.0000 1.0000
26.3600 1696.0000 1.0000
26.3700 1691.0000 1.0000
26.3800 1800.0000 1.0000
26.3900 1786.0000 1.0000
26.4000 1743.0000 1.0000
26.4100 1747.0000 1.0000
26.4200 1752.0000 1.0000
26.4300 1791.0000 1.0000
26.4400 1711.0000 1.0000
26.4500 1839.0000 1.0000
26.4600 1767.0000 1.0000
26.4700 1774.0000 1.0000
26.4800 1802.0000 1.0000
26.4900 1792.0000 1.0000
26.5000 1771.0000 1.0000
26.5100 1759.0000 1.0000
26.5200 1736.0000 1.0000
26.5300 1745.0000 1.0000
26.5400 1751.0000 1.0000
26.5500 1839.0000 1.0000
26.5600 1804.0000 1.0000
26.5700 1795.0000 1.0000
26.5800 1854.0000 1.0000
26.5900 1852.0000 1.0000
26.6000 1831.0000 1.0000
26.6100 1864.0000 1.0000
26.6200 1830.0000 1.0000
26.6300 1843.0000 1.0000
26.6400 1800.0000 1.0000
26.6500 1817.0000 1.0000
26.6600 1796.0000 1.0000
26.6700 1908.0000 1.0000
26.6800 1831.0000 1.0000
26.6900 1879.0000 1.0000
26.7000 1904.0000 1.0000
26.7100 1865.0000 1.0000
26.7200 1879.0000 1.0000
26.7300 1883.0000 1.0000
26.7400 1796.0000 1.0000
26.7500 1878.0000 1.0000
26.7600 1890.0000 1.0000
26.7700 1877.0000 1.0000
26.7800 1883.0000 1.0000
26.7900 1837.0000 1.0000
26.8000 1899.0000 1.0000
26.8100 1900.0000 1.0000
26.8200 1928.0000 1.0000
26.8300 1919.0000 1.0000
26.8400 1863.0000 1.0000
26.8500 1826.0000 1.0000
26.8600 1898.0000 1.0000
26.8700 1977.0000 1.0000
26.8800 1972.0000 1.0000
26.8900 1962.0000 1.0000
26.9000 1958.0000 1.0000
26.9100 1964.0000 1.0000
26.9200 1947.0000 1.0000
26.9300 2002.0000 1.0000
26.9400 2054.0000 1.0000
26.9500 2073.0000 1.0000
26.9600 2090.0000 1.0000
26.9700 2141.0000 1.0000
26.9800 2146.0000 1.0000
26.9900 2152.0000 1.0000
27.0000 2215.0000 1.0000
27.0100 2220.0000 1.0000
27.0200 2363.0000 1.0000
27.0300 2261.0000 1.0000
27.0400 2267.0000 1.0000
27.0500 2409.0000 1.0000
27.0600 2398.0000 1.0000
27.0700 2441.0000 1.0000
27.0800 2508.0000 1.0000
27.0900 2596.0000 1.0000
27.1000 2495.0000 1.0000
27.1100 2714.0000 1.0000
27.1200 2754.0000 1.0000
27.1300 2854.0000 1.0000
27.1400 2908.0000 1.0000
27.1500 2970.0000 1.0000
27.1600 3060.0000 1.0000
27.1700 3158.0000 1.0000
27.1800 3267.0000 1.0000
27.1900 3474.0000 1.0000
27.2000 3564.0000 1.0000
27.2100 3763.0000 1.0000
27.2200 3838.0000 1.0000
27.2300 4076.0000 1.0000
27.2400 4211.0000 1.0000
27.2500 4423.0000 1.0000
27.2600 4752.0000 1.0000
27.2700 5130.0000 1.0000
27.2800 5093.0000 1.0000
27.2900 5271.0000 1.0000
27.3000 5501.0000 1.0000
27.3100 5738.0000 1.0000
27.3200 5895.0000 1.0000
27.3300 6135.0000 1.0000
27.3400 6268.0000 1.0000
27.3500 6346.0000 1.0000
27.3600 6395.0000 1.0000
27.3700 6292.0000 1.0000
27.3800 6175.0000 1.0000
27.3900 6143.0000 1.0000
27.4000 5993.0000 1.0000
27.4100 5799.0000 1.0000
27.4200 5481.0000 1.0000
27.4300 5281.0000 1.0000
27.4400 5029.0000 1.0000
27.4500 4833.0000 1.0000
27.4600 4718.0000 1.0000
27.4700 4357.0000 1.0000
27.4800 4179.0000 1.0000
27.4900 3934.0000 1.0000
27.5000 3708.0000 1.0000
27.5100 3623.0000 1.0000
27.5200 3410.0000 1.0000
27.5300 3365.0000 1.0000
27.5400 3239.0000 1.0000
27.5500 3091.0000 1.0000
27.5600 3070.0000 1.0000
27.5700 2905.0000 1.0000
27.5800 2716.0000 1.0000
27.5900 2662.0000 1.0000
27.6000 2659.0000 1.0000
27.6100 2532.0000 1.0000
27.6200 2490.0000 1.0000
27.6300 2533.0000 1.0000
27.6400 2486.0000 1.0000
27.6500 2376.0000 1.0000
27.6600 2319.0000 1.0000
27.6700 2283.0000 1.0000
27.6800 2281.0000 1.0000
27.6900 2248.0000 1.0000
27.7000 2111.0000 1.0000
27.7100 2139.0000 1.0000
27.7200 2181.0000 1.0000
27.7300 2093.0000 1.0000
27.7400 2095.0000 1.0000
27.7500 2027.0000 1.0000
27.7600 2075.0000 1.0000
27.7700 2106.0000 1.0000
27.7800 2022.0000 1.0000
27.7900 2024.0000 1.0000
27.8000 2015.0000 1.0000
27.8100 1988.0000 1.0000
27.8200 1908.0000 1.0000
27.8300 1911.0000 1.0000
27.8400 1868.0000 1.0000
27.8500 1857.0000 1.0000
27.8600 1947.0000 1.0000
27.8700 1852.0000 1.0000
27.8800 1897.0000 1.0000
27.8900 1956.0000 1.0000
27.9000 1896.0000 1.0000
27.9100 1891.0000 1.0000
27.9200 1876.0000 1.0000
27.9300 1821.0000 1.0000
27.9400 1832.0000 1.0000
27.9500 1792.0000 1.0000
27.9600 1819.0000 1.0000
27.9700 1812.0000 1.0000
27.9800 1744.0000 1.0000
27.9900 1831.0000 1.0000
28.0000 1824.0000 1.0000
28.0100 1794.0000 1.0000
28.0200 1724.0000 1.0000
28.0300 1722.0000 1.0000
28.0400 1766.0000 1.0000
28.0500 1787.0000 1.0000
28.0600 1778.0000 1.0000
28.0700 1726.0000 1.0000
28.0800 1786.0000 1.0000
28.0900 1808.0000 1.0000
28.1000 1774.0000 1.0000
28.1100 1801.0000 1.0000
28.1200 1839.0000 1.0000
28.1300 1813.0000 1.0000
28.1400 1703.0000 1.0000
28.1500 1752.0000 1.0000
28.1600 1762.0000 1.0000
28.1700 1716.0000 1.0000
28.1800 1713.0000 1.0000
28.1900 1774.0000 1.0000
28.2000 1696.0000 1.0000
28.2100 1725.0000 1.0000
28.2200 1686.0000 1.0000
28.2300 1677.0000 1.0000
28.2400 1700.0000 1.0000
28.2500 1735.0000 1.0000
28.2600 1726.0000 1.0000
28.2700 1678.0000 1.0000
28.2800 1693.0000 1.0000
28.2900 1754.0000 1.0000
28.3000 1688.0000 1.0000
28.3100 1699.0000 1.0000
28.3200 1693.0000 1.0000
28.3300 1723.0000 1.0000
28.3400 1715.0000 1.0000
28.3500 1690.0000 1.0000
28.3600 1712.0000 1.0000
28.3700 1752.0000 1.0000
28.3800 1756.0000 1.0000
28.3900 1692.0000 1.0000
28.4000 1704.0000 1.0000
28.4100 1651.0000 1.0000
28.4200 1726.0000 1.0000
28.4300 1720.0000 1.0000
28.4400 1701.0000 1.0000
28.4500 1645.0000 1.0000
28.4600 1650.0000 1.0000
28.4700 1726.0000 1.0000
28.4800 1688.0000 1.0000
28.4900 1648.0000 1.0000
28.5000 1662.0000 1.0000
28.5100 1679.0000 1.0000
28.5200 1667.0000 1.0000
28.5300 1704.0000 1.0000
28.5400 1765.0000 1.0000
28.5500 1701.0000 1.0000
28.5600 1725.0000 1.0000
28.5700 1751.0000 1.0000
28.5800 1707.0000 1.0000
28.5900 1623.0000 1.0000
28.6000 1650.0000 1.0000
28.6100 1653.0000 1.0000
28.6200 1629.0000 1.0000
28.6300 1630.0000 1.0000
28.6400 1653.0000 1.0000
28.6500 1649.0000 1.0000
28.6600 1691.0000 1.0000
28.6700 1623.0000 1.0000
28.6800 1593.0000 1.0000
28.6900 1705.0000 1.0000
28.7000 1711.0000 1.0000
28.7100 1668.0000 1.0000
28.7200 1617.0000 1.0000
28.7300 1707.0000 1.0000
28.7400 1631.0000 1.0000
28.7500 1621.0000 1.0000
28.7600 1659.0000 1.0000
28.7700 1592.0000 1.0000
28.7800 1680.0000 1.0000
28.7900 1674.0000 1.0000
28.8000 1677.0000 1.0000
28.8100 1645.0000 1.0000
28.8200 1700.0000 1.0000
28.8300 1661.0000 1.0000
28.8400 1637.0000 1.0000
28.8500 1652.0000 1.0000
28.8600 1565.0000 1.0000
28.8700 1655.0000 1.0000
28.8800 1649.0000 1.0000
28.8900 1623.0000 1.0000
28.9000 1651.0000 1.0000
28.9100 1637.0000 1.0000
28.9200 1599.0000 1.0000
28.9300 1611.0000 1.0000
28.9400 1666.0000 1.0000
28.9500 1663.0000 1.0000
28.9600 1705.0000 1.0000
28.9700 1648.0000 1.0000
28.9800 1656.0000 1.0000
28.9900 1613.0000 1.0000
29.0000 1662.0000 1.0000
29.0100 1630.0000 1.0000
29.0200 1595.0000 1.0000
29.0300 1648.0000 1.0000
29.0400 1653.0000 1.0000
29.0500 1604.0000 1.0000
29.0600 1657.0000 1.0000
29.0700 1605.0000 1.0000
29.0800 1560.0000 1.0000
29.0900 1620.0000 1.0000
29.1000 1630.0000 1.0000
29.1100 1609.0000 1.0000
29.1200 1593.0000 1.0000
29.1300 1624.0000 1.0000
29.1400 1586.0000 1.0000
29.1500 1578.0000 1.0000
29.1600 1648.0000 1.0000
29.1700 1603.0000 1.0000
29.1800 1607.0000 1.0000
29.1900 1556.0000 1.0000
29.2000 1636.0000 1.0000
29.2100 1613.0000 1.0000
29.2200 1612.0000 1.0000
29.2300 1591.0000 1.0000
29.2400 1676.0000 1.0000
29.2500 1666.0000 1.0000
29.2600 1601.0000 1.0000
29.2700 1575.0000 1.0000
29.2800 1560.0000 1.0000
29.2900 1565.0000 1.0000
29.3000 1615.0000 1.0000
29.3100 1633.0000 1.0000
29.3200 1592.0000 1.0000
29.3300 1594.0000 1.0000
29.3400 1593.0000 1.0000
29.3500 1579.0000 1.0000
29.3600 1610.0000 1.0000
29.3700 1573.0000 1.0000
29.3800 1583.0000 1.0000
29.3900 1654.0000 1.0000
29.4000 1574.0000 1.0000
29.4100 1588.0000 1.0000
29.4200 1573.0000 1.0000
29.4300 1618.0000 1.0000
29.4400 1596.0000 1.0000
29.4500 1547.0000 1.0000
29.4600 1626.0000 1.0000
29.4700 1582.0000 1.0000
29.4800 1560.0000 1.0000
29.4900 1588.0000 1.0000
29.5000 1597.0000 1.0000
29.5100 1628.0000 1.0000
29.5200 1639.0000 1.0000
29.5300 1647.0000 1.0000
29.5400 1577.0000 1.0000
29.5500 1596.0000 1.0000
29.5600 1590.0000 1.0000
29.5700 1591.0000 1.0000
29.5800 1509.0000 1.0000
29.5900 1584.0000 1.0000
29.6000 1626.0000 1.0000
29.6100 1584.0000 1.0000
29.6200 1617.0000 1.0000
29.6300 1599.0000 1.0000
29.6400 1530.0000 1.0000
29.6500 1549.0000 1.0000
29.6600 1641.0000 1.0000
29.6700 1553.0000 1.0000
29.6800 1621.0000 1.0000
29.6900 1634.0000 1.0000
29.7000 1589.0000 1.0000
29.7100 1494.0000 1.0000
29.7200 1606.0000 1.0000
29.7300 1594.0000 1.0000
29.7400 1635.0000 1.0000
29.7500 1548.0000 1.0000
29.7600 1582.0000 1.0000
29.7700 1671.0000 1.0000
29.7800 1543.0000 1.0000
29.7900 1597.0000 1.0000
29.8000 1561.0000 1.0000
29.8100 1591.0000 1.0000
29.8200 1624.0000 1.0000
29.8300 1523.0000 1.0000
29.8400 1522.0000 1.0000
29.8500 1497.0000 1.0000
29.8600 1551.0000 1.0000
29.8700 1525.0000 1.0000
29.8800 1582.0000 1.0000
29.8900 1555.0000 1.0000
29.9000 1607.0000 1.0000
29.9100 1577.0000 1.0000
29.9200 1606.0000 1.0000
29.9300 1650.0000 1.0000
29.9400 1634.0000 1.0000
29.9500 1516.0000 1.0000
29.9600 1509.0000 1.0000
29.9700 1517.0000 1.0000
29.9800 1539.0000 1.0000
29.9900 1560.0000 1.0000
30.0000 1606.0000 1.0000
30.0100 1544.0000 1.0000
30.0200 1523.0000 1.0000
30.0300 1570.0000 1.0000
30.0400 1570.0000 1.0000
30.0500 1568.0000 1.0000
30.0600 1560.0000 1.0000
30.0700 1541.0000 1.0000
30.0800 1554.0000 1.0000
30.0900 1623.0000 1.0000
30.1000 1569.0000 1.0000
30.1100 1596.0000 1.0000
30.1200 1580.0000 1.0000
30.1300 1482.0000 1.0000
30.1400 1486.0000 1.0000
30.1500 1572.0000 1.0000
30.1600 1527.0000 1.0000
30.1700 1548.0000 1.0000
30.1800 1549.0000 1.0000
30.1900 1488.0000 1.0000
30.2000 1564.0000 1.0000
30.2100 1588.0000 1.0000
30.2200 1465.0000 1.0000
30.2300 1558.0000 1.0000
30.2400 1560.0000 1.0000
30.2500 1463.0000 1.0000
30.2600 1542.0000 1.0000
30.2700 1538.0000 1.0000
30.2800 1522.0000 1.0000
30.2900 1563.0000 1.0000
30.3000 1506.0000 1.0000
30.3100 1509.0000 1.0000
30.3200 1534.0000 1.0000
30.3300 1484.0000 1.0000
30.3400 1513.0000 1.0000
30.3500 1555.0000 1.0000
30.3600 1513.0000 1.0000
30.3700 1576.0000 1.0000
30.3800 1529.0000 1.0000
30.3900 1503.0000 1.0000
30.4000 1570.0000 1.0000
30.4100 1513.0000 1.0000
30.4200 1502.0000 1.0000
30.4300 1528.0000 1.0000
30.4400 1586.0000 1.0000
30.4500 1550.0000 1.0000
30.4600 1553.0000 1.0000
30.4700 1545.0000 1.0000
30.4800 1567.0000 1.0000
30.4900 1543.0000 1.0000
30.5000 1562.0000 1.0000
30.5100 1485.0000 1.0000
30.5200 1492.0000 1.0000
30.5300 1536.0000 1.0000
30.5400 1574.0000 1.0000
30.5500 1524.0000 1.0000
30.5600 1487.0000 1.0000
30.5700 1524.0000 1.0000
30.5800 1505.0000 1.0000
30.5900 1461.0000 1.0000
30.6000 1526.0000 1.0000
30.6100 1537.0000 1.0000
30.6200 1540.0000 1.0000
30.6300 1539.0000 1.0000
30.6400 1565.0000 1.0000
30.6500 1451.0000 1.0000
30.6600 1472.0000 1.0000
30.6700 1512.0000 1.0000
30.6800 1510.0000 1.0000
30.6900 1490.0000 1.0000
30.7000 1511.0000 1.0000
30.7100 1510.0000 1.0000
30.7200 1477.0000 1.0000
30.7300 1571.0000 1.0000
30.7400 1530.0000 1.0000
30.7500 1496.0000 1.0000
30.7600 1548.0000 1.0000
30.7700 1510.0000 1.0000
30.7800 1480.0000 1.0000
30.7900 1404.0000 1.0000
30.8000 1532.0000 1.0000
30.8100 1462.0000 1.0000
30.8200 1556.0000 1.0000
30.8300 1516.0000 1.0000
30.8400 1505.0000 1.0000
30.8500 1540.0000 1.0000
30.8600 1576.0000 1.0000
30.8700 1507.0000 1.0000
30.8800 1553.0000 1.0000
30.8900 1476.0000 1.0000
30.9000 1522.0000 1.0000
30.9100 1525.0000 1.0000
30.9200 1511.0000 1.0000
30.9300 1476.0000 1.0000
30.9400 1499.0000 1.0000
30.9500 1525.0000 1.0000
30.9600 1519.0000 1.0000
30.9700 1543.0000 1.0000
30.9800 1517.0000 1.0000
30.9900 1502.0000 1.0000
31.0000 1437.0000 1.0000
31.0100 1456.0000 1.0000
31.0200 1516.0000 1.0000
31.0300 1460.0000 1.0000
31.0400 1528.0000 1.0000
31.0500 1469.0000 1.0000
31.0600 1552.0000 1.0000
31.0700 1522.0000 1.0000
31.0800 1455.0000 1.0000
31.0900 1581.0000 1.0000
31.1000 1479.0000 1.0000
31.1100 1489.0000 1.0000
31.1200 1405.0000 1.0000
31.1300 1478.0000 1.0000
31.1400 1567.0000 1.0000
31.1500 1549.0000 1.0000
31.1600 1502.0000 1.0000
31.1700 1521.0000 1.0000
31.1800 1574.0000 1.0000
31.1900 1467.0000 1.0000
31.2000 1420.0000 1.0000
31.2100 1454.0000 1.0000
31.2200 1514.0000 1.0000
31.2300 1498.0000 1.0000
31.2400 1554.0000 1.0000
31.2500 1526.0000 1.0000
31.2600 1489.0000 1.0000
31.2700 1479.0000 1.0000
31.2800 1498.0000 1.0000
31.2900 1517.0000 1.0000
31.3000 1505.0000 1.0000
31.3100 1489.0000 1.0000
31.3200 1515.0000 1.0000
31.3300 1464.0000 1.0000
31.3400 1476.0000 1.0000
31.3500 1463.0000 1.0000
31.3600 1491.0000 1.0000
31.3700 1484.0000 1.0000
31.3800 1488.0000 1.0000
31.3900 1485.0000 1.0000
31.4000 1493.0000 1.0000
31.4100 1457.0000 1.0000
31.4200 1480.0000 1.0000
31.4300 1454.0000 1.0000
31.4400 1382.0000 1.0000
31.4500 1491.0000 1.0000
31.4600 1545.0000 1.0000
31.4700 1553.0000 1.0000
31.4800 1503.0000 1.0000
31.4900 1466.0000 1.0000
31.5000 1407.0000 1.0000
31.5100 1538.0000 1.0000
31.5200 1538.0000 1.0000
31.5300 1446.0000 1.0000
31.5400 1506.0000 1.0000
31.5500 1506.0000 1.0000
31.5600 1470.0000 1.0000
31.5700 1447.0000 1.0000
31.5800 1486.0000 1.0000
31.5900 1494.0000 1.0000
31.6000 1485.0000 1.0000
31.6100 1470.0000 1.0000
31.6200 1420.0000 1.0000
31.6300 1541.0000 1.0000
31.6400 1472.0000 1.0000
31.6500 1467.0000 1.0000
31.6600 1484.0000 1.0000
31.6700 1475.0000 1.0000
31.6800 1460.0000 1.0000
31.6900 1465.0000 1.0000
31.7000 1519.0000 1.0000
31.7100 1460.0000 1.0000
31.7200 1448.0000 1.0000
31.7300 1412.0000 1.0000
31.7400 1475.0000 1.0000
31.7500 1485.0000 1.0000
31.7600 1421.0000 1.0000
31.7700 1451.0000 1.0000
31.7800 1427.0000 1.0000
31.7900 1462.0000 1.0000
31.8000 1423.0000 1.0000
31.8100 1461.0000 1.0000
31.8200 1446.0000 1.0000
31.8300 1440.0000 1.0000
31.8400 1474.0000 1.0000
31.8500 1441.0000 1.0000
31.8600 1453.0000 1.0000
31.8700 1419.0000 1.0000
31.8800 1457.0000 1.0000
31.8900 1462.0000 1.0000
31.9000 1447.0000 1.0000
31.9100 1451.0000 1.0000
31.9200 1428.0000 1.0000
31.9300 1520.0000 1.0000
31.9400 1493.0000 1.0000
31.9500 1527.0000 1.0000
31.9600 1455.0000 1.0000
31.9700 1491.0000 1.0000
31.9800 1455.0000 1.0000
31.9900 1508.0000 1.0000
32.0000 1505.0000 1.0000
32.0100 1561.0000 1.0000
32.0200 1487.0000 1.0000
32.0300 1530.0000 1.0000
32.0400 1505.0000 1.0000
32.0500 1493.0000 1.0000
32.0600 1541.0000 1.0000
32.0700 1539.0000 1.0000
32.0800 1460.0000 1.0000
32.0900 1521.0000 1.0000
32.1000 1519.0000 1.0000
32.1100 1527.0000 1.0000
32.1200 1506.0000 1.0000
32.1300 1490.0000 1.0000
32.1400 1484.0000 1.0000
32.1500 1504.0000 1.0000
32.1600 1496.0000 1.0000
32.1700 1521.0000 1.0000
32.1800 1445.0000 1.0000
32.1900 1494.0000 1.0000
32.2000 1448.0000 1.0000
32.2100 1475.0000 1.0000
32.2200 1427.0000 1.0000
32.2300 1462.0000 1.0000
32.2400 1431.0000 1.0000
32.2500 1509.0000 1.0000
32.2600 1402.0000 1.0000
32.2700 1496.0000 1.0000
32.2800 1433.0000 1.0000
32.2900 1458.0000 1.0000
32.3000 1492.0000 1.0000
32.3100 1511.0000 1.0000
32.3200 1457.0000 1.0000
32.3300 1383.0000 1.0000
32.3400 1386.0000 1.0000
32.3500 1424.0000 1.0000
32.3600 1447.0000 1.0000
32.3700 1433.0000 1.0000
32.3800 1470.0000 1.0000
32.3900 1437.0000 1.0000
32.4000 1434.0000 1.0000
32.4100 1398.0000 1.0000
32.4200 1411.0000 1.0000
32.4300 1417.0000 1.0000
32.4400 1488.0000 1.0000
32.4500 1419.0000 1.0000
32.4600 1480.0000 1.0000
32.4700 1469.0000 1.0000
32.4800 1456.0000 1.0000
32.4900 1438.0000 1.0000
32.5000 1414.0000 1.0000
32.5100 1391.0000 1.0000
32.5200 1424.0000 1.0000
32.5300 1461.0000 1.0000
32.5400 1433.0000 1.0000
32.5500 1509.0000 1.0000
32.5600 1433.0000 1.0000
32.5700 1453.0000 1.0000
32.5800 1393.0000 1.0000
32.5900 1473.0000 1.0000
32.6000 1446.0000 1.0000
32.6100 1452.0000 1.0000
32.6200 1421.0000 1.0000
32.6300 1397.0000 1.0000
32.6400 1374.0000 1.0000
32.6500 1391.0000 1.0000
32.6600 1434.0000 1.0000
32.6700 1461.0000 1.0000
32.6800 1443.0000 1.0000
32.6900 1448.0000 1.0000
32.7000 1372.0000 1.0000
32.7100 1419.0000 1.0000
32.7200 1408.0000 1.0000
32.7300 1342.0000 1.0000
32.7400 1431.0000 1.0000
32.7500 1500.0000 1.0000
32.7600 1404.0000 1.0000
32.7700 1386.0000 1.0000
32.7800 1427.0000 1.0000
32.7900 1412.0000 1.0000
32.8000 1423.0000 1.0000
32.8100 1378.0000 1.0000
32.8200 1361.0000 1.0000
32.8300 1432.0000 1.0000
32.8400 1403.0000 1.0000
32.8500 1379.0000 1.0000
32.8600 1360.0000 1.0000
32.8700 1396.0000 1.0000
32.8800 1362.0000 1.0000
32.8900 1421.0000 1.0000
32.9000 1384.0000 1.0000
32.9100 1406.0000 1.0000
32.9200 1432.0000 1.0000
32.9300 1450.0000 1.0000
32.9400 1441.0000 1.0000
32.9500 1367.0000 1.0000
32.9600 1393.0000 1.0000
32.9700 1454.0000 1.0000
32.9800 1403.0000 1.0000
32.9900 1389.0000 1.0000
33.0000 1450.0000 1.0000
33.0100 1376.0000 1.0000
33.0200 1405.0000 1.0000
33.0300 1391.0000 1.0000
33.0400 1424.0000 1.0000
33.0500 1409.0000 1.0000
33.0600 1399.0000 1.0000
33.0700 1402.0000 1.0000
33.0800 1388.0000 1.0000
33.0900 1363.0000 1.0000
33.1000 1365.0000 1.0000
33.1100 1385.0000 1.0000
33.1200 1443.0000 1.0000
33.1300 1322.0000 1.0000
33.1400 1376.0000 1.0000
33.1500 1375.0000 1.0000
33.1600 1399.0000 1.0000
33.1700 1394.0000 1.0000
33.1800 1373.0000 1.0000
33.1900 1343.0000 1.0000
33.2000 1375.0000 1.0000
33.2100 1370.0000 1.0000
33.2200 1412.0000 1.0000
33.2300 1347.0000 1.0000
33.2400 1403.0000 1.0000
33.2500 1374.0000 1.0000
33.2600 1412.0000 1.0000
33.2700 1372.0000 1.0000
33.2800 1369.0000 1.0000
33.2900 1405.0000 1.0000
33.3000 1406.0000 1.0000
33.3100 1355.0000 1.0000
33.3200 1369.0000 1.0000
33.3300 1306.0000 1.0000
33.3400 1320.0000 1.0000
33.3500 1358.0000 1.0000
33.3600 1361.0000 1.0000
33.3700 1375.0000 1.0000
33.3800 1385.0000 1.0000
33.3900 1376.0000 1.0000
33.4000 1340.0000 1.0000
33.4100 1405.0000 1.0000
33.4200 1402.0000 1.0000
33.4300 1374.0000 1.0000
33.4400 1404.0000 1.0000
33.4500 1376.0000 1.0000
33.4600 1373.0000 1.0000
33.4700 1398.0000 1.0000
33.4800 1428.0000 1.0000
33.4900 1403.0000 1.0000
33.5000 1328.0000 1.0000
33.5100 1370.0000 1.0000
33.5200 1371.0000 1.0000
33.5300 1417.0000 1.0000
33.5400 1402.0000 1.0000
33.5500 1384.0000 1.0000
33.5600 1397.0000 1.0000
33.5700 1352.0000 1.0000
33.5800 1398.0000 1.0000
33.5900 1442.0000 1.0000
33.6000 1517.0000 1.0000
33.6100 1356.0000 1.0000
33.6200 1420.0000 1.0000
33.6300 1378.0000 1.0000
33.6400 1388.0000 1.0000
33.6500 1369.0000 1.0000
33.6600 1494.0000 1.0000
33.6700 1470.0000 1.0000
33.6800 1435.0000 1.0000
33.6900 1361.0000 1.0000
33.7000 1450.0000 1.0000
33.7100 1402.0000 1.0000
33.7200 1404.0000 1.0000
33.7300 1438.0000 1.0000
33.7400 1430.0000 1.0000
33.7500 1428.0000 1.0000
33.7600 1416.0000 1.0000
33.7700 1430.0000 1.0000
33.7800 1429.0000 1.0000
33.7900 1451.0000 1.0000
33.8000 1520.0000 1.0000
33.8100 1523.0000 1.0000
33.8200 1412.0000 1.0000
33.8300 1441.0000 1.0000
33.8400 1496.0000 1.0000
33.8500 1398.0000 1.0000
33.8600 1503.0000 1.0000
33.8700 1429.0000 1.0000
33.8800 1474.0000 1.0000
33.8900 1537.0000 1.0000
33.9000 1508.0000 1.0000
33.9100 1538.0000 1.0000
33.9200 1469.0000 1.0000
33.9300 1494.0000 1.0000
33.9400 1498.0000 1.0000
33.9500 1487.0000 1.0000
33.9600 1505.0000 1.0000
33.9700 1473.0000 1.0000
33.9800 1519.0000 1.0000
33.9900 1535.0000 1.0000
34.0000 1594.0000 1.0000
34.0100 1492.0000 1.0000
34.0200 1534.0000 1.0000
34.0300 1532.0000 1.0000
34.0400 1523.0000 1.0000
34.0500 1547.0000 1.0000
34.0600 1563.0000 1.0000
34.0700 1538.0000 1.0000
34.0800 1525.0000 1.0000
34.0900 1523.0000 1.0000
34.1000 1520.0000 1.0000
34.1100 1509.0000 1.0000
34.1200 1565.0000 1.0000
34.1300 1528.0000 1.0000
34.1400 1504.0000 1.0000
34.1500 1558.0000 1.0000
34.1600 1626.0000 1.0000
34.1700 1515.0000 1.0000
34.1800 1546.0000 1.0000
34.1900 1616.0000 1.0000
34.2000 1546.0000 1.0000
34.2100 1566.0000 1.0000
34.2200 1555.0000 1.0000
34.2300 1580.0000 1.0000
34.2400 1632.0000 1.0000
34.2500 1621.0000 1.0000
34.2600 1587.0000 1.0000
34.2700 1671.0000 1.0000
34.2800 1650.0000 1.0000
34.2900 1694.0000 1.0000
34.3000 1646.0000 1.0000
34.3100 1696.0000 1.0000
34.3200 1728.0000 1.0000
34.3300 1732.0000 1.0000
34.3400 1778.0000 1.0000
34.3500 1877.0000 1.0000
34.3600 1887.0000 1.0000
34.3700 1889.0000 1.0000
34.3800 1886.0000 1.0000
34.3900 1920.0000 1.0000
34.4000 2000.0000 1.0000
34.4100 2114.0000 1.0000
34.4200 2145.0000 1.0000
34.4300 2270.0000 1.0000
34.4400 2297.0000 1.0000
34.4500 2412.0000 1.0000
34.4600 2470.0000 1.0000
34.4700 2495.0000 1.0000
34.4800 2537.0000 1.0000
34.4900 2609.0000 1.0000
34.5000 2729.0000 1.0000
34.5100 2855.0000 1.0000
34.5200 2838.0000 1.0000
34.5300 2865.0000 1.0000
34.5400 2909.0000 1.0000
34.5500 2937.0000 1.0000
34.5600 2921.0000 1.0000
34.5700 3006.0000 1.0000
34.5800 2936.0000 1.0000
34.5900 2855.0000 1.0000
34.6000 2771.0000 1.0000
34.6100 2702.0000 1.0000
34.6200 2600.0000 1.0000
34.6300 2636.0000 1.0000
34.6400 2542.0000 1.0000
34.6500 2468.0000 1.0000
34.6600 2336.0000 1.0000
34.6700 2262.0000 1.0000
34.6800 2240.0000 1.0000
34.6900 2236.0000 1.0000
34.7000 2067.0000 1.0000
34.7100 1975.0000 1.0000
34.7200 2000.0000 1.0000
34.7300 1921.0000 1.0000
34.7400 1862.0000 1.0000
34.7500 1861.0000 1.0000
34.7600 1850.0000 1.0000
34.7700 1789.0000 1.0000
34.7800 1793.0000 1.0000
34.7900 1735.0000 1.0000
34.8000 1655.0000 1.0000
34.8100 1706.0000 1.0000
34.8200 1642.0000 1.0000
34.8300 1600.0000 1.0000
34.8400 1680.0000 1.0000
34.8500 1641.0000 1.0000
34.8600 1576.0000 1.0000
34.8700 1603.0000 1.0000
34.8800 1527.0000 1.0000
34.8900 1495.0000 1.0000
34.9000 1528.0000 1.0000
34.9100 1525.0000 1.0000
34.9200 1460.0000 1.0000
34.9300 1427.0000 1.0000
34.9400 1490.0000 1.0000
34.9500 1417.0000 1.0000
34.9600 1437.0000 1.0000
34.9700 1446.0000 1.0000
34.9800 1442.0000 1.0000
34.9900 1421.0000 1.0000
35.0000 1374.0000 1.0000
35.0100 1383.0000 1.0000
35.0200 1403.0000 1.0000
35.0300 1423.0000 1.0000
35.0400 1377.0000 1.0000
35.0500 1402.0000 1.0000
35.0600 1388.0000 1.0000
35.0700 1368.0000 1.0000
35.0800 1443.0000 1.0000
35.0900 1381.0000 1.0000
35.1000 1352.0000 1.0000
35.1100 1312.0000 1.0000
35.1200 1327.0000 1.0000
35.1300 1339.0000 1.0000
35.1400 1283.0000 1.0000
35.1500 1267.0000 1.0000
35.1600 1325.0000 1.0000
35.1700 1319.0000 1.0000
35.1800 1319.0000 1.0000
35.1900 1363.0000 1.0000
35.2000 1332.0000 1.0000
35.2100 1278.0000 1.0000
35.2200 1305.0000 1.0000
35.2300 1312.0000 1.0000
35.2400 1287.0000 1.0000
35.2500 1268.0000 1.0000
35.2600 1220.0000 1.0000
35.2700 1294.0000 1.0000
35.2800 1318.0000 1.0000
35.2900 1284.0000 1.0000
35.3000 1291.0000 1.0000
35.3100 1311.0000 1.0000
35.3200 1343.0000 1.0000
35.3300 1283.0000 1.0000
35.3400 1233.0000 1.0000
35.3500 1254.0000 1.0000
35.3600 1256.0000 1.0000
35.3700 1307.0000 1.0000
35.3800 1268.0000 1.0000
35.3900 1236.0000 1.0000
35.4000 1267.0000 1.0000
35.4100 1259.0000 1.0000
35.4200 1252.0000 1.0000
35.4300 1314.0000 1.0000
35.4400 1289.0000 1.0000
35.4500 1267.0000 1.0000
35.4600 1243.0000 1.0000
35.4700 1243.0000 1.0000
35.4800 1225.0000 1.0000
35.4900 1189.0000 1.0000
35.5000 1220.0000 1.0000
35.5100 1246.0000 1.0000
35.5200 1218.0000 1.0000
35.5300 1231.0000 1.0000
35.5400 1261.0000 1.0000
35.5500 1277.0000 1.0000
35.5600 1211.0000 1.0000
35.5700 1248.0000 1.0000
35.5800 1255.0000 1.0000
35.5900 1242.0000 1.0000
35.6000 1232.0000 1.0000
35.6100 1197.0000 1.0000
35.6200 1224.0000 1.0000
35.6300 1205.0000 1.0000
35.6400 1214.0000 1.0000
35.6500 1195.0000 1.0000
35.6600 1230.0000 1.0000
35.6700 1231.0000 1.0000
35.6800 1236.0000 1.0000
35.6900 1203.0000 1.0000
35.7000 1254.0000 1.0000
35.7100 1214.0000 1.0000
35.7200 1226.0000 1.0000
35.7300 1204.0000 1.0000
35.7400 1237.0000 1.0000
35.7500 1167.0000 1.0000
35.7600 1151.0000 1.0000
35.7700 1242.0000 1.0000
35.7800 1217.0000 1.0000
35.7900 1189.0000 1.0000
35.8000 1247.0000 1.0000
35.8100 1201.0000 1.0000
35.8200 1227.0000 1.0000
35.8300 1197.0000 1.0000
35.8400 1232.0000 1.0000
35.8500 1218.0000 1.0000
35.8600 1152.0000 1.0000
35.8700 1259.0000 1.0000
35.8800 1279.0000 1.0000
35.8900 1250.0000 1.0000
35.9000 1233.0000 1.0000
35.9100 1230.0000 1.0000
35.9200 1264.0000 1.0000
35.9300 1204.0000 1.0000
35.9400 1270.0000 1.0000
35.9500 1224.0000 1.0000
35.9600 1262.0000 1.0000
35.9700 1239.0000 1.0000
35.9800 1201.0000 1.0000
35.9900 1203.0000 1.0000
36.0000 1204.0000 1.0000
36.0100 1252.0000 1.0000
36.0200 1189.0000 1.0000
36.0300 1233.0000 1.0000
36.0400 1269.0000 1.0000
36.0500 1249.0000 1.0000
36.0600 1271.0000 1.0000
36.0700 1294.0000 1.0000
36.0800 1299.0000 1.0000
36.0900 1270.0000 1.0000
36.1000 1276.0000 1.0000
36.1100 1286.0000 1.0000
36.1200 1306.0000 1.0000
36.1300 1317.0000 1.0000
36.1400 1313.0000 1.0000
36.1500 1275.0000 1.0000
36.1600 1350.0000 1.0000
36.1700 1331.0000 1.0000
36.1800 1386.0000 1.0000
36.1900 1381.0000 1.0000
36.2000 1332.0000 1.0000
36.2100 1385.0000 1.0000
36.2200 1432.0000 1.0000
36.2300 1448.0000 1.0000
36.2400 1434.0000 1.0000
36.2500 1461.0000 1.0000
36.2600 1483.0000 1.0000
36.2700 1511.0000 1.0000
36.2800 1573.0000 1.0000
36.2900 1552.0000 1.0000
36.3000 1541.0000 1.0000
36.3100 1605.0000 1.0000
36.3200 1616.0000 1.0000
36.3300 1625.0000 1.0000
36.3400 1642.0000 1.0000
36.3500 1780.0000 1.0000
36.3600 1745.0000 1.0000
36.3700 1925.0000 1.0000
36.3800 1920.0000 1.0000
36.3900 1860.0000 1.0000
36.4000 1920.0000 1.0000
36.4100 1922.0000 1.0000
36.4200 1972.0000 1.0000
36.4300 1961.0000 1.0000
36.4400 2042.0000 1.0000
36.4500 2058.0000 1.0000
36.4600 2033.0000 1.0000
36.4700 1996.0000 1.0000
36.4800 2065.0000 1.0000
36.4900 2069.0000 1.0000
36.5000 1977.0000 1.0000
36.5100 1930.0000 1.0000
36.5200 1910.0000 1.0000
36.5300 2008.0000 1.0000
36.5400 1921.0000 1.0000
36.5500 1839.0000 1.0000
36.5600 1865.0000 1.0000
36.5700 1808.0000 1.0000
36.5800 1735.0000 1.0000
36.5900 1751.0000 1.0000
36.6000 1750.0000 1.0000
36.6100 1790.0000 1.0000
36.6200 1728.0000 1.0000
36.6300 1602.0000 1.0000
36.6400 1578.0000 1.0000
36.6500 1545.0000 1.0000
36.6600 1544.0000 1.0000
36.6700 1533.0000 1.0000
36.6800 1546.0000 1.0000
36.6900 1474.0000 1.0000
36.7000 1443.0000 1.0000
36.7100 1427.0000 1.0000
36.7200 1401.0000 1.0000
36.7300 1400.0000 1.0000
36.7400 1334.0000 1.0000
36.7500 1320.0000 1.0000
36.7600 1319.0000 1.0000
36.7700 1318.0000 1.0000
36.7800 1275.0000 1.0000
36.7900 1294.0000 1.0000
36.8000 1291.0000 1.0000
36.8100 1287.0000 1.0000
36.8200 1256.0000 1.0000
36.8300 1208.0000 1.0000
36.8400 1188.0000 1.0000
36.8500 1214.0000 1.0000
36.8600 1187.0000 1.0000
36.8700 1157.0000 1.0000
36.8800 1215.0000 1.0000
36.8900 1278.0000 1.0000
36.9000 1218.0000 1.0000
36.9100 1225.0000 1.0000
36.9200 1209.0000 1.0000
36.9300 1172.0000 1.0000
36.9400 1146.0000 1.0000
36.9500 1157.0000 1.0000
36.9600 1154.0000 1.0000
36.9700 1163.0000 1.0000
36.9800 1185.0000 1.0000
36.9900 1157.0000 1.0000
37.0000 1157.0000 1.0000
37.0100 1114.0000 1.0000
37.0200 1124.0000 1.0000
37.0300 1185.0000 1.0000
37.0400 1145.0000 1.0000
37.0500 1128.0000 1.0000
37.0600 1168.0000 1.0000
37.0700 1146.0000 1.0000
37.0800 1123.0000 1.0000
37.0900 1129.0000 1.0000
37.1000 1161.0000 1.0000
37.1100 1161.0000 1.0000
37.1200 1135.0000 1.0000
37.1300 1123.0000 1.0000
37.1400 1143.0000 1.0000
37.1500 1135.0000 1.0000
37.1600 1090.0000 1.0000
37.1700 1042.0000 1.0000
37.1800 1143.0000 1.0000
37.1900 1172.0000 1.0000
37.2000 1152.0000 1.0000
37.2100 1140.0000 1.0000
37.2200 1162.0000 1.0000
37.2300 1151.0000 1.0000
37.2400 1092.0000 1.0000
37.2500 1074.0000 1.0000
37.2600 1148.0000 1.0000
37.2700 1102.0000 1.0000
37.2800 1152.0000 1.0000
37.2900 1124.0000 1.0000
37.3000 1110.0000 1.0000
37.3100 1135.0000 1.0000
37.3200 1127.0000 1.0000
37.3300 1149.0000 1.0000
37.3400 1111.0000 1.0000
37.3500 1097.0000 1.0000
37.3600 1125.0000 1.0000
37.3700 1162.0000 1.0000
37.3800 1154.0000 1.0000
37.3900 1105.0000 1.0000
37.4000 1094.0000 1.0000
37.4100 1129.0000 1.0000
37.4200 1180.0000 1.0000
37.4300 1160.0000 1.0000
37.4400 1128.0000 1.0000
37.4500 1125.0000 1.0000
37.4600 1160.0000 1.0000
37.4700 1130.0000 1.0000
37.4800 1119.0000 1.0000
37.4900 1163.0000 1.0000
37.5000 1144.0000 1.0000
37.5100 1124.0000 1.0000
37.5200 1096.0000 1.0000
37.5300 1130.0000 1.0000
37.5400 1152.0000 1.0000
37.5500 1094.0000 1.0000
37.5600 1125.0000 1.0000
37.5700 1153.0000 1.0000
37.5800 1130.0000 1.0000
37.5900 1125.0000 1.0000
37.6000 1116.0000 1.0000
37.6100 1169.0000 1.0000
37.6200 1139.0000 1.0000
37.6300 1106.0000 1.0000
37.6400 1157.0000 1.0000
37.6500 1189.0000 1.0000
37.6600 1177.0000 1.0000
37.6700 1108.0000 1.0000
37.6800 1174.0000 1.0000
37.6900 1182.0000 1.0000
37.7000 1189.0000 1.0000
37.7100 1155.0000 1.0000
37.7200 1152.0000 1.0000
37.7300 1126.0000 1.0000
37.7400 1108.0000 1.0000
37.7500 1111.0000 1.0000
37.7600 1086.0000 1.0000
37.7700 1123.0000 1.0000
37.7800 1151.0000 1.0000
37.7900 1150.0000 1.0000
37.8000 1113.0000 1.0000
37.8100 1088.0000 1.0000
37.8200 1139.0000 1.0000
37.8300 1126.0000 1.0000
37.8400 1134.0000 1.0000
37.8500 1106.0000 1.0000
37.8600 1125.0000 1.0000
37.8700 1138.0000 1.0000
37.8800 1108.0000 1.0000
37.8900 1139.0000 1.0000
37.9000 1160.0000 1.0000
37.9100 1117.0000 1.0000
37.9200 1127.0000 1.0000
37.9300 1125.0000 1.0000
37.9400 1149.0000 1.0000
37.9500 1183.0000 1.0000
37.9600 1197.0000 1.0000
37.9700 1164.0000 1.0000
37.9800 1144.0000 1.0000
37.9900 1188.0000 1.0000
38.0000 1173.0000 1.0000
38.0100 1208.0000 1.0000
38.0200 1191.0000 1.0000
38.0300 1173.0000 1.0000
38.0400 1197.0000 1.0000
38.0500 1214.0000 1.0000
38.0600 1178.0000 1.0000
38.0700 1189.0000 1.0000
38.0800 1244.0000 1.0000
38.0900 1225.0000 1.0000
38.1000 1179.0000 1.0000
38.1100 1218.0000 1.0000
38.1200 1297.0000 1.0000
38.1300 1252.0000 1.0000
38.1400 1289.0000 1.0000
38.1500 1280.0000 1.0000
38.1600 1332.0000 1.0000
38.1700 1382.0000 1.0000
38.1800 1360.0000 1.0000
38.1900 1372.0000 1.0000
38.2000 1377.0000 1.0000
38.2100 1377.0000 1.0000
38.2200 1458.0000 1.0000
38.2300 1566.0000 1.0000
38.2400 1517.0000 1.0000
38.2500 1560.0000 1.0000
38.2600 1553.0000 1.0000
38.2700 1633.0000 1.0000
38.2800 1687.0000 1.0000
38.2900 1755.0000 1.0000
38.3000 1838.0000 1.0000
38.3100 1899.0000 1.0000
38.3200 1972.0000 1.0000
38.3300 2034.0000 1.0000
38.3400 2035.0000 1.0000
38.3500 2168.0000 1.0000
38.3600 2224.0000 1.0000
38.3700 2317.0000 1.0000
38.3800 2528.0000 1.0000
38.3900 2574.0000 1.0000
38.4000 2658.0000 1.0000
38.4100 2833.0000 1.0000
38.4200 3109.0000 1.0000
38.4300 3230.0000 1.0000
38.4400 3507.0000 1.0000
38.4500 3606.0000 1.0000
38.4600 3973.0000 1.0000
38.4700 4165.0000 1.0000
38.4800 4472.0000 1.0000
38.4900 4852.0000 1.0000
38.5000 4980.0000 1.0000
38.5100 5500.0000 1.0000
38.5200 5748.0000 1.0000
38.5300 6037.0000 1.0000
38.5400 6388.0000 1.0000
38.5500 6615.0000 1.0000
38.5600 6779.0000 1.0000
38.5700 7050.0000 1.0000
38.5800 7293.0000 1.0000
38.5900 7271.0000 1.0000
38.6000 7278.0000 1.0000
38.6100 7313.0000 1.0000
38.6200 7377.0000 1.0000
38.6300 7304.0000 1.0000
38.6400 6983.0000 1.0000
38.6500 6669.0000 1.0000
38.6600 6448.0000 1.0000
38.6700 6352.0000 1.0000
38.6800 6007.0000 1.0000
38.6900 5637.0000 1.0000
38.7000 5446.0000 1.0000
38.7100 5159.0000 1.0000
38.7200 4836.0000 1.0000
38.7300 4655.0000 1.0000
38.7400 4201.0000 1.0000
38.7500 3981.0000 1.0000
38.7600 3694.0000 1.0000
38.7700 3526.0000 1.0000
38.7800 3294.0000 1.0000
38.7900 3138.0000 1.0000
38.8000 2973.0000 1.0000
38.8100 2838.0000 1.0000
38.8200 2654.0000 1.0000
38.8300 2448.0000 1.0000
38.8400 2339.0000 1.0000
38.8500 2220.0000 1.0000
38.8600 2085.0000 1.0000
38.8700 2079.0000 1.0000
38.8800 1922.0000 1.0000
38.8900 1803.0000 1.0000
38.9000 1766.0000 1.0000
38.9100 1716.0000 1.0000
38.9200 1638.0000 1.0000
38.9300 1614.0000 1.0000
38.9400 1581.0000 1.0000
38.9500 1535.0000 1.0000
38.9600 1495.0000 1.0000
38.9700 1450.0000 1.0000
38.9800 1428.0000 1.0000
38.9900 1370.0000 1.0000
39.0000 1331.0000 1.0000
39.0100 1343.0000 1.0000
39.0200 1315.0000 1.0000
39.0300 1283.0000 1.0000
39.0400 1351.0000 1.0000
39.0500 1244.0000 1.0000
39.0600 1212.0000 1.0000
39.0700 1227.0000 1.0000
39.0800 1155.0000 1.0000
39.0900 1167.0000 1.0000
39.1000 1177.0000 1.0000
39.1100 1190.0000 1.0000
39.1200 1178.0000 1.0000
39.1300 1148.0000 1.0000
39.1400 1098.0000 1.0000
39.1500 1173.0000 1.0000
39.1600 1143.0000 1.0000
39.1700 1143.0000 1.0000
39.1800 1087.0000 1.0000
39.1900 1093.0000 1.0000
39.2000 1058.0000 1.0000
39.2100 1047.0000 1.0000
39.2200 1089.0000 1.0000
39.2300 1086.0000 1.0000
39.2400 1070.0000 1.0000
39.2500 1020.0000 1.0000
39.2600 1085.0000 1.0000
39.2700 1070.0000 1.0000
39.2800 1040.0000 1.0000
39.2900 1036.0000 1.0000
39.3000 1046.0000 1.0000
39.3100 1011.0000 1.0000
39.3200 1010.0000 1.0000
39.3300 1050.0000 1.0000
39.3400 1072.0000 1.0000
39.3500 1019.0000 1.0000
39.3600 1060.0000 1.0000
39.3700 1083.0000 1.0000
39.3800 1068.0000 1.0000
39.3900 1036.0000 1.0000
39.4000 1018.0000 1.0000
39.4100 1018.0000 1.0000
39.4200 1033.0000 1.0000
39.4300 1013.0000 1.0000
39.4400 1036.0000 1.0000
39.4500 1059.0000 1.0000
39.4600 1022.0000 1.0000
39.4700 1014.0000 1.0000
39.4800 1066.0000 1.0000
39.4900 1041.0000 1.0000
39.5000 1008.0000 1.0000
39.5100 1074.0000 1.0000
39.5200 1041.0000 1.0000
39.5300 1068.0000 1.0000
39.5400 1046.0000 1.0000
39.5500 995.0000 1.0000
39.5600 1052.0000 1.0000
39.5700 1021.0000 1.0000
39.5800 1078.0000 1.0000
39.5900 1028.0000 1.0000
39.6000 1110.0000 1.0000
39.6100 1050.0000 1.0000
39.6200 1097.0000 1.0000
39.6300 1065.0000 1.0000
39.6400 1053.0000 1.0000
39.6500 1064.0000 1.0000
39.6600 1056.0000 1.0000
39.6700 1075.0000 1.0000
39.6800 1018.0000 1.0000
39.6900 1021.0000 1.0000
39.7000 1051.0000 1.0000
39.7100 1039.0000 1.0000
39.7200 1047.0000 1.0000
39.7300 1057.0000 1.0000
39.7400 1054.0000 1.0000
39.7500 1017.0000 1.0000
39.7600 1001.0000 1.0000
39.7700 1061.0000 1.0000
39.7800 1076.0000 1.0000
39.7900 1000.0000 1.0000
39.8000 1004.0000 1.0000
39.8100 975.0000 1.0000
39.8200 1012.0000 1.0000
39.8300 994.0000 1.0000
39.8400 950.0000 1.0000
39.8500 991.0000 1.0000
39.8600 1011.0000 1.0000
39.8700 1048.0000 1.0000
39.8800 949.0000 1.0000
39.8900 1006.0000 1.0000
39.9000 1010.0000 1.0000
39.9100 1000.0000 1.0000
39.9200 1002.0000 1.0000
39.9300 922.0000 1.0000
39.9400 981.0000 1.0000
39.9500 990.0000 1.0000
39.9600 1049.0000 1.0000
39.9700 966.0000 1.0000
39.9800 998.0000 1.0000
39.9900 947.0000 1.0000
40.0000 990.0000 1.0000
40.0100 958.0000 1.0000
40.0200 963.0000 1.0000
40.0300 939.0000 1.0000
40.0400 957.0000 1.0000
40.0500 980.0000 1.0000
40.0600 972.0000 1.0000
40.0700 958.0000 1.0000
40.0800 981.0000 1.0000
40.0900 913.0000 1.0000
40.1000 973.0000 1.0000
40.1100 969.0000 1.0000
40.1200 995.0000 1.0000
40.1300 995.0000 1.0000
40.1400 977.0000 1.0000
40.1500 957.0000 1.0000
40.1600 963.0000 1.0000
40.1700 961.0000 1.0000
40.1800 962.0000 1.0000
40.1900 972.0000 1.0000
40.2000 934.0000 1.0000
40.2100 916.0000 1.0000
40.2200 937.0000 1.0000
40.2300 950.0000 1.0000
40.2400 882.0000 1.0000
40.2500 902.0000 1.0000
40.2600 929.0000 1.0000
40.2700 935.0000 1.0000
40.2800 928.0000 1.0000
40.2900 963.0000 1.0000
40.3000 964.0000 1.0000
40.3100 931.0000 1.0000
40.3200 904.0000 1.0000
40.3300 905.0000 1.0000
40.3400 949.0000 1.0000
40.3500 939.0000 1.0000
40.3600 948.0000 1.0000
40.3700 935.0000 1.0000
40.3800 965.0000 1.0000
40.3900 908.0000 1.0000
40.4000 947.0000 1.0000
40.4100 910.0000 1.0000
40.4200 968.0000 1.0000
40.4300 952.0000 1.0000
40.4400 953.0000 1.0000
40.4500 899.0000 1.0000
40.4600 983.0000 1.0000
40.4700 951.0000 1.0000
40.4800 954.0000 1.0000
40.4900 943.0000 1.0000
40.5000 937.0000 1.0000
40.5100 888.0000 1.0000
40.5200 934.0000 1.0000
40.5300 960.0000 1.0000
40.5400 930.0000 1.0000
40.5500 966.0000 1.0000
40.5600 953.0000 1.0000
40.5700 905.0000 1.0000
40.5800 977.0000 1.0000
40.5900 879.0000 1.0000
40.6000 918.0000 1.0000
40.6100 852.0000 1.0000
40.6200 948.0000 1.0000
40.6300 954.0000 1.0000
40.6400 934.0000 1.0000
40.6500 930.0000 1.0000
40.6600 949.0000 1.0000
40.6700 971.0000 1.0000
40.6800 901.0000 1.0000
40.6900 929.0000 1.0000
40.7000 963.0000 1.0000
40.7100 945.0000 1.0000
40.7200 917.0000 1.0000
40.7300 977.0000 1.0000
40.7400 998.0000 1.0000
40.7500 936.0000 1.0000
40.7600 914.0000 1.0000
40.7700 953.0000 1.0000
40.7800 988.0000 1.0000
40.7900 925.0000 1.0000
40.8000 933.0000 1.0000
40.8100 926.0000 1.0000
40.8200 949.0000 1.0000
40.8300 918.0000 1.0000
40.8400 921.0000 1.0000
40.8500 939.0000 1.0000
40.8600 946.0000 1.0000
40.8700 974.0000 1.0000
40.8800 953.0000 1.0000
40.8900 915.0000 1.0000
40.9000 893.0000 1.0000
40.9100 952.0000 1.0000
40.9200 969.0000 1.0000
40.9300 916.0000 1.0000
40.9400 977.0000 1.0000
40.9500 969.0000 1.0000
40.9600 935.0000 1.0000
40.9700 949.0000 1.0000
40.9800 937.0000 1.0000
40.9900 871.0000 1.0000
41.0000 906.0000 1.0000
41.0100 924.0000 1.0000
41.0200 899.0000 1.0000
41.0300 934.0000 1.0000
41.0400 929.0000 1.0000
41.0500 981.0000 1.0000
41.0600 928.0000 1.0000
41.0700 905.0000 1.0000
41.0800 941.0000 1.0000
41.0900 879.0000 1.0000
41.1000 953.0000 1.0000
41.1100 968.0000 1.0000
41.1200 890.0000 1.0000
41.1300 901.0000 1.0000
41.1400 917.0000 1.0000
41.1500 917.0000 1.0000
41.1600 869.0000 1.0000
41.1700 907.0000 1.0000
41.1800 916.0000 1.0000
41.1900 946.0000 1.0000
41.2000 908.0000 1.0000
41.2100 938.0000 1.0000
41.2200 943.0000 1.0000
41.2300 929.0000 1.0000
41.2400 898.0000 1.0000
41.2500 925.0000 1.0000
41.2600 939.0000 1.0000
41.2700 899.0000 1.0000
41.2800 961.0000 1.0000
41.2900 939.0000 1.0000
41.3000 911.0000 1.0000
41.3100 916.0000 1.0000
41.3200 932.0000 1.0000
41.3300 928.0000 1.0000
41.3400 959.0000 1.0000
41.3500 909.0000 1.0000
41.3600 977.0000 1.0000
41.3700 984.0000 1.0000
41.3800 927.0000 1.0000
41.3900 927.0000 1.0000
41.4000 936.0000 1.0000
41.4100 940.0000 1.0000
41.4200 935.0000 1.0000
41.4300 893.0000 1.0000
41.4400 914.0000 1.0000
41.4500 977.0000 1.0000
41.4600 907.0000 1.0000
41.4700 955.0000 1.0000
41.4800 924.0000 1.0000
41.4900 955.0000 1.0000
41.5000 932.0000 1.0000
41.5100 903.0000 1.0000
41.5200 924.0000 1.0000
41.5300 924.0000 1.0000
41.5400 936.0000 1.0000
41.5500 927.0000 1.0000
41.5600 853.0000 1.0000
41.5700 915.0000 1.0000
41.5800 944.0000 1.0000
41.5900 919.0000 1.0000
41.6000 909.0000 1.0000
41.6100 932.0000 1.0000
41.6200 968.0000 1.0000
41.6300 885.0000 1.0000
41.6400 889.0000 1.0000
41.6500 925.0000 1.0000
41.6600 936.0000 1.0000
41.6700 905.0000 1.0000
41.6800 930.0000 1.0000
41.6900 946.0000 1.0000
41.7000 888.0000 1.0000
41.7100 910.0000 1.0000
41.7200 930.0000 1.0000
41.7300 935.0000 1.0000
41.7400 933.0000 1.0000
41.7500 915.0000 1.0000
41.7600 919.0000 1.0000
41.7700 953.0000 1.0000
41.7800 928.0000 1.0000
41.7900 909.0000 1.0000
41.8000 959.0000 1.0000
41.8100 887.0000 1.0000
41.8200 866.0000 1.0000
41.8300 884.0000 1.0000
41.8400 908.0000 1.0000
41.8500 917.0000 1.0000
41.8600 906.0000 1.0000
41.8700 894.0000 1.0000
41.8800 954.0000 1.0000
41.8900 882.0000 1.0000
41.9000 869.0000 1.0000
41.9100 888.0000 1.0000
41.9200 862.0000 1.0000
41.9300 857.0000 1.0000
41.9400 896.0000 1.0000
41.9500 943.0000 1.0000
41.9600 942.0000 1.0000
41.9700 915.0000 1.0000
41.9800 876.0000 1.0000
41.9900 911.0000 1.0000
42.0000 918.0000 1.0000
42.0100 882.0000 1.0000
42.0200 964.0000 1.0000
42.0300 964.0000 1.0000
42.0400 921.0000 1.0000
42.0500 890.0000 1.0000
42.0600 901.0000 1.0000
42.0700 905.0000 1.0000
42.0800 897.0000 1.0000
42.0900 928.0000 1.0000
42.1000 911.0000 1.0000
42.1100 948.0000 1.0000
42.1200 920.0000 1.0000
42.1300 903.0000 1.0000
42.1400 872.0000 1.0000
42.1500 1003.0000 1.0000
42.1600 942.0000 1.0000
42.1700 887.0000 1.0000
42.1800 879.0000 1.0000
42.1900 891.0000 1.0000
42.2000 871.0000 1.0000
42.2100 884.0000 1.0000
42.2200 900.0000 1.0000
42.2300 917.0000 1.0000
42.2400 926.0000 1.0000
42.2500 940.0000 1.0000
42.2600 854.0000 1.0000
42.2700 876.0000 1.0000
42.2800 875.0000 1.0000
42.2900 897.0000 1.0000
42.3000 899.0000 1.0000
42.3100 854.0000 1.0000
42.3200 930.0000 1.0000
42.3300 849.0000 1.0000
42.3400 911.0000 1.0000
42.3500 895.0000 1.0000
42.3600 902.0000 1.0000
42.3700 864.0000 1.0000
42.3800 901.0000 1.0000
42.3900 941.0000 1.0000
42.4000 901.0000 1.0000
42.4100 894.0000 1.0000
42.4200 932.0000 1.0000
42.4300 892.0000 1.0000
42.4400 892.0000 1.0000
42.4500 942.0000 1.0000
42.4600 915.0000 1.0000
42.4700 876.0000 1.0000
42.4800 847.0000 1.0000
42.4900 906.0000 1.0000
42.5000 855.0000 1.0000
42.5100 900.0000 1.0000
42.5200 927.0000 1.0000
42.5300 936.0000 1.0000
42.5400 887.0000 1.0000
42.5500 884.0000 1.0000
42.5600 933.0000 1.0000
42.5700 932.0000 1.0000
42.5800 917.0000 1.0000
42.5900 920.0000 1.0000
42.6000 939.0000 1.0000
42.6100 916.0000 1.0000
42.6200 920.0000 1.0000
42.6300 933.0000 1.0000
42.6400 865.0000 1.0000
42.6500 885.0000 1.0000
42.6600 843.0000 1.0000
42.6700 858.0000 1.0000
42.6800 912.0000 1.0000
42.6900 898.0000 1.0000
42.7000 907.0000 1.0000
42.7100 931.0000 1.0000
42.7200 973.0000 1.0000
42.7300 929.0000 1.0000
42.7400 900.0000 1.0000
42.7500 942.0000 1.0000
42.7600 916.0000 1.0000
42.7700 937.0000 1.0000
42.7800 922.0000 1.0000
42.7900 882.0000 1.0000
42.8000 872.0000 1.0000
42.8100 902.0000 1.0000
42.8200 926.0000 1.0000
42.8300 916.0000 1.0000
42.8400 907.0000 1.0000
42.8500 911.0000 1.0000
42.8600 903.0000 1.0000
42.8700 889.0000 1.0000
42.8800 911.0000 1.0000
42.8900 890.0000 1.0000
42.9000 901.0000 1.0000
42.9100 883.0000 1.0000
42.9200 886.0000 1.0000
42.9300 887.0000 1.0000
42.9400 941.0000 1.0000
42.9500 861.0000 1.0000
42.9600 948.0000 1.0000
42.9700 920.0000 1.0000
42.9800 910.0000 1.0000
42.9900 931.0000 1.0000
43.0000 918.0000 1.0000
43.0100 938.0000 1.0000
43.0200 877.0000 1.0000
43.0300 937.0000 1.0000
43.0400 907.0000 1.0000
43.0500 911.0000 1.0000
43.0600 880.0000 1.0000
43.0700 902.0000 1.0000
43.0800 947.0000 1.0000
43.0900 927.0000 1.0000
43.1000 958.0000 1.0000
43.1100 935.0000 1.0000
43.1200 887.0000 1.0000
43.1300 917.0000 1.0000
43.1400 891.0000 1.0000
43.1500 887.0000 1.0000
43.1600 975.0000 1.0000
43.1700 918.0000 1.0000
43.1800 913.0000 1.0000
43.1900 983.0000 1.0000
43.2000 977.0000 1.0000
43.2100 995.0000 1.0000
43.2200 1017.0000 1.0000
43.2300 995.0000 1.0000
43.2400 993.0000 1.0000
43.2500 974.0000 1.0000
43.2600 1022.0000 1.0000
43.2700 983.0000 1.0000
43.2800 1002.0000 1.0000
43.2900 1037.0000 1.0000
43.3000 1026.0000 1.0000
43.3100 989.0000 1.0000
43.3200 1002.0000 1.0000
43.3300 1034.0000 1.0000
43.3400 976.0000 1.0000
43.3500 987.0000 1.0000
43.3600 945.0000 1.0000
43.3700 945.0000 1.0000
43.3800 967.0000 1.0000
43.3900 933.0000 1.0000
43.4000 964.0000 1.0000
43.4100 952.0000 1.0000
43.4200 963.0000 1.0000
43.4300 904.0000 1.0000
43.4400 976.0000 1.0000
43.4500 935.0000 1.0000
43.4600 938.0000 1.0000
43.4700 913.0000 1.0000
43.4800 950.0000 1.0000
43.4900 963.0000 1.0000
43.5000 907.0000 1.0000
43.5100 922.0000 1.0000
43.5200 959.0000 1.0000
43.5300 902.0000 1.0000
43.5400 855.0000 1.0000
43.5500 844.0000 1.0000
43.5600 858.0000 1.0000
43.5700 861.0000 1.0000
43.5800 937.0000 1.0000
43.5900 913.0000 1.0000
43.6000 903.0000 1.0000
43.6100 909.0000 1.0000
43.6200 896.0000 1.0000
43.6300 894.0000 1.0000
43.6400 914.0000 1.0000
43.6500 881.0000 1.0000
43.6600 845.0000 1.0000
43.6700 860.0000 1.0000
43.6800 881.0000 1.0000
43.6900 857.0000 1.0000
43.7000 905.0000 1.0000
43.7100 893.0000 1.0000
43.7200 927.0000 1.0000
43.7300 913.0000 1.0000
43.7400 891.0000 1.0000
43.7500 892.0000 1.0000
43.7600 872.0000 1.0000
43.7700 893.0000 1.0000
43.7800 907.0000 1.0000
43.7900 913.0000 1.0000
43.8000 929.0000 1.0000
43.8100 875.0000 1.0000
43.8200 902.0000 1.0000
43.8300 870.0000 1.0000
43.8400 897.0000 1.0000
43.8500 912.0000 1.0000
43.8600 885.0000 1.0000
43.8700 882.0000 1.0000
43.8800 896.0000 1.0000
43.8900 920.0000 1.0000
43.9000 907.0000 1.0000
43.9100 900.0000 1.0000
43.9200 904.0000 1.0000
43.9300 872.0000 1.0000
43.9400 874.0000 1.0000
43.9500 834.0000 1.0000
43.9600 885.0000 1.0000
43.9700 880.0000 1.0000
43.9800 882.0000 1.0000
43.9900 893.0000 1.0000
44.0000 886.0000 1.0000
44.0100 835.0000 1.0000
44.0200 868.0000 1.0000
44.0300 860.0000 1.0000
44.0400 863.0000 1.0000
44.0500 870.0000 1.0000
44.0600 894.0000 1.0000
44.0700 851.0000 1.0000
44.0800 845.0000 1.0000
44.0900 863.0000 1.0000
44.1000 882.0000 1.0000
44.1100 837.0000 1.0000
44.1200 877.0000 1.0000
44.1300 927.0000 1.0000
44.1400 903.0000 1.0000
44.1500 895.0000 1.0000
44.1600 906.0000 1.0000
44.1700 891.0000 1.0000
44.1800 845.0000 1.0000
44.1900 872.0000 1.0000
44.2000 935.0000 1.0000
44.2100 928.0000 1.0000
44.2200 892.0000 1.0000
44.2300 881.0000 1.0000
44.2400 864.0000 1.0000
44.2500 903.0000 1.0000
44.2600 886.0000 1.0000
44.2700 878.0000 1.0000
44.2800 898.0000 1.0000
44.2900 867.0000 1.0000
44.3000 883.0000 1.0000
44.3100 879.0000 1.0000
44.3200 853.0000 1.0000
44.3300 852.0000 1.0000
44.3400 867.0000 1.0000
44.3500 898.0000 1.0000
44.3600 881.0000 1.0000
44.3700 882.0000 1.0000
44.3800 888.0000 1.0000
44.3900 880.0000 1.0000
44.4000 856.0000 1.0000
44.4100 915.0000 1.0000
44.4200 854.0000 1.0000
44.4300 881.0000 1.0000
44.4400 884.0000 1.0000
44.4500 889.0000 1.0000
44.4600 860.0000 1.0000
44.4700 873.0000 1.0000
44.4800 893.0000 1.0000
44.4900 889.0000 1.0000
44.5000 902.0000 1.0000
44.5100 896.0000 1.0000
44.5200 905.0000 1.0000
44.5300 858.0000 1.0000
44.5400 851.0000 1.0000
44.5500 856.0000 1.0000
44.5600 859.0000 1.0000
44.5700 914.0000 1.0000
44.5800 862.0000 1.0000
44.5900 844.0000 1.0000
44.6000 884.0000 1.0000
44.6100 888.0000 1.0000
44.6200 893.0000 1.0000
44.6300 936.0000 1.0000
44.6400 868.0000 1.0000
44.6500 857.0000 1.0000
44.6600 856.0000 1.0000
44.6700 903.0000 1.0000
44.6800 887.0000 1.0000
44.6900 852.0000 1.0000
44.7000 836.0000 1.0000
44.7100 852.0000 1.0000
44.7200 859.0000 1.0000
44.7300 885.0000 1.0000
44.7400 908.0000 1.0000
44.7500 854.0000 1.0000
44.7600 893.0000 1.0000
44.7700 869.0000 1.0000
44.7800 833.0000 1.0000
44.7900 867.0000 1.0000
44.8000 888.0000 1.0000
44.8100 856.0000 1.0000
44.8200 845.0000 1.0000
44.8300 931.0000 1.0000
44.8400 879.0000 1.0000
44.8500 854.0000 1.0000
44.8600 845.0000 1.0000
44.8700 893.0000 1.0000
44.8800 828.0000 1.0000
44.8900 874.0000 1.0000
44.9000 840.0000 1.0000
44.9100 825.0000 1.0000
44.9200 896.0000 1.0000
44.9300 896.0000 1.0000
44.9400 876.0000 1.0000
44.9500 839.0000 1.0000
44.9600 880.0000 1.0000
44.9700 862.0000 1.0000
44.9800 843.0000 1.0000
44.9900 820.0000 1.0000
45.0000 878.0000 1.0000
45.0100 855.0000 1.0000
45.0200 860.0000 1.0000
45.0300 860.0000 1.0000
45.0400 906.0000 1.0000
45.0500 834.0000 1.0000
45.0600 898.0000 1.0000
45.0700 871.0000 1.0000
45.0800 859.0000 1.0000
45.0900 846.0000 1.0000
45.1000 850.0000 1.0000
45.1100 872.0000 1.0000
45.1200 824.0000 1.0000
45.1300 850.0000 1.0000
45.1400 805.0000 1.0000
45.1500 864.0000 1.0000
45.1600 854.0000 1.0000
45.1700 866.0000 1.0000
45.1800 807.0000 1.0000
45.1900 877.0000 1.0000
45.2000 835.0000 1.0000
45.2100 861.0000 1.0000
45.2200 892.0000 1.0000
45.2300 872.0000 1.0000
45.2400 840.0000 1.0000
45.2500 850.0000 1.0000
45.2600 820.0000 1.0000
45.2700 895.0000 1.0000
45.2800 854.0000 1.0000
45.2900 874.0000 1.0000
45.3000 897.0000 1.0000
45.3100 840.0000 1.0000
45.3200 785.0000 1.0000
45.3300 859.0000 1.0000
45.3400 831.0000 1.0000
45.3500 887.0000 1.0000
45.3600 837.0000 1.0000
45.3700 860.0000 1.0000
45.3800 832.0000 1.0000
45.3900 827.0000 1.0000
45.4000 886.0000 1.0000
45.4100 892.0000 1.0000
45.4200 803.0000 1.0000
45.4300 843.0000 1.0000
45.4400 901.0000 1.0000
45.4500 904.0000 1.0000
45.4600 871.0000 1.0000
45.4700 845.0000 1.0000
45.4800 847.0000 1.0000
45.4900 795.0000 1.0000
45.5000 832.0000 1.0000
45.5100 812.0000 1.0000
45.5200 810.0000 1.0000
45.5300 840.0000 1.0000
45.5400 855.0000 1.0000
45.5500 819.0000 1.0000
45.5600 825.0000 1.0000
45.5700 849.0000 1.0000
45.5800 793.0000 1.0000
45.5900 824.0000 1.0000
45.6000 854.0000 1.0000
45.6100 783.0000 1.0000
45.6200 806.0000 1.0000
45.6300 842.0000 1.0000
45.6400 833.0000 1.0000
45.6500 849.0000 1.0000
45.6600 879.0000 1.0000
45.6700 830.0000 1.0000
45.6800 821.0000 1.0000
45.6900 808.0000 1.0000
45.7000 849.0000 1.0000
45.7100 826.0000 1.0000
45.7200 872.0000 1.0000
45.7300 845.0000 1.0000
45.7400 875.0000 1.0000
45.7500 855.0000 1.0000
45.7600 873.0000 1.0000
45.7700 871.0000 1.0000
45.7800 837.0000 1.0000
45.7900 833.0000 1.0000
45.8000 856.0000 1.0000
45.8100 860.0000 1.0000
45.8200 836.0000 1.0000
45.8300 857.0000 1.0000
45.8400 874.0000 1.0000
45.8500 806.0000 1.0000
45.8600 825.0000 1.0000
45.8700 832.0000 1.0000
45.8800 899.0000 1.0000
45.8900 882.0000 1.0000
45.9000 825.0000 1.0000
45.9100 857.0000 1.0000
45.9200 849.0000 1.0000
45.9300 823.0000 1.0000
45.9400 834.0000 1.0000
45.9500 861.0000 1.0000
45.9600 882.0000 1.0000
45.9700 845.0000 1.0000
45.9800 823.0000 1.0000
45.9900 850.0000 1.0000
46.0000 836.0000 1.0000
46.0100 810.0000 1.0000
46.0200 824.0000 1.0000
46.0300 802.0000 1.0000
46.0400 836.0000 1.0000
46.0500 864.0000 1.0000
46.0600 890.0000 1.0000
46.0700 865.0000 1.0000
46.0800 847.0000 1.0000
46.0900 797.0000 1.0000
46.1000 823.0000 1.0000
46.1100 846.0000 1.0000
46.1200 799.0000 1.0000
46.1300 831.0000 1.0000
46.1400 822.0000 1.0000
46.1500 788.0000 1.0000
46.1600 840.0000 1.0000
46.1700 845.0000 1.0000
46.1800 831.0000 1.0000
46.1900 838.0000 1.0000
46.2000 855.0000 1.0000
46.2100 833.0000 1.0000
46.2200 871.0000 1.0000
46.2300 825.0000 1.0000
46.2400 891.0000 1.0000
46.2500 841.0000 1.0000
46.2600 826.0000 1.0000
46.2700 846.0000 1.0000
46.2800 841.0000 1.0000
46.2900 845.0000 1.0000
46.3000 829.0000 1.0000
46.3100 886.0000 1.0000
46.3200 823.0000 1.0000
46.3300 824.0000 1.0000
46.3400 815.0000 1.0000
46.3500 831.0000 1.0000
46.3600 858.0000 1.0000
46.3700 845.0000 1.0000
46.3800 784.0000 1.0000
46.3900 823.0000 1.0000
46.4000 856.0000 1.0000
46.4100 887.0000 1.0000
46.4200 836.0000 1.0000
46.4300 816.0000 1.0000
46.4400 822.0000 1.0000
46.4500 789.0000 1.0000
46.4600 845.0000 1.0000
46.4700 809.0000 1.0000
46.4800 849.0000 1.0000
46.4900 827.0000 1.0000
46.5000 833.0000 1.0000
46.5100 826.0000 1.0000
46.5200 831.0000 1.0000
46.5300 824.0000 1.0000
46.5400 801.0000 1.0000
46.5500 801.0000 1.0000
46.5600 891.0000 1.0000
46.5700 876.0000 1.0000
46.5800 831.0000 1.0000
46.5900 796.0000 1.0000
46.6000 861.0000 1.0000
46.6100 809.0000 1.0000
46.6200 828.0000 1.0000
46.6300 783.0000 1.0000
46.6400 796.0000 1.0000
46.6500 826.0000 1.0000
46.6600 850.0000 1.0000
46.6700 874.0000 1.0000
46.6800 860.0000 1.0000
46.6900 814.0000 1.0000
46.7000 808.0000 1.0000
46.7100 831.0000 1.0000
46.7200 830.0000 1.0000
46.7300 884.0000 1.0000
46.7400 832.0000 1.0000
46.7500 808.0000 1.0000
46.7600 804.0000 1.0000
46.7700 800.0000 1.0000
46.7800 812.0000 1.0000
46.7900 841.0000 1.0000
46.8000 797.0000 1.0000
46.8100 799.0000 1.0000
46.8200 817.0000 1.0000
46.8300 874.0000 1.0000
46.8400 849.0000 1.0000
46.8500 800.0000 1.0000
46.8600 883.0000 1.0000
46.8700 838.0000 1.0000
46.8800 843.0000 1.0000
46.8900 864.0000 1.0000
46.9000 859.0000 1.0000
46.9100 875.0000 1.0000
46.9200 832.0000 1.0000
46.9300 849.0000 1.0000
46.9400 800.0000 1.0000
46.9500 825.0000 1.0000
46.9600 875.0000 1.0000
46.9700 837.0000 1.0000
46.9800 849.0000 1.0000
46.9900 849.0000 1.0000
47.0000 806.0000 1.0000
47.0100 880.0000 1.0000
47.0200 856.0000 1.0000
47.0300 828.0000 1.0000
47.0400 805.0000 1.0000
47.0500 815.0000 1.0000
47.0600 805.0000 1.0000
47.0700 859.0000 1.0000
47.0800 838.0000 1.0000
47.0900 854.0000 1.0000
47.1000 855.0000 1.0000
47.1100 842.0000 1.0000
47.1200 861.0000 1.0000
47.1300 871.0000 1.0000
47.1400 818.0000 1.0000
47.1500 831.0000 1.0000
47.1600 832.0000 1.0000
47.1700 826.0000 1.0000
47.1800 803.0000 1.0000
47.1900 844.0000 1.0000
47.2000 808.0000 1.0000
47.2100 801.0000 1.0000
47.2200 826.0000 1.0000
47.2300 773.0000 1.0000
47.2400 821.0000 1.0000
47.2500 823.0000 1.0000
47.2600 815.0000 1.0000
47.2700 793.0000 1.0000
47.2800 787.0000 1.0000
47.2900 808.0000 1.0000
47.3000 799.0000 1.0000
47.3100 857.0000 1.0000
47.3200 785.0000 1.0000
47.3300 821.0000 1.0000
47.3400 819.0000 1.0000
47.3500 830.0000 1.0000
47.3600 828.0000 1.0000
47.3700 761.0000 1.0000
47.3800 819.0000 1.0000
47.3900 796.0000 1.0000
47.4000 804.0000 1.0000
47.4100 817.0000 1.0000
47.4200 801.0000 1.0000
47.4300 820.0000 1.0000
47.4400 836.0000 1.0000
47.4500 850.0000 1.0000
47.4600 788.0000 1.0000
47.4700 792.0000 1.0000
47.4800 798.0000 1.0000
47.4900 804.0000 1.0000
47.5000 799.0000 1.0000
47.5100 788.0000 1.0000
47.5200 816.0000 1.0000
47.5300 828.0000 1.0000
47.5400 834.0000 1.0000
47.5500 818.0000 1.0000
47.5600 819.0000 1.0000
47.5700 808.0000 1.0000
47.5800 789.0000 1.0000
47.5900 795.0000 1.0000
47.6000 808.0000 1.0000
47.6100 795.0000 1.0000
47.6200 862.0000 1.0000
47.6300 829.0000 1.0000
47.6400 813.0000 1.0000
47.6500 836.0000 1.0000
47.6600 832.0000 1.0000
47.6700 831.0000 1.0000
47.6800 821.0000 1.0000
47.6900 828.0000 1.0000
47.7000 804.0000 1.0000
47.7100 819.0000 1.0000
47.7200 815.0000 1.0000
47.7300 826.0000 1.0000
47.7400 792.0000 1.0000
47.7500 772.0000 1.0000
47.7600 812.0000 1.0000
47.7700 820.0000 1.0000
47.7800 815.0000 1.0000
47.7900 781.0000 1.0000
47.8000 791.0000 1.0000
47.8100 822.0000 1.0000
47.8200 785.0000 1.0000
47.8300 771.0000 1.0000
47.8400 786.0000 1.0000
47.8500 852.0000 1.0000
47.8600 822.0000 1.0000
47.8700 836.0000 1.0000
47.8800 786.0000 1.0000
47.8900 802.0000 1.0000
47.9000 806.0000 1.0000
47.9100 801.0000 1.0000
47.9200 842.0000 1.0000
47.9300 853.0000 1.0000
47.9400 793.0000 1.0000
47.9500 832.0000 1.0000
47.9600 775.0000 1.0000
47.9700 838.0000 1.0000
47.9800 789.0000 1.0000
47.9900 752.0000 1.0000
48.0000 776.0000 1.0000
48.0100 819.0000 1.0000
48.0200 787.0000 1.0000
48.0300 816.0000 1.0000
48.0400 814.0000 1.0000
48.0500 765.0000 1.0000
48.0600 820.0000 1.0000
48.0700 791.0000 1.0000
48.0800 809.0000 1.0000
48.0900 773.0000 1.0000
48.1000 748.0000 1.0000
48.1100 759.0000 1.0000
48.1200 743.0000 1.0000
48.1300 781.0000 1.0000
48.1400 845.0000 1.0000
48.1500 829.0000 1.0000
48.1600 731.0000 1.0000
48.1700 791.0000 1.0000
48.1800 784.0000 1.0000
48.1900 783.0000 1.0000
48.2000 831.0000 1.0000
48.2100 819.0000 1.0000
48.2200 794.0000 1.0000
48.2300 794.0000 1.0000
48.2400 779.0000 1.0000
48.2500 807.0000 1.0000
48.2600 814.0000 1.0000
48.2700 762.0000 1.0000
48.2800 765.0000 1.0000
48.2900 796.0000 1.0000
48.3000 861.0000 1.0000
48.3100 817.0000 1.0000
48.3200 853.0000 1.0000
48.3300 766.0000 1.0000
48.3400 773.0000 1.0000
48.3500 799.0000 1.0000
48.3600 793.0000 1.0000
48.3700 789.0000 1.0000
48.3800 787.0000 1.0000
48.3900 746.0000 1.0000
48.4000 730.0000 1.0000
48.4100 780.0000 1.0000
48.4200 807.0000 1.0000
48.4300 754.0000 1.0000
48.4400 794.0000 1.0000
48.4500 822.0000 1.0000
48.4600 764.0000 1.0000
48.4700 796.0000 1.0000
48.4800 760.0000 1.0000
48.4900 802.0000 1.0000
48.5000 795.0000 1.0000
48.5100 806.0000 1.0000
48.5200 773.0000 1.0000
48.5300 803.0000 1.0000
48.5400 758.0000 1.0000
48.5500 782.0000 1.0000
48.5600 775.0000 1.0000
48.5700 750.0000 1.0000
48.5800 769.0000 1.0000
48.5900 809.0000 1.0000
48.6000 791.0000 1.0000
48.6100 749.0000 1.0000
48.6200 754.0000 1.0000
48.6300 788.0000 1.0000
48.6400 812.0000 1.0000
48.6500 804.0000 1.0000
48.6600 775.0000 1.0000
48.6700 756.0000 1.0000
48.6800 816.0000 1.0000
48.6900 774.0000 1.0000
48.7000 830.0000 1.0000
48.7100 806.0000 1.0000
48.7200 766.0000 1.0000
48.7300 829.0000 1.0000
48.7400 805.0000 1.0000
48.7500 798.0000 1.0000
48.7600 831.0000 1.0000
48.7700 780.0000 1.0000
48.7800 804.0000 1.0000
48.7900 758.0000 1.0000
48.8000 740.0000 1.0000
48.8100 798.0000 1.0000
48.8200 742.0000 1.0000
48.8300 792.0000 1.0000
48.8400 768.0000 1.0000
48.8500 795.0000 1.0000
48.8600 781.0000 1.0000
48.8700 722.0000 1.0000
48.8800 769.0000 1.0000
48.8900 740.0000 1.0000
48.9000 768.0000 1.0000
48.9100 759.0000 1.0000
48.9200 826.0000 1.0000
48.9300 802.0000 1.0000
48.9400 800.0000 1.0000
48.9500 784.0000 1.0000
48.9600 797.0000 1.0000
48.9700 805.0000 1.0000
48.9800 778.0000 1.0000
48.9900 764.0000 1.0000
49.0000 755.0000 1.0000
49.0100 731.0000 1.0000
49.0200 721.0000 1.0000
49.0300 777.0000 1.0000
49.0400 744.0000 1.0000
49.0500 807.0000 1.0000
49.0600 787.0000 1.0000
49.0700 790.0000 1.0000
49.0800 780.0000 1.0000
49.0900 792.0000 1.0000
49.1000 770.0000 1.0000
49.1100 774.0000 1.0000
49.1200 792.0000 1.0000
49.1300 786.0000 1.0000
49.1400 778.0000 1.0000
49.1500 764.0000 1.0000
49.1600 773.0000 1.0000
49.1700 771.0000 1.0000
49.1800 728.0000 1.0000
49.1900 727.0000 1.0000
49.2000 769.0000 1.0000
49.2100 797.0000 1.0000
49.2200 796.0000 1.0000
49.2300 796.0000 1.0000
49.2400 796.0000 1.0000
49.2500 761.0000 1.0000
49.2600 770.0000 1.0000
49.2700 790.0000 1.0000
49.2800 780.0000 1.0000
49.2900 764.0000 1.0000
49.3000 762.0000 1.0000
49.3100 794.0000 1.0000
49.3200 789.0000 1.0000
49.3300 812.0000 1.0000
49.3400 778.0000 1.0000
49.3500 747.0000 1.0000
49.3600 809.0000 1.0000
49.3700 853.0000 1.0000
49.3800 811.0000 1.0000
49.3900 758.0000 1.0000
49.4000 784.0000 1.0000
49.4100 750.0000 1.0000
49.4200 769.0000 1.0000
49.4300 792.0000 1.0000
49.4400 773.0000 1.0000
49.4500 808.0000 1.0000
49.4600 796.0000 1.0000
49.4700 716.0000 1.0000
49.4800 803.0000 1.0000
49.4900 786.0000 1.0000
49.5000 757.0000 1.0000
49.5100 777.0000 1.0000
49.5200 786.0000 1.0000
49.5300 739.0000 1.0000
49.5400 734.0000 1.0000
49.5500 798.0000 1.0000
49.5600 827.0000 1.0000
49.5700 795.0000 1.0000
49.5800 778.0000 1.0000
49.5900 799.0000 1.0000
49.6000 788.0000 1.0000
49.6100 771.0000 1.0000
49.6200 781.0000 1.0000
49.6300 754.0000 1.0000
49.6400 783.0000 1.0000
49.6500 765.0000 1.0000
49.6600 768.0000 1.0000
49.6700 783.0000 1.0000
49.6800 768.0000 1.0000
49.6900 783.0000 1.0000
49.7000 803.0000 1.0000
49.7100 758.0000 1.0000
49.7200 764.0000 1.0000
49.7300 759.0000 1.0000
49.7400 766.0000 1.0000
49.7500 794.0000 1.0000
49.7600 733.0000 1.0000
49.7700 783.0000 1.0000
49.7800 795.0000 1.0000
49.7900 804.0000 1.0000
49.8000 808.0000 1.0000
49.8100 767.0000 1.0000
49.8200 804.0000 1.0000
49.8300 768.0000 1.0000
49.8400 803.0000 1.0000
49.8500 739.0000 1.0000
49.8600 792.0000 1.0000
49.8700 737.0000 1.0000
49.8800 721.0000 1.0000
49.8900 754.0000 1.0000
49.9000 770.0000 1.0000
49.9100 817.0000 1.0000
49.9200 818.0000 1.0000
49.9300 744.0000 1.0000
49.9400 753.0000 1.0000
49.9500 800.0000 1.0000
49.9600 810.0000 1.0000
49.9700 798.0000 1.0000
49.9800 795.0000 1.0000
49.9900 785.0000 1.0000
50.0000 779.0000 1.0000
50.0100 761.0000 1.0000
50.0200 757.0000 1.0000
50.0300 780.0000 1.0000
50.0400 787.0000 1.0000
50.0500 789.0000 1.0000
50.0600 807.0000 1.0000
50.0700 799.0000 1.0000
50.0800 778.0000 1.0000
50.0900 797.0000 1.0000
50.1000 766.0000 1.0000
50.1100 772.0000 1.0000
50.1200 767.0000 1.0000
50.1300 770.0000 1.0000
50.1400 801.0000 1.0000
50.1500 769.0000 1.0000
50.1600 780.0000 1.0000
50.1700 747.0000 1.0000
50.1800 752.0000 1.0000
50.1900 777.0000 1.0000
50.2000 801.0000 1.0000
50.2100 834.0000 1.0000
50.2200 774.0000 1.0000
50.2300 816.0000 1.0000
50.2400 792.0000 1.0000
50.2500 774.0000 1.0000
50.2600 784.0000 1.0000
50.2700 767.0000 1.0000
50.2800 785.0000 1.0000
50.2900 810.0000 1.0000
50.3000 812.0000 1.0000
50.3100 824.0000 1.0000
50.3200 791.0000 1.0000
50.3300 779.0000 1.0000
50.3400 787.0000 1.0000
50.3500 801.0000 1.0000
50.3600 816.0000 1.0000
50.3700 777.0000 1.0000
50.3800 833.0000 1.0000
50.3900 817.0000 1.0000
50.4000 817.0000 1.0000
50.4100 757.0000 1.0000
50.4200 787.0000 1.0000
50.4300 756.0000 1.0000
50.4400 825.0000 1.0000
50.4500 808.0000 1.0000
50.4600 810.0000 1.0000
50.4700 788.0000 1.0000
50.4800 765.0000 1.0000
50.4900 744.0000 1.0000
50.5000 783.0000 1.0000
50.5100 792.0000 1.0000
50.5200 771.0000 1.0000
50.5300 743.0000 1.0000
50.5400 745.0000 1.0000
50.5500 790.0000 1.0000
50.5600 790.0000 1.0000
50.5700 788.0000 1.0000
50.5800 793.0000 1.0000
50.5900 792.0000 1.0000
50.6000 764.0000 1.0000
50.6100 839.0000 1.0000
50.6200 825.0000 1.0000
50.6300 801.0000 1.0000
50.6400 733.0000 1.0000
50.6500 762.0000 1.0000
50.6600 776.0000 1.0000
50.6700 767.0000 1.0000
50.6800 811.0000 1.0000
50.6900 796.0000 1.0000
50.7000 798.0000 1.0000
50.7100 765.0000 1.0000
50.7200 785.0000 1.0000
50.7300 809.0000 1.0000
50.7400 762.0000 1.0000
50.7500 826.0000 1.0000
50.7600 768.0000 1.0000
50.7700 746.0000 1.0000
50.7800 798.0000 1.0000
50.7900 815.0000 1.0000
50.8000 769.0000 1.0000
50.8100 770.0000 1.0000
50.8200 827.0000 1.0000
50.8300 810.0000 1.0000
50.8400 847.0000 1.0000
50.8500 756.0000 1.0000
50.8600 801.0000 1.0000
50.8700 788.0000 1.0000
50.8800 770.0000 1.0000
50.8900 781.0000 1.0000
50.9000 808.0000 1.0000
50.9100 815.0000 1.0000
50.9200 816.0000 1.0000
50.9300 749.0000 1.0000
50.9400 819.0000 1.0000
50.9500 783.0000 1.0000
50.9600 789.0000 1.0000
50.9700 800.0000 1.0000
50.9800 776.0000 1.0000
50.9900 783.0000 1.0000
51.0000 763.0000 1.0000
51.0100 808.0000 1.0000
51.0200 786.0000 1.0000
51.0300 799.0000 1.0000
51.0400 805.0000 1.0000
51.0500 790.0000 1.0000
51.0600 772.0000 1.0000
51.0700 794.0000 1.0000
51.0800 807.0000 1.0000
51.0900 790.0000 1.0000
51.1000 753.0000 1.0000
51.1100 798.0000 1.0000
51.1200 762.0000 1.0000
51.1300 834.0000 1.0000
51.1400 795.0000 1.0000
51.1500 733.0000 1.0000
51.1600 764.0000 1.0000
51.1700 800.0000 1.0000
51.1800 794.0000 1.0000
51.1900 775.0000 1.0000
51.2000 775.0000 1.0000
51.2100 785.0000 1.0000
51.2200 801.0000 1.0000
51.2300 810.0000 1.0000
51.2400 823.0000 1.0000
51.2500 800.0000 1.0000
51.2600 738.0000 1.0000
51.2700 788.0000 1.0000
51.2800 759.0000 1.0000
51.2900 762.0000 1.0000
51.3000 793.0000 1.0000
51.3100 783.0000 1.0000
51.3200 759.0000 1.0000
51.3300 828.0000 1.0000
51.3400 813.0000 1.0000
51.3500 794.0000 1.0000
51.3600 764.0000 1.0000
51.3700 781.0000 1.0000
51.3800 758.0000 1.0000
51.3900 800.0000 1.0000
51.4000 778.0000 1.0000
51.4100 769.0000 1.0000
51.4200 746.0000 1.0000
51.4300 822.0000 1.0000
51.4400 816.0000 1.0000
51.4500 835.0000 1.0000
51.4600 801.0000 1.0000
51.4700 789.0000 1.0000
51.4800 826.0000 1.0000
51.4900 866.0000 1.0000
51.5000 822.0000 1.0000
51.5100 766.0000 1.0000
51.5200 757.0000 1.0000
51.5300 806.0000 1.0000
51.5400 751.0000 1.0000
51.5500 780.0000 1.0000
51.5600 774.0000 1.0000
51.5700 799.0000 1.0000
51.5800 845.0000 1.0000
51.5900 799.0000 1.0000
51.6000 815.0000 1.0000
51.6100 786.0000 1.0000
51.6200 821.0000 1.0000
51.6300 829.0000 1.0000
51.6400 813.0000 1.0000
51.6500 838.0000 1.0000
51.6600 761.0000 1.0000
51.6700 827.0000 1.0000
51.6800 796.0000 1.0000
51.6900 794.0000 1.0000
51.7000 800.0000 1.0000
51.7100 821.0000 1.0000
51.7200 836.0000 1.0000
51.7300 841.0000 1.0000
51.7400 831.0000 1.0000
51.7500 861.0000 1.0000
51.7600 790.0000 1.0000
51.7700 829.0000 1.0000
51.7800 859.0000 1.0000
51.7900 811.0000 1.0000
51.8000 791.0000 1.0000
51.8100 854.0000 1.0000
51.8200 861.0000 1.0000
51.8300 881.0000 1.0000
51.8400 902.0000 1.0000
51.8500 890.0000 1.0000
51.8600 898.0000 1.0000
51.8700 860.0000 1.0000
51.8800 897.0000 1.0000
51.8900 853.0000 1.0000
51.9000 901.0000 1.0000
51.9100 907.0000 1.0000
51.9200 907.0000 1.0000
51.9300 939.0000 1.0000
51.9400 916.0000 1.0000
51.9500 976.0000 1.0000
51.9600 979.0000 1.0000
51.9700 1014.0000 1.0000
51.9800 1008.0000 1.0000
51.9900 988.0000 1.0000
52.0000 1108.0000 1.0000
52.0100 1066.0000 1.0000
52.0200 1064.0000 1.0000
52.0300 1137.0000 1.0000
52.0400 1131.0000 1.0000
52.0500 1192.0000 1.0000
52.0600 1254.0000 1.0000
52.0700 1274.0000 1.0000
52.0800 1354.0000 1.0000
52.0900 1318.0000 1.0000
52.1000 1348.0000 1.0000
52.1100 1401.0000 1.0000
52.1200 1541.0000 1.0000
52.1300 1550.0000 1.0000
52.1400 1642.0000 1.0000
52.1500 1741.0000 1.0000
52.1600 1836.0000 1.0000
52.1700 1993.0000 1.0000
52.1800 2159.0000 1.0000
52.1900 2256.0000 1.0000
52.2000 2383.0000 1.0000
52.2100 2605.0000 1.0000
52.2200 2892.0000 1.0000
52.2300 3013.0000 1.0000
52.2400 3202.0000 1.0000
52.2500 3481.0000 1.0000
52.2600 3758.0000 1.0000
52.2700 3941.0000 1.0000
52.2800 4197.0000 1.0000
52.2900 4406.0000 1.0000
52.3000 4687.0000 1.0000
52.3100 4817.0000 1.0000
52.3200 4869.0000 1.0000
52.3300 4842.0000 1.0000
52.3400 4786.0000 1.0000
52.3500 4747.0000 1.0000
52.3600 4637.0000 1.0000
52.3700 4423.0000 1.0000
52.3800 4258.0000 1.0000
52.3900 4231.0000 1.0000
52.4000 4126.0000 1.0000
52.4100 4049.0000 1.0000
52.4200 3879.0000 1.0000
52.4300 3861.0000 1.0000
52.4400 3771.0000 1.0000
52.4500 3738.0000 1.0000
52.4600 3589.0000 1.0000
52.4700 3393.0000 1.0000
52.4800 3232.0000 1.0000
52.4900 3112.0000 1.0000
52.5000 2935.0000 1.0000
52.5100 2657.0000 1.0000
52.5200 2516.0000 1.0000
52.5300 2428.0000 1.0000
52.5400 2339.0000 1.0000
52.5500 2123.0000 1.0000
52.5600 1974.0000 1.0000
52.5700 1882.0000 1.0000
52.5800 1772.0000 1.0000
52.5900 1744.0000 1.0000
52.6000 1541.0000 1.0000
52.6100 1478.0000 1.0000
52.6200 1492.0000 1.0000
52.6300 1455.0000 1.0000
52.6400 1387.0000 1.0000
52.6500 1338.0000 1.0000
52.6600 1274.0000 1.0000
52.6700 1236.0000 1.0000
52.6800 1140.0000 1.0000
52.6900 1152.0000 1.0000
52.7000 1094.0000 1.0000
52.7100 1143.0000 1.0000
52.7200 1122.0000 1.0000
52.7300 1028.0000 1.0000
52.7400 1020.0000 1.0000
52.7500 1031.0000 1.0000
52.7600 1049.0000 1.0000
52.7700 1016.0000 1.0000
52.7800 952.0000 1.0000
52.7900 931.0000 1.0000
52.8000 1008.0000 1.0000
52.8100 967.0000 1.0000
52.8200 945.0000 1.0000
52.8300 890.0000 1.0000
52.8400 895.0000 1.0000
52.8500 915.0000 1.0000
52.8600 937.0000 1.0000
52.8700 922.0000 1.0000
52.8800 924.0000 1.0000
52.8900 929.0000 1.0000
52.9000 897.0000 1.0000
52.9100 907.0000 1.0000
52.9200 922.0000 1.0000
52.9300 902.0000 1.0000
52.9400 844.0000 1.0000
52.9500 846.0000 1.0000
52.9600 836.0000 1.0000
52.9700 867.0000 1.0000
52.9800 830.0000 1.0000
52.9900 827.0000 1.0000
53.0000 838.0000 1.0000
53.0100 863.0000 1.0000
53.0200 833.0000 1.0000
53.0300 859.0000 1.0000
53.0400 866.0000 1.0000
53.0500 832.0000 1.0000
53.0600 833.0000 1.0000
53.0700 847.0000 1.0000
53.0800 823.0000 1.0000
53.0900 831.0000 1.0000
53.1000 818.0000 1.0000
53.1100 824.0000 1.0000
53.1200 786.0000 1.0000
53.1300 805.0000 1.0000
53.1400 819.0000 1.0000
53.1500 761.0000 1.0000
53.1600 781.0000 1.0000
53.1700 795.0000 1.0000
53.1800 810.0000 1.0000
53.1900 790.0000 1.0000
53.2000 758.0000 1.0000
53.2100 799.0000 1.0000
53.2200 774.0000 1.0000
53.2300 805.0000 1.0000
53.2400 833.0000 1.0000
53.2500 811.0000 1.0000
53.2600 844.0000 1.0000
53.2700 790.0000 1.0000
53.2800 789.0000 1.0000
53.2900 835.0000 1.0000
53.3000 802.0000 1.0000
53.3100 799.0000 1.0000
53.3200 810.0000 1.0000
53.3300 788.0000 1.0000
53.3400 792.0000 1.0000
53.3500 757.0000 1.0000
53.3600 752.0000 1.0000
53.3700 768.0000 1.0000
53.3800 770.0000 1.0000
53.3900 772.0000 1.0000
53.4000 761.0000 1.0000
53.4100 788.0000 1.0000
53.4200 775.0000 1.0000
53.4300 740.0000 1.0000
53.4400 768.0000 1.0000
53.4500 790.0000 1.0000
53.4600 769.0000 1.0000
53.4700 787.0000 1.0000
53.4800 727.0000 1.0000
53.4900 744.0000 1.0000
53.5000 764.0000 1.0000
53.5100 802.0000 1.0000
53.5200 743.0000 1.0000
53.5300 752.0000 1.0000
53.5400 766.0000 1.0000
53.5500 812.0000 1.0000
53.5600 746.0000 1.0000
53.5700 786.0000 1.0000
53.5800 782.0000 1.0000
53.5900 744.0000 1.0000
53.6000 738.0000 1.0000
53.6100 760.0000 1.0000
53.6200 723.0000 1.0000
53.6300 790.0000 1.0000
53.6400 769.0000 1.0000
53.6500 756.0000 1.0000
53.6600 770.0000 1.0000
53.6700 756.0000 1.0000
53.6800 756.0000 1.0000
53.6900 760.0000 1.0000
53.7000 717.0000 1.0000
53.7100 731.0000 1.0000
53.7200 735.0000 1.0000
53.7300 776.0000 1.0000
53.7400 791.0000 1.0000
53.7500 744.0000 1.0000
53.7600 752.0000 1.0000
53.7700 779.0000 1.0000
53.7800 764.0000 1.0000
53.7900 725.0000 1.0000
53.8000 740.0000 1.0000
53.8100 802.0000 1.0000
53.8200 747.0000 1.0000
53.8300 781.0000 1.0000
53.8400 759.0000 1.0000
53.8500 773.0000 1.0000
53.8600 754.0000 1.0000
53.8700 744.0000 1.0000
53.8800 741.0000 1.0000
53.8900 781.0000 1.0000
53.9000 737.0000 1.0000
53.9100 764.0000 1.0000
53.9200 815.0000 1.0000
53.9300 777.0000 1.0000
53.9400 751.0000 1.0000
53.9500 743.0000 1.0000
53.9600 711.0000 1.0000
53.9700 722.0000 1.0000
53.9800 736.0000 1.0000
53.9900 774.0000 1.0000
54.0000 768.0000 1.0000
54.0100 742.0000 1.0000
54.0200 788.0000 1.0000
54.0300 717.0000 1.0000
54.0400 820.0000 1.0000
54.0500 766.0000 1.0000
54.0600 779.0000 1.0000
54.0700 742.0000 1.0000
54.0800 756.0000 1.0000
54.0900 753.0000 1.0000
54.1000 744.0000 1.0000
54.1100 745.0000 1.0000
54.1200 766.0000 1.0000
54.1300 751.0000 1.0000
54.1400 762.0000 1.0000
54.1500 756.0000 1.0000
54.1600 806.0000 1.0000
54.1700 812.0000 1.0000
54.1800 815.0000 1.0000
54.1900 789.0000 1.0000
54.2000 767.0000 1.0000
54.2100 774.0000 1.0000
54.2200 751.0000 1.0000
54.2300 756.0000 1.0000
54.2400 739.0000 1.0000
54.2500 761.0000 1.0000
54.2600 785.0000 1.0000
54.2700 763.0000 1.0000
54.2800 785.0000 1.0000
54.2900 782.0000 1.0000
54.3000 756.0000 1.0000
54.3100 759.0000 1.0000
54.3200 796.0000 1.0000
54.3300 733.0000 1.0000
54.3400 765.0000 1.0000
54.3500 756.0000 1.0000
54.3600 748.0000 1.0000
54.3700 774.0000 1.0000
54.3800 743.0000 1.0000
54.3900 817.0000 1.0000
54.4000 743.0000 1.0000
54.4100 737.0000 1.0000
54.4200 769.0000 1.0000
54.4300 764.0000 1.0000
54.4400 797.0000 1.0000
54.4500 764.0000 1.0000
54.4600 751.0000 1.0000
54.4700 767.0000 1.0000
54.4800 751.0000 1.0000
54.4900 774.0000 1.0000
54.5000 810.0000 1.0000
54.5100 783.0000 1.0000
54.5200 790.0000 1.0000
54.5300 724.0000 1.0000
54.5400 755.0000 1.0000
54.5500 764.0000 1.0000
54.5600 759.0000 1.0000
54.5700 759.0000 1.0000
54.5800 759.0000 1.0000
54.5900 762.0000 1.0000
54.6000 782.0000 1.0000
54.6100 782.0000 1.0000
54.6200 785.0000 1.0000
54.6300 760.0000 1.0000
54.6400 812.0000 1.0000
54.6500 744.0000 1.0000
54.6600 794.0000 1.0000
54.6700 763.0000 1.0000
54.6800 784.0000 1.0000
54.6900 771.0000 1.0000
54.7000 775.0000 1.0000
54.7100 754.0000 1.0000
54.7200 781.0000 1.0000
54.7300 783.0000 1.0000
54.7400 788.0000 1.0000
54.7500 844.0000 1.0000
54.7600 802.0000 1.0000
54.7700 822.0000 1.0000
54.7800 812.0000 1.0000
54.7900 779.0000 1.0000
54.8000 768.0000 1.0000
54.8100 788.0000 1.0000
54.8200 776.0000 1.0000
54.8300 788.0000 1.0000
54.8400 775.0000 1.0000
54.8500 792.0000 1.0000
54.8600 770.0000 1.0000
54.8700 831.0000 1.0000
54.8800 831.0000 1.0000
54.8900 808.0000 1.0000
54.9000 804.0000 1.0000
54.9100 812.0000 1.0000
54.9200 821.0000 1.0000
54.9300 844.0000 1.0000
54.9400 802.0000 1.0000
54.9500 822.0000 1.0000
54.9600 828.0000 1.0000
54.9700 809.0000 1.0000
54.9800 876.0000 1.0000
54.9900 861.0000 1.0000
55.0000 852.0000 1.0000
55.0100 839.0000 1.0000
55.0200 817.0000 1.0000
55.0300 819.0000 1.0000
55.0400 806.0000 1.0000
55.0500 786.0000 1.0000
55.0600 829.0000 1.0000
55.0700 809.0000 1.0000
55.0800 795.0000 1.0000
55.0900 837.0000 1.0000
55.1000 862.0000 1.0000
55.1100 861.0000 1.0000
55.1200 850.0000 1.0000
55.1300 843.0000 1.0000
55.1400 841.0000 1.0000
55.1500 894.0000 1.0000
55.1600 895.0000 1.0000
55.1700 878.0000 1.0000
55.1800 903.0000 1.0000
55.1900 931.0000 1.0000
55.2000 965.0000 1.0000
55.2100 986.0000 1.0000
55.2200 985.0000 1.0000
55.2300 999.0000 1.0000
55.2400 1013.0000 1.0000
55.2500 1059.0000 1.0000
55.2600 1029.0000 1.0000
55.2700 1031.0000 1.0000
55.2800 1048.0000 1.0000
55.2900 1146.0000 1.0000
55.3000 1158.0000 1.0000
55.3100 1188.0000 1.0000
55.3200 1125.0000 1.0000
55.3300 1206.0000 1.0000
55.3400 1122.0000 1.0000
55.3500 1174.0000 1.0000
55.3600 1135.0000 1.0000
55.3700 1122.0000 1.0000
55.3800 1133.0000 1.0000
55.3900 1170.0000 1.0000
55.4000 1152.0000 1.0000
55.4100 1152.0000 1.0000
55.4200 1102.0000 1.0000
55.4300 1078.0000 1.0000
55.4400 1069.0000 1.0000
55.4500 1061.0000 1.0000
55.4600 1085.0000 1.0000
55.4700 1046.0000 1.0000
55.4800 1031.0000 1.0000
55.4900 1054.0000 1.0000
55.5000 977.0000 1.0000
55.5100 956.0000 1.0000
55.5200 988.0000 1.0000
55.5300 985.0000 1.0000
55.5400 1002.0000 1.0000
55.5500 973.0000 1.0000
55.5600 993.0000 1.0000
55.5700 926.0000 1.0000
55.5800 912.0000 1.0000
55.5900 910.0000 1.0000
55.6000 885.0000 1.0000
55.6100 887.0000 1.0000
55.6200 866.0000 1.0000
55.6300 893.0000 1.0000
55.6400 879.0000 1.0000
55.6500 861.0000 1.0000
55.6600 837.0000 1.0000
55.6700 824.0000 1.0000
55.6800 846.0000 1.0000
55.6900 817.0000 1.0000
55.7000 864.0000 1.0000
55.7100 831.0000 1.0000
55.7200 812.0000 1.0000
55.7300 779.0000 1.0000
55.7400 807.0000 1.0000
55.7500 776.0000 1.0000
55.7600 798.0000 1.0000
55.7700 771.0000 1.0000
55.7800 837.0000 1.0000
55.7900 776.0000 1.0000
55.8000 774.0000 1.0000
55.8100 777.0000 1.0000
55.8200 769.0000 1.0000
55.8300 747.0000 1.0000
55.8400 796.0000 1.0000
55.8500 741.0000 1.0000
55.8600 753.0000 1.0000
55.8700 777.0000 1.0000
55.8800 765.0000 1.0000
55.8900 748.0000 1.0000
55.9000 764.0000 1.0000
55.9100 765.0000 1.0000
55.9200 767.0000 1.0000
55.9300 752.0000 1.0000
55.9400 772.0000 1.0000
55.9500 737.0000 1.0000
55.9600 771.0000 1.0000
55.9700 795.0000 1.0000
55.9800 805.0000 1.0000
55.9900 740.0000 1.0000
56.0000 741.0000 1.0000
56.0100 760.0000 1.0000
56.0200 758.0000 1.0000
56.0300 692.0000 1.0000
56.0400 753.0000 1.0000
56.0500 755.0000 1.0000
56.0600 738.0000 1.0000
56.0700 748.0000 1.0000
56.0800 775.0000 1.0000
56.0900 788.0000 1.0000
56.1000 786.0000 1.0000
56.1100 751.0000 1.0000
56.1200 766.0000 1.0000
56.1300 726.0000 1.0000
56.1400 738.0000 1.0000
56.1500 732.0000 1.0000
56.1600 706.0000 1.0000
56.1700 748.0000 1.0000
56.1800 731.0000 1.0000
56.1900 737.0000 1.0000
56.2000 749.0000 1.0000
56.2100 718.0000 1.0000
56.2200 765.0000 1.0000
56.2300 713.0000 1.0000
56.2400 744.0000 1.0000
56.2500 763.0000 1.0000
56.2600 773.0000 1.0000
56.2700 723.0000 1.0000
56.2800 707.0000 1.0000
56.2900 775.0000 1.0000
56.3000 725.0000 1.0000
56.3100 778.0000 1.0000
56.3200 746.0000 1.0000
56.3300 738.0000 1.0000
56.3400 726.0000 1.0000
56.3500 711.0000 1.0000
56.3600 774.0000 1.0000
56.3700 750.0000 1.0000
56.3800 779.0000 1.0000
56.3900 713.0000 1.0000
56.4000 756.0000 1.0000
56.4100 734.0000 1.0000
56.4200 694.0000 1.0000
56.4300 736.0000 1.0000
56.4400 719.0000 1.0000
56.4500 710.0000 1.0000
56.4600 768.0000 1.0000
56.4700 744.0000 1.0000
56.4800 766.0000 1.0000
56.4900 679.0000 1.0000
56.5000 732.0000 1.0000
56.5100 769.0000 1.0000
56.5200 710.0000 1.0000
56.5300 713.0000 1.0000
56.5400 710.0000 1.0000
56.5500 750.0000 1.0000
56.5600 765.0000 1.0000
56.5700 710.0000 1.0000
56.5800 746.0000 1.0000
56.5900 784.0000 1.0000
56.6000 741.0000 1.0000
56.6100 740.0000 1.0000
56.6200 781.0000 1.0000
56.6300 741.0000 1.0000
56.6400 691.0000 1.0000
56.6500 720.0000 1.0000
56.6600 745.0000 1.0000
56.6700 719.0000 1.0000
56.6800 729.0000 1.0000
56.6900 733.0000 1.0000
56.7000 747.0000 1.0000
56.7100 764.0000 1.0000
56.7200 723.0000 1.0000
56.7300 702.0000 1.0000
56.7400 709.0000 1.0000
56.7500 736.0000 1.0000
56.7600 744.0000 1.0000
56.7700 741.0000 1.0000
56.7800 711.0000 1.0000
56.7900 741.0000 1.0000
56.8000 730.0000 1.0000
56.8100 691.0000 1.0000
56.8200 690.0000 1.0000
56.8300 744.0000 1.0000
56.8400 773.0000 1.0000
56.8500 735.0000 1.0000
56.8600 729.0000 1.0000
56.8700 736.0000 1.0000
56.8800 716.0000 1.0000
56.8900 759.0000 1.0000
56.9000 754.0000 1.0000
56.9100 745.0000 1.0000
56.9200 740.0000 1.0000
56.9300 713.0000 1.0000
56.9400 721.0000 1.0000
56.9500 748.0000 1.0000
56.9600 722.0000 1.0000
56.9700 661.0000 1.0000
56.9800 693.0000 1.0000
56.9900 700.0000 1.0000
57.0000 698.0000 1.0000
57.0100 736.0000 1.0000
57.0200 740.0000 1.0000
57.0300 754.0000 1.0000
57.0400 773.0000 1.0000
57.0500 739.0000 1.0000
57.0600 733.0000 1.0000
57.0700 715.0000 1.0000
57.0800 693.0000 1.0000
57.0900 772.0000 1.0000
57.1000 730.0000 1.0000
57.1100 691.0000 1.0000
57.1200 701.0000 1.0000
57.1300 747.0000 1.0000
57.1400 739.0000 1.0000
57.1500 740.0000 1.0000
57.1600 719.0000 1.0000
57.1700 675.0000 1.0000
57.1800 706.0000 1.0000
57.1900 705.0000 1.0000
57.2000 699.0000 1.0000
57.2100 748.0000 1.0000
57.2200 752.0000 1.0000
57.2300 728.0000 1.0000
57.2400 708.0000 1.0000
57.2500 754.0000 1.0000
57.2600 789.0000 1.0000
57.2700 743.0000 1.0000
57.2800 721.0000 1.0000
57.2900 673.0000 1.0000
57.3000 698.0000 1.0000
57.3100 757.0000 1.0000
57.3200 739.0000 1.0000
57.3300 673.0000 1.0000
57.3400 721.0000 1.0000
57.3500 749.0000 1.0000
57.3600 774.0000 1.0000
57.3700 712.0000 1.0000
57.3800 702.0000 1.0000
57.3900 714.0000 1.0000
57.4000 678.0000 1.0000
57.4100 709.0000 1.0000
57.4200 725.0000 1.0000
57.4300 758.0000 1.0000
57.4400 753.0000 1.0000
57.4500 704.0000 1.0000
57.4600 727.0000 1.0000
57.4700 710.0000 1.0000
57.4800 749.0000 1.0000
57.4900 734.0000 1.0000
57.5000 756.0000 1.0000
57.5100 724.0000 1.0000
57.5200 696.0000 1.0000
57.5300 757.0000 1.0000
57.5400 744.0000 1.0000
57.5500 719.0000 1.0000
57.5600 730.0000 1.0000
57.5700 726.0000 1.0000
57.5800 738.0000 1.0000
57.5900 727.0000 1.0000
57.6000 712.0000 1.0000
57.6100 741.0000 1.0000
57.6200 709.0000 1.0000
57.6300 727.0000 1.0000
57.6400 687.0000 1.0000
57.6500 716.0000 1.0000
57.6600 728.0000 1.0000
57.6700 710.0000 1.0000
57.6800 725.0000 1.0000
57.6900 735.0000 1.0000
57.7000 717.0000 1.0000
57.7100 703.0000 1.0000
57.7200 691.0000 1.0000
57.7300 693.0000 1.0000
57.7400 708.0000 1.0000
57.7500 730.0000 1.0000
57.7600 787.0000 1.0000
57.7700 688.0000 1.0000
57.7800 729.0000 1.0000
57.7900 744.0000 1.0000
57.8000 754.0000 1.0000
57.8100 716.0000 1.0000
57.8200 728.0000 1.0000
57.8300 718.0000 1.0000
57.8400 730.0000 1.0000
57.8500 716.0000 1.0000
57.8600 729.0000 1.0000
57.8700 715.0000 1.0000
57.8800 791.0000 1.0000
57.8900 732.0000 1.0000
57.9000 720.0000 1.0000
57.9100 742.0000 1.0000
57.9200 700.0000 1.0000
57.9300 742.0000 1.0000
57.9400 700.0000 1.0000
57.9500 737.0000 1.0000
57.9600 723.0000 1.0000
57.9700 767.0000 1.0000
57.9800 738.0000 1.0000
57.9900 696.0000 1.0000
58.0000 714.0000 1.0000
58.0100 726.0000 1.0000
58.0200 730.0000 1.0000
58.0300 739.0000 1.0000
58.0400 768.0000 1.0000
58.0500 775.0000 1.0000
58.0600 755.0000 1.0000
58.0700 708.0000 1.0000
58.0800 707.0000 1.0000
58.0900 755.0000 1.0000
58.1000 743.0000 1.0000
58.1100 705.0000 1.0000
58.1200 689.0000 1.0000
58.1300 747.0000 1.0000
58.1400 743.0000 1.0000
58.1500 725.0000 1.0000
58.1600 722.0000 1.0000
58.1700 738.0000 1.0000
58.1800 726.0000 1.0000
58.1900 734.0000 1.0000
58.2000 740.0000 1.0000
58.2100 737.0000 1.0000
58.2200 742.0000 1.0000
58.2300 740.0000 1.0000
58.2400 772.0000 1.0000
58.2500 726.0000 1.0000
58.2600 760.0000 1.0000
58.2700 798.0000 1.0000
58.2800 754.0000 1.0000
58.2900 710.0000 1.0000
58.3000 719.0000 1.0000
58.3100 708.0000 1.0000
58.3200 757.0000 1.0000
58.3300 778.0000 1.0000
58.3400 733.0000 1.0000
58.3500 745.0000 1.0000
58.3600 743.0000 1.0000
58.3700 715.0000 1.0000
58.3800 763.0000 1.0000
58.3900 721.0000 1.0000
58.4000 728.0000 1.0000
58.4100 760.0000 1.0000
58.4200 767.0000 1.0000
58.4300 734.0000 1.0000
58.4400 747.0000 1.0000
58.4500 739.0000 1.0000
58.4600 762.0000 1.0000
58.4700 771.0000 1.0000
58.4800 702.0000 1.0000
58.4900 749.0000 1.0000
58.5000 782.0000 1.0000
58.5100 695.0000 1.0000
58.5200 715.0000 1.0000
58.5300 731.0000 1.0000
58.5400 781.0000 1.0000
58.5500 751.0000 1.0000
58.5600 739.0000 1.0000
58.5700 732.0000 1.0000
58.5800 750.0000 1.0000
58.5900 733.0000 1.0000
58.6000 745.0000 1.0000
58.6100 746.0000 1.0000
58.6200 789.0000 1.0000
58.6300 757.0000 1.0000
58.6400 710.0000 1.0000
58.6500 707.0000 1.0000
58.6600 718.0000 1.0000
58.6700 712.0000 1.0000
58.6800 729.0000 1.0000
58.6900 785.0000 1.0000
58.7000 722.0000 1.0000
58.7100 713.0000 1.0000
58.7200 695.0000 1.0000
58.7300 720.0000 1.0000
58.7400 777.0000 1.0000
58.7500 696.0000 1.0000
58.7600 709.0000 1.0000
58.7700 709.0000 1.0000
58.7800 727.0000 1.0000
58.7900 731.0000 1.0000
58.8000 695.0000 1.0000
58.8100 694.0000 1.0000
58.8200 736.0000 1.0000
58.8300 677.0000 1.0000
58.8400 744.0000 1.0000
58.8500 703.0000 1.0000
58.8600 715.0000 1.0000
58.8700 756.0000 1.0000
58.8800 715.0000 1.0000
58.8900 737.0000 1.0000
58.9000 704.0000 1.0000
58.9100 728.0000 1.0000
58.9200 756.0000 1.0000
58.9300 710.0000 1.0000
58.9400 684.0000 1.0000
58.9500 720.0000 1.0000
58.9600 691.0000 1.0000
58.9700 721.0000 1.0000
58.9800 772.0000 1.0000
58.9900 758.0000 1.0000
59.0000 759.0000 1.0000
59.0100 742.0000 1.0000
59.0200 713.0000 1.0000
59.0300 767.0000 1.0000
59.0400 739.0000 1.0000
59.0500 782.0000 1.0000
59.0600 751.0000 1.0000
59.0700 709.0000 1.0000
59.0800 709.0000 1.0000
59.0900 712.0000 1.0000
59.1000 715.0000 1.0000
59.1100 709.0000 1.0000
59.1200 716.0000 1.0000
59.1300 772.0000 1.0000
59.1400 732.0000 1.0000
59.1500 712.0000 1.0000
59.1600 752.0000 1.0000
59.1700 735.0000 1.0000
59.1800 707.0000 1.0000
59.1900 695.0000 1.0000
59.2000 723.0000 1.0000
59.2100 699.0000 1.0000
59.2200 719.0000 1.0000
59.2300 736.0000 1.0000
59.2400 720.0000 1.0000
59.2500 771.0000 1.0000
59.2600 729.0000 1.0000
59.2700 723.0000 1.0000
59.2800 702.0000 1.0000
59.2900 743.0000 1.0000
59.3000 732.0000 1.0000
59.3100 728.0000 1.0000
59.3200 752.0000 1.0000
59.3300 752.0000 1.0000
59.3400 724.0000 1.0000
59.3500 722.0000 1.0000
59.3600 745.0000 1.0000
59.3700 727.0000 1.0000
59.3800 706.0000 1.0000
59.3900 797.0000 1.0000
59.4000 756.0000 1.0000
59.4100 733.0000 1.0000
59.4200 749.0000 1.0000
59.4300 731.0000 1.0000
59.4400 749.0000 1.0000
59.4500 717.0000 1.0000
59.4600 717.0000 1.0000
59.4700 724.0000 1.0000
59.4800 751.0000 1.0000
59.4900 762.0000 1.0000
59.5000 728.0000 1.0000
59.5100 762.0000 1.0000
59.5200 763.0000 1.0000
59.5300 736.0000 1.0000
59.5400 707.0000 1.0000
59.5500 724.0000 1.0000
59.5600 745.0000 1.0000
59.5700 729.0000 1.0000
59.5800 678.0000 1.0000
59.5900 703.0000 1.0000
59.6000 723.0000 1.0000
59.6100 714.0000 1.0000
59.6200 754.0000 1.0000
59.6300 715.0000 1.0000
59.6400 747.0000 1.0000
59.6500 753.0000 1.0000
59.6600 717.0000 1.0000
59.6700 707.0000 1.0000
59.6800 685.0000 1.0000
59.6900 748.0000 1.0000
59.7000 728.0000 1.0000
59.7100 739.0000 1.0000
59.7200 744.0000 1.0000
59.7300 745.0000 1.0000
59.7400 716.0000 1.0000
59.7500 721.0000 1.0000
59.7600 730.0000 1.0000
59.7700 711.0000 1.0000
59.7800 710.0000 1.0000
59.7900 694.0000 1.0000
59.8000 702.0000 1.0000
59.8100 712.0000 1.0000
59.8200 695.0000 1.0000
59.8300 708.0000 1.0000
59.8400 731.0000 1.0000
59.8500 738.0000 1.0000
59.8600 728.0000 1.0000
59.8700 674.0000 1.0000
59.8800 683.0000 1.0000
59.8900 697.0000 1.0000
59.9000 744.0000 1.0000
59.9100 719.0000 1.0000
59.9200 705.0000 1.0000
59.9300 729.0000 1.0000
59.9400 732.0000 1.0000
59.9500 747.0000 1.0000
59.9600 710.0000 1.0000
59.9700 746.0000 1.0000
59.9800 716.0000 1.0000
59.9900 761.0000 1.0000
60.0000 705.0000 1.0000
60.0100 674.0000 1.0000
60.0200 698.0000 1.0000
60.0300 756.0000 1.0000
60.0400 689.0000 1.0000
60.0500 725.0000 1.0000
60.0600 705.0000 1.0000
60.0700 753.0000 1.0000
60.0800 728.0000 1.0000
60.0900 740.0000 1.0000
60.1000 723.0000 1.0000
60.1100 711.0000 1.0000
60.1200 745.0000 1.0000
60.1300 765.0000 1.0000
60.1400 752.0000 1.0000
60.1500 747.0000 1.0000
60.1600 781.0000 1.0000
60.1700 759.0000 1.0000
60.1800 743.0000 1.0000
60.1900 729.0000 1.0000
60.2000 731.0000 1.0000
60.2100 741.0000 1.0000
60.2200 764.0000 1.0000
60.2300 748.0000 1.0000
60.2400 746.0000 1.0000
60.2500 729.0000 1.0000
60.2600 702.0000 1.0000
60.2700 713.0000 1.0000
60.2800 725.0000 1.0000
60.2900 714.0000 1.0000
60.3000 748.0000 1.0000
60.3100 713.0000 1.0000
60.3200 753.0000 1.0000
60.3300 724.0000 1.0000
60.3400 714.0000 1.0000
60.3500 713.0000 1.0000
60.3600 709.0000 1.0000
60.3700 752.0000 1.0000
60.3800 724.0000 1.0000
60.3900 726.0000 1.0000
60.4000 709.0000 1.0000
60.4100 691.0000 1.0000
60.4200 747.0000 1.0000
60.4300 761.0000 1.0000
60.4400 764.0000 1.0000
60.4500 713.0000 1.0000
60.4600 755.0000 1.0000
60.4700 743.0000 1.0000
60.4800 668.0000 1.0000
60.4900 729.0000 1.0000
60.5000 743.0000 1.0000
60.5100 697.0000 1.0000
60.5200 742.0000 1.0000
60.5300 687.0000 1.0000
60.5400 730.0000 1.0000
60.5500 705.0000 1.0000
60.5600 719.0000 1.0000
60.5700 714.0000 1.0000
60.5800 711.0000 1.0000
60.5900 694.0000 1.0000
60.6000 726.0000 1.0000
60.6100 730.0000 1.0000
60.6200 711.0000 1.0000
60.6300 750.0000 1.0000
60.6400 678.0000 1.0000
60.6500 737.0000 1.0000
60.6600 729.0000 1.0000
60.6700 762.0000 1.0000
60.6800 724.0000 1.0000
60.6900 720.0000 1.0000
60.7000 740.0000 1.0000
60.7100 743.0000 1.0000
60.7200 757.0000 1.0000
60.7300 728.0000 1.0000
60.7400 720.0000 1.0000
60.7500 700.0000 1.0000
60.7600 706.0000 1.0000
60.7700 702.0000 1.0000
60.7800 752.0000 1.0000
60.7900 695.0000 1.0000
60.8000 717.0000 1.0000
60.8100 731.0000 1.0000
60.8200 748.0000 1.0000
60.8300 710.0000 1.0000
60.8400 732.0000 1.0000
60.8500 795.0000 1.0000
60.8600 711.0000 1.0000
60.8700 698.0000 1.0000
60.8800 708.0000 1.0000
60.8900 756.0000 1.0000
60.9000 730.0000 1.0000
60.9100 743.0000 1.0000
60.9200 740.0000 1.0000
60.9300 725.0000 1.0000
60.9400 722.0000 1.0000
60.9500 700.0000 1.0000
60.9600 759.0000 1.0000
60.9700 717.0000 1.0000
60.9800 710.0000 1.0000
60.9900 749.0000 1.0000
61.0000 698.0000 1.0000
61.0100 663.0000 1.0000
61.0200 734.0000 1.0000
61.0300 763.0000 1.0000
61.0400 732.0000 1.0000
61.0500 730.0000 1.0000
61.0600 720.0000 1.0000
61.0700 732.0000 1.0000
61.0800 725.0000 1.0000
61.0900 714.0000 1.0000
61.1000 673.0000 1.0000
61.1100 718.0000 1.0000
61.1200 757.0000 1.0000
61.1300 702.0000 1.0000
61.1400 706.0000 1.0000
61.1500 701.0000 1.0000
61.1600 774.0000 1.0000
61.1700 733.0000 1.0000
61.1800 716.0000 1.0000
61.1900 727.0000 1.0000
61.2000 718.0000 1.0000
61.2100 787.0000 1.0000
61.2200 708.0000 1.0000
61.2300 743.0000 1.0000
61.2400 723.0000 1.0000
61.2500 784.0000 1.0000
61.2600 795.0000 1.0000
61.2700 756.0000 1.0000
61.2800 713.0000 1.0000
61.2900 734.0000 1.0000
61.3000 756.0000 1.0000
61.3100 764.0000 1.0000
61.3200 740.0000 1.0000
61.3300 696.0000 1.0000
61.3400 760.0000 1.0000
61.3500 757.0000 1.0000
61.3600 761.0000 1.0000
61.3700 726.0000 1.0000
61.3800 718.0000 1.0000
61.3900 788.0000 1.0000
61.4000 713.0000 1.0000
61.4100 751.0000 1.0000
61.4200 722.0000 1.0000
61.4300 768.0000 1.0000
61.4400 748.0000 1.0000
61.4500 714.0000 1.0000
61.4600 737.0000 1.0000
61.4700 746.0000 1.0000
61.4800 786.0000 1.0000
61.4900 756.0000 1.0000
61.5000 730.0000 1.0000
61.5100 751.0000 1.0000
61.5200 734.0000 1.0000
61.5300 782.0000 1.0000
61.5400 746.0000 1.0000
61.5500 695.0000 1.0000
61.5600 697.0000 1.0000
61.5700 773.0000 1.0000
61.5800 759.0000 1.0000
61.5900 717.0000 1.0000
61.6000 712.0000 1.0000
61.6100 733.0000 1.0000
61.6200 741.0000 1.0000
61.6300 749.0000 1.0000
61.6400 724.0000 1.0000
61.6500 764.0000 1.0000
61.6600 799.0000 1.0000
61.6700 730.0000 1.0000
61.6800 745.0000 1.0000
61.6900 735.0000 1.0000
61.7000 727.0000 1.0000
61.7100 756.0000 1.0000
61.7200 802.0000 1.0000
61.7300 762.0000 1.0000
61.7400 745.0000 1.0000
61.7500 746.0000 1.0000
61.7600 749.0000 1.0000
61.7700 799.0000 1.0000
61.7800 782.0000 1.0000
61.7900 761.0000 1.0000
61.8000 751.0000 1.0000
61.8100 809.0000 1.0000
61.8200 782.0000 1.0000
61.8300 775.0000 1.0000
61.8400 785.0000 1.0000
61.8500 782.0000 1.0000
61.8600 806.0000 1.0000
61.8700 781.0000 1.0000
61.8800 797.0000 1.0000
61.8900 785.0000 1.0000
61.9000 783.0000 1.0000
61.9100 775.0000 1.0000
61.9200 814.0000 1.0000
61.9300 774.0000 1.0000
61.9400 815.0000 1.0000
61.9500 855.0000 1.0000
61.9600 822.0000 1.0000
61.9700 837.0000 1.0000
61.9800 905.0000 1.0000
61.9900 901.0000 1.0000
62.0000 943.0000 1.0000
62.0100 889.0000 1.0000
62.0200 884.0000 1.0000
62.0300 902.0000 1.0000
62.0400 889.0000 1.0000
62.0500 884.0000 1.0000
62.0600 959.0000 1.0000
62.0700 1001.0000 1.0000
62.0800 946.0000 1.0000
62.0900 981.0000 1.0000
62.1000 1027.0000 1.0000
62.1100 1062.0000 1.0000
62.1200 1105.0000 1.0000
62.1300 1106.0000 1.0000
62.1400 1117.0000 1.0000
62.1500 1142.0000 1.0000
62.1600 1140.0000 1.0000
62.1700 1226.0000 1.0000
62.1800 1263.0000 1.0000
62.1900 1281.0000 1.0000
62.2000 1322.0000 1.0000
62.2100 1414.0000 1.0000
62.2200 1406.0000 1.0000
62.2300 1402.0000 1.0000
62.2400 1406.0000 1.0000
62.2500 1492.0000 1.0000
62.2600 1538.0000 1.0000
62.2700 1562.0000 1.0000
62.2800 1651.0000 1.0000
62.2900 1622.0000 1.0000
62.3000 1648.0000 1.0000
62.3100 1668.0000 1.0000
62.3200 1686.0000 1.0000
62.3300 1681.0000 1.0000
62.3400 1700.0000 1.0000
62.3500 1672.0000 1.0000
62.3600 1788.0000 1.0000
62.3700 1666.0000 1.0000
62.3800 1684.0000 1.0000
62.3900 1626.0000 1.0000
62.4000 1629.0000 1.0000
62.4100 1642.0000 1.0000
62.4200 1650.0000 1.0000
62.4300 1673.0000 1.0000
62.4400 1654.0000 1.0000
62.4500 1631.0000 1.0000
62.4600 1565.0000 1.0000
62.4700 1624.0000 1.0000
62.4800 1648.0000 1.0000
62.4900 1507.0000 1.0000
62.5000 1527.0000 1.0000
62.5100 1432.0000 1.0000
62.5200 1456.0000 1.0000
62.5300 1440.0000 1.0000
62.5400 1425.0000 1.0000
62.5500 1338.0000 1.0000
62.5600 1382.0000 1.0000
62.5700 1346.0000 1.0000
62.5800 1311.0000 1.0000
62.5900 1316.0000 1.0000
62.6000 1223.0000 1.0000
62.6100 1197.0000 1.0000
62.6200 1181.0000 1.0000
62.6300 1147.0000 1.0000
62.6400 1145.0000 1.0000
62.6500 1144.0000 1.0000
62.6600 1066.0000 1.0000
62.6700 1064.0000 1.0000
62.6800 1051.0000 1.0000
62.6900 1067.0000 1.0000
62.7000 1023.0000 1.0000
62.7100 1047.0000 1.0000
62.7200 1016.0000 1.0000
62.7300 1012.0000 1.0000
62.7400 966.0000 1.0000
62.7500 968.0000 1.0000
62.7600 984.0000 1.0000
62.7700 1006.0000 1.0000
62.7800 930.0000 1.0000
62.7900 883.0000 1.0000
62.8000 958.0000 1.0000
62.8100 911.0000 1.0000
62.8200 881.0000 1.0000
62.8300 931.0000 1.0000
62.8400 849.0000 1.0000
62.8500 893.0000 1.0000
62.8600 879.0000 1.0000
62.8700 844.0000 1.0000
62.8800 865.0000 1.0000
62.8900 861.0000 1.0000
62.9000 854.0000 1.0000
62.9100 825.0000 1.0000
62.9200 820.0000 1.0000
62.9300 806.0000 1.0000
62.9400 782.0000 1.0000
62.9500 826.0000 1.0000
62.9600 789.0000 1.0000
62.9700 806.0000 1.0000
62.9800 848.0000 1.0000
62.9900 849.0000 1.0000
63.0000 820.0000 1.0000
63.0100 824.0000 1.0000
63.0200 771.0000 1.0000
63.0300 846.0000 1.0000
63.0400 785.0000 1.0000
63.0500 812.0000 1.0000
63.0600 822.0000 1.0000
63.0700 763.0000 1.0000
63.0800 763.0000 1.0000
63.0900 764.0000 1.0000
63.1000 801.0000 1.0000
63.1100 823.0000 1.0000
63.1200 847.0000 1.0000
63.1300 763.0000 1.0000
63.1400 779.0000 1.0000
63.1500 782.0000 1.0000
63.1600 833.0000 1.0000
63.1700 788.0000 1.0000
63.1800 771.0000 1.0000
63.1900 765.0000 1.0000
63.2000 738.0000 1.0000
63.2100 768.0000 1.0000
63.2200 745.0000 1.0000
63.2300 772.0000 1.0000
63.2400 762.0000 1.0000
63.2500 785.0000 1.0000
63.2600 784.0000 1.0000
63.2700 770.0000 1.0000
63.2800 759.0000 1.0000
63.2900 783.0000 1.0000
63.3000 785.0000 1.0000
63.3100 785.0000 1.0000
63.3200 781.0000 1.0000
63.3300 818.0000 1.0000
63.3400 753.0000 1.0000
63.3500 789.0000 1.0000
63.3600 760.0000 1.0000
63.3700 762.0000 1.0000
63.3800 762.0000 1.0000
63.3900 781.0000 1.0000
63.4000 777.0000 1.0000
63.4100 773.0000 1.0000
63.4200 748.0000 1.0000
63.4300 778.0000 1.0000
63.4400 727.0000 1.0000
63.4500 720.0000 1.0000
63.4600 758.0000 1.0000
63.4700 751.0000 1.0000
63.4800 744.0000 1.0000
63.4900 734.0000 1.0000
63.5000 725.0000 1.0000
63.5100 697.0000 1.0000
63.5200 764.0000 1.0000
63.5300 778.0000 1.0000
63.5400 785.0000 1.0000
63.5500 766.0000 1.0000
63.5600 736.0000 1.0000
63.5700 750.0000 1.0000
63.5800 732.0000 1.0000
63.5900 725.0000 1.0000
63.6000 701.0000 1.0000
63.6100 756.0000 1.0000
63.6200 702.0000 1.0000
63.6300 781.0000 1.0000
63.6400 704.0000 1.0000
63.6500 737.0000 1.0000
63.6600 710.0000 1.0000
63.6700 747.0000 1.0000
63.6800 753.0000 1.0000
63.6900 728.0000 1.0000
63.7000 704.0000 1.0000
63.7100 755.0000 1.0000
63.7200 709.0000 1.0000
63.7300 760.0000 1.0000
63.7400 720.0000 1.0000
63.7500 750.0000 1.0000
63.7600 710.0000 1.0000
63.7700 687.0000 1.0000
63.7800 735.0000 1.0000
63.7900 741.0000 1.0000
63.8000 719.0000 1.0000
63.8100 705.0000 1.0000
63.8200 763.0000 1.0000
63.8300 738.0000 1.0000
63.8400 726.0000 1.0000
63.8500 767.0000 1.0000
63.8600 784.0000 1.0000
63.8700 715.0000 1.0000
63.8800 743.0000 1.0000
63.8900 742.0000 1.0000
63.9000 774.0000 1.0000
63.9100 748.0000 1.0000
63.9200 792.0000 1.0000
63.9300 734.0000 1.0000
63.9400 720.0000 1.0000
63.9500 723.0000 1.0000
63.9600 765.0000 1.0000
63.9700 740.0000 1.0000
63.9800 720.0000 1.0000
63.9900 736.0000 1.0000
64.0000 728.0000 1.0000
64.0100 755.0000 1.0000
64.0200 756.0000 1.0000
64.0300 719.0000 1.0000
64.0400 768.0000 1.0000
64.0500 727.0000 1.0000
64.0600 733.0000 1.0000
64.0700 755.0000 1.0000
64.0800 751.0000 1.0000
64.0900 754.0000 1.0000
64.1000 741.0000 1.0000
64.1100 679.0000 1.0000
64.1200 742.0000 1.0000
64.1300 721.0000 1.0000
64.1400 704.0000 1.0000
64.1500 799.0000 1.0000
64.1600 746.0000 1.0000
64.1700 742.0000 1.0000
64.1800 709.0000 1.0000
64.1900 714.0000 1.0000
64.2000 717.0000 1.0000
64.2100 783.0000 1.0000
64.2200 752.0000 1.0000
64.2300 733.0000 1.0000
64.2400 771.0000 1.0000
64.2500 764.0000 1.0000
64.2600 715.0000 1.0000
64.2700 803.0000 1.0000
64.2800 802.0000 1.0000
64.2900 766.0000 1.0000
64.3000 770.0000 1.0000
64.3100 775.0000 1.0000
64.3200 767.0000 1.0000
64.3300 783.0000 1.0000
64.3400 813.0000 1.0000
64.3500 758.0000 1.0000
64.3600 758.0000 1.0000
64.3700 766.0000 1.0000
64.3800 805.0000 1.0000
64.3900 806.0000 1.0000
64.4000 762.0000 1.0000
64.4100 770.0000 1.0000
64.4200 786.0000 1.0000
64.4300 792.0000 1.0000
64.4400 788.0000 1.0000
64.4500 851.0000 1.0000
64.4600 813.0000 1.0000
64.4700 817.0000 1.0000
64.4800 845.0000 1.0000
64.4900 858.0000 1.0000
64.5000 853.0000 1.0000
64.5100 823.0000 1.0000
64.5200 784.0000 1.0000
64.5300 837.0000 1.0000
64.5400 875.0000 1.0000
64.5500 847.0000 1.0000
64.5600 874.0000 1.0000
64.5700 865.0000 1.0000
64.5800 915.0000 1.0000
64.5900 914.0000 1.0000
64.6000 948.0000 1.0000
64.6100 908.0000 1.0000
64.6200 911.0000 1.0000
64.6300 904.0000 1.0000
64.6400 866.0000 1.0000
64.6500 892.0000 1.0000
64.6600 949.0000 1.0000
64.6700 947.0000 1.0000
64.6800 952.0000 1.0000
64.6900 970.0000 1.0000
64.7000 914.0000 1.0000
64.7100 967.0000 1.0000
64.7200 993.0000 1.0000
64.7300 988.0000 1.0000
64.7400 1003.0000 1.0000
64.7500 1012.0000 1.0000
64.7600 1004.0000 1.0000
64.7700 940.0000 1.0000
64.7800 1008.0000 1.0000
64.7900 990.0000 1.0000
64.8000 957.0000 1.0000
64.8100 965.0000 1.0000
64.8200 1015.0000 1.0000
64.8300 1021.0000 1.0000
64.8400 972.0000 1.0000
64.8500 963.0000 1.0000
64.8600 982.0000 1.0000
64.8700 988.0000 1.0000
64.8800 968.0000 1.0000
64.8900 946.0000 1.0000
64.9000 887.0000 1.0000
64.9100 919.0000 1.0000
64.9200 921.0000 1.0000
64.9300 940.0000 1.0000
64.9400 899.0000 1.0000
64.9500 933.0000 1.0000
64.9600 929.0000 1.0000
64.9700 878.0000 1.0000
64.9800 957.0000 1.0000
64.9900 922.0000 1.0000
65.0000 904.0000 1.0000
65.0100 846.0000 1.0000
65.0200 902.0000 1.0000
65.0300 942.0000 1.0000
65.0400 862.0000 1.0000
65.0500 878.0000 1.0000
65.0600 890.0000 1.0000
65.0700 891.0000 1.0000
65.0800 899.0000 1.0000
65.0900 879.0000 1.0000
65.1000 840.0000 1.0000
65.1100 892.0000 1.0000
65.1200 795.0000 1.0000
65.1300 830.0000 1.0000
65.1400 822.0000 1.0000
65.1500 833.0000 1.0000
65.1600 834.0000 1.0000
65.1700 862.0000 1.0000
65.1800 807.0000 1.0000
65.1900 843.0000 1.0000
65.2000 819.0000 1.0000
65.2100 797.0000 1.0000
65.2200 788.0000 1.0000
65.2300 865.0000 1.0000
65.2400 800.0000 1.0000
65.2500 807.0000 1.0000
65.2600 766.0000 1.0000
65.2700 800.0000 1.0000
65.2800 831.0000 1.0000
65.2900 798.0000 1.0000
65.3000 772.0000 1.0000
65.3100 807.0000 1.0000
65.3200 810.0000 1.0000
65.3300 789.0000 1.0000
65.3400 732.0000 1.0000
65.3500 742.0000 1.0000
65.3600 778.0000 1.0000
65.3700 795.0000 1.0000
65.3800 733.0000 1.0000
65.3900 771.0000 1.0000
65.4000 750.0000 1.0000
65.4100 796.0000 1.0000
65.4200 742.0000 1.0000
65.4300 786.0000 1.0000
65.4400 789.0000 1.0000
65.4500 758.0000 1.0000
65.4600 748.0000 1.0000
65.4700 798.0000 1.0000
65.4800 768.0000 1.0000
65.4900 771.0000 1.0000
65.5000 733.0000 1.0000
65.5100 741.0000 1.0000
65.5200 793.0000 1.0000
65.5300 792.0000 1.0000
65.5400 789.0000 1.0000
65.5500 732.0000 1.0000
65.5600 766.0000 1.0000
65.5700 729.0000 1.0000
65.5800 780.0000 1.0000
65.5900 795.0000 1.0000
65.6000 791.0000 1.0000
65.6100 748.0000 1.0000
65.6200 775.0000 1.0000
65.6300 800.0000 1.0000
65.6400 752.0000 1.0000
65.6500 794.0000 1.0000
65.6600 806.0000 1.0000
65.6700 822.0000 1.0000
65.6800 811.0000 1.0000
65.6900 830.0000 1.0000
65.7000 828.0000 1.0000
65.7100 823.0000 1.0000
65.7200 776.0000 1.0000
65.7300 803.0000 1.0000
65.7400 793.0000 1.0000
65.7500 775.0000 1.0000
65.7600 808.0000 1.0000
65.7700 755.0000 1.0000
65.7800 816.0000 1.0000
65.7900 851.0000 1.0000
65.8000 841.0000 1.0000
65.8100 795.0000 1.0000
65.8200 788.0000 1.0000
65.8300 807.0000 1.0000
65.8400 829.0000 1.0000
65.8500 829.0000 1.0000
65.8600 795.0000 1.0000
65.8700 817.0000 1.0000
65.8800 854.0000 1.0000
65.8900 891.0000 1.0000
65.9000 880.0000 1.0000
65.9100 882.0000 1.0000
65.9200 849.0000 1.0000
65.9300 899.0000 1.0000
65.9400 932.0000 1.0000
65.9500 909.0000 1.0000
65.9600 977.0000 1.0000
65.9700 949.0000 1.0000
65.9800 976.0000 1.0000
65.9900 1025.0000 1.0000
66.0000 1030.0000 1.0000
66.0100 1004.0000 1.0000
66.0200 980.0000 1.0000
66.0300 1064.0000 1.0000
66.0400 1066.0000 1.0000
66.0500 1083.0000 1.0000
66.0600 1103.0000 1.0000
66.0700 1153.0000 1.0000
66.0800 1205.0000 1.0000
66.0900 1256.0000 1.0000
66.1000 1266.0000 1.0000
66.1100 1321.0000 1.0000
66.1200 1427.0000 1.0000
66.1300 1441.0000 1.0000
66.1400 1490.0000 1.0000
66.1500 1523.0000 1.0000
66.1600 1635.0000 1.0000
66.1700 1701.0000 1.0000
66.1800 1734.0000 1.0000
66.1900 1880.0000 1.0000
66.2000 1935.0000 1.0000
66.2100 2036.0000 1.0000
66.2200 2193.0000 1.0000
66.2300 2271.0000 1.0000
66.2400 2450.0000 1.0000
66.2500 2423.0000 1.0000
66.2600 2481.0000 1.0000
66.2700 2625.0000 1.0000
66.2800 2668.0000 1.0000
66.2900 2712.0000 1.0000
66.3000 2687.0000 1.0000
66.3100 2742.0000 1.0000
66.3200 2742.0000 1.0000
66.3300 2621.0000 1.0000
66.3400 2655.0000 1.0000
66.3500 2659.0000 1.0000
66.3600 2569.0000 1.0000
66.3700 2518.0000 1.0000
66.3800 2505.0000 1.0000
66.3900 2393.0000 1.0000
66.4000 2425.0000 1.0000
66.4100 2386.0000 1.0000
66.4200 2371.0000 1.0000
66.4300 2363.0000 1.0000
66.4400 2297.0000 1.0000
66.4500 2299.0000 1.0000
66.4600 2213.0000 1.0000
66.4700 2129.0000 1.0000
66.4800 2141.0000 1.0000
66.4900 2032.0000 1.0000
66.5000 2123.0000 1.0000
66.5100 2000.0000 1.0000
66.5200 1900.0000 1.0000
66.5300 1913.0000 1.0000
66.5400 1798.0000 1.0000
66.5500 1719.0000 1.0000
66.5600 1727.0000 1.0000
66.5700 1630.0000 1.0000
66.5800 1590.0000 1.0000
66.5900 1443.0000 1.0000
66.6000 1425.0000 1.0000
66.6100 1391.0000 1.0000
66.6200 1374.0000 1.0000
66.6300 1331.0000 1.0000
66.6400 1278.0000 1.0000
66.6500 1271.0000 1.0000
66.6600 1190.0000 1.0000
66.6700 1196.0000 1.0000
66.6800 1183.0000 1.0000
66.6900 1070.0000 1.0000
66.7000 1073.0000 1.0000
66.7100 1055.0000 1.0000
66.7200 1024.0000 1.0000
66.7300 1009.0000 1.0000
66.7400 975.0000 1.0000
66.7500 939.0000 1.0000
66.7600 928.0000 1.0000
66.7700 908.0000 1.0000
66.7800 921.0000 1.0000
66.7900 940.0000 1.0000
66.8000 878.0000 1.0000
66.8100 889.0000 1.0000
66.8200 907.0000 1.0000
66.8300 912.0000 1.0000
66.8400 838.0000 1.0000
66.8500 814.0000 1.0000
66.8600 857.0000 1.0000
66.8700 884.0000 1.0000
66.8800 877.0000 1.0000
66.8900 785.0000 1.0000
66.9000 801.0000 1.0000
66.9100 853.0000 1.0000
66.9200 792.0000 1.0000
66.9300 764.0000 1.0000
66.9400 832.0000 1.0000
66.9500 782.0000 1.0000
66.9600 791.0000 1.0000
66.9700 785.0000 1.0000
66.9800 812.0000 1.0000
66.9900 787.0000 1.0000
67.0000 797.0000 1.0000
67.0100 736.0000 1.0000
67.0200 791.0000 1.0000
67.0300 818.0000 1.0000
67.0400 747.0000 1.0000
67.0500 748.0000 1.0000
67.0600 759.0000 1.0000
67.0700 770.0000 1.0000
67.0800 740.0000 1.0000
67.0900 748.0000 1.0000
67.1000 705.0000 1.0000
67.1100 744.0000 1.0000
67.1200 760.0000 1.0000
67.1300 705.0000 1.0000
67.1400 754.0000 1.0000
67.1500 767.0000 1.0000
67.1600 737.0000 1.0000
67.1700 724.0000 1.0000
67.1800 713.0000 1.0000
67.1900 726.0000 1.0000
67.2000 735.0000 1.0000
67.2100 681.0000 1.0000
67.2200 713.0000 1.0000
67.2300 699.0000 1.0000
67.2400 749.0000 1.0000
67.2500 693.0000 1.0000
67.2600 727.0000 1.0000
67.2700 735.0000 1.0000
67.2800 697.0000 1.0000
67.2900 696.0000 1.0000
67.3000 703.0000 1.0000
67.3100 708.0000 1.0000
67.3200 724.0000 1.0000
67.3300 690.0000 1.0000
67.3400 722.0000 1.0000
67.3500 687.0000 1.0000
67.3600 731.0000 1.0000
67.3700 739.0000 1.0000
67.3800 658.0000 1.0000
67.3900 654.0000 1.0000
67.4000 667.0000 1.0000
67.4100 720.0000 1.0000
67.4200 727.0000 1.0000
67.4300 689.0000 1.0000
67.4400 673.0000 1.0000
67.4500 715.0000 1.0000
67.4600 712.0000 1.0000
67.4700 691.0000 1.0000
67.4800 713.0000 1.0000
67.4900 676.0000 1.0000
67.5000 696.0000 1.0000
67.5100 692.0000 1.0000
67.5200 677.0000 1.0000
67.5300 655.0000 1.0000
67.5400 689.0000 1.0000
67.5500 674.0000 1.0000
67.5600 673.0000 1.0000
67.5700 671.0000 1.0000
67.5800 693.0000 1.0000
67.5900 651.0000 1.0000
67.6000 677.0000 1.0000
67.6100 679.0000 1.0000
67.6200 689.0000 1.0000
67.6300 719.0000 1.0000
67.6400 703.0000 1.0000
67.6500 613.0000 1.0000
67.6600 672.0000 1.0000
67.6700 689.0000 1.0000
67.6800 671.0000 1.0000
67.6900 696.0000 1.0000
67.7000 659.0000 1.0000
67.7100 699.0000 1.0000
67.7200 703.0000 1.0000
67.7300 671.0000 1.0000
67.7400 643.0000 1.0000
67.7500 647.0000 1.0000
67.7600 682.0000 1.0000
67.7700 679.0000 1.0000
67.7800 718.0000 1.0000
67.7900 687.0000 1.0000
67.8000 643.0000 1.0000
67.8100 650.0000 1.0000
67.8200 676.0000 1.0000
67.8300 674.0000 1.0000
67.8400 696.0000 1.0000
67.8500 669.0000 1.0000
67.8600 715.0000 1.0000
67.8700 689.0000 1.0000
67.8800 637.0000 1.0000
67.8900 667.0000 1.0000
67.9000 655.0000 1.0000
67.9100 700.0000 1.0000
67.9200 699.0000 1.0000
67.9300 672.0000 1.0000
67.9400 728.0000 1.0000
67.9500 679.0000 1.0000
67.9600 673.0000 1.0000
67.9700 683.0000 1.0000
67.9800 667.0000 1.0000
67.9900 627.0000 1.0000
68.0000 640.0000 1.0000
68.0100 676.0000 1.0000
68.0200 662.0000 1.0000
68.0300 667.0000 1.0000
68.0400 678.0000 1.0000
68.0500 667.0000 1.0000
68.0600 691.0000 1.0000
68.0700 662.0000 1.0000
68.0800 671.0000 1.0000
68.0900 650.0000 1.0000
68.1000 665.0000 1.0000
68.1100 705.0000 1.0000
68.1200 664.0000 1.0000
68.1300 662.0000 1.0000
68.1400 674.0000 1.0000
68.1500 679.0000 1.0000
68.1600 663.0000 1.0000
68.1700 637.0000 1.0000
68.1800 684.0000 1.0000
68.1900 685.0000 1.0000
68.2000 684.0000 1.0000
68.2100 680.0000 1.0000
68.2200 686.0000 1.0000
68.2300 669.0000 1.0000
68.2400 708.0000 1.0000
68.2500 682.0000 1.0000
68.2600 643.0000 1.0000
68.2700 677.0000 1.0000
68.2800 697.0000 1.0000
68.2900 700.0000 1.0000
68.3000 684.0000 1.0000
68.3100 636.0000 1.0000
68.3200 671.0000 1.0000
68.3300 657.0000 1.0000
68.3400 639.0000 1.0000
68.3500 653.0000 1.0000
68.3600 684.0000 1.0000
68.3700 647.0000 1.0000
68.3800 661.0000 1.0000
68.3900 697.0000 1.0000
68.4000 638.0000 1.0000
68.4100 653.0000 1.0000
68.4200 644.0000 1.0000
68.4300 681.0000 1.0000
68.4400 635.0000 1.0000
68.4500 678.0000 1.0000
68.4600 659.0000 1.0000
68.4700 679.0000 1.0000
68.4800 669.0000 1.0000
68.4900 675.0000 1.0000
68.5000 673.0000 1.0000
68.5100 657.0000 1.0000
68.5200 637.0000 1.0000
68.5300 644.0000 1.0000
68.5400 645.0000 1.0000
68.5500 673.0000 1.0000
68.5600 654.0000 1.0000
68.5700 672.0000 1.0000
68.5800 664.0000 1.0000
68.5900 653.0000 1.0000
68.6000 656.0000 1.0000
68.6100 642.0000 1.0000
68.6200 673.0000 1.0000
68.6300 679.0000 1.0000
68.6400 649.0000 1.0000
68.6500 621.0000 1.0000
68.6600 657.0000 1.0000
68.6700 678.0000 1.0000
68.6800 672.0000 1.0000
68.6900 656.0000 1.0000
68.7000 660.0000 1.0000
68.7100 647.0000 1.0000
68.7200 705.0000 1.0000
68.7300 646.0000 1.0000
68.7400 681.0000 1.0000
68.7500 625.0000 1.0000
68.7600 688.0000 1.0000
68.7700 681.0000 1.0000
68.7800 646.0000 1.0000
68.7900 656.0000 1.0000
68.8000 623.0000 1.0000
68.8100 660.0000 1.0000
68.8200 675.0000 1.0000
68.8300 667.0000 1.0000
68.8400 693.0000 1.0000
68.8500 695.0000 1.0000
68.8600 630.0000 1.0000
68.8700 616.0000 1.0000
68.8800 667.0000 1.0000
68.8900 668.0000 1.0000
68.9000 661.0000 1.0000
68.9100 647.0000 1.0000
68.9200 654.0000 1.0000
68.9300 654.0000 1.0000
68.9400 627.0000 1.0000
68.9500 643.0000 1.0000
68.9600 646.0000 1.0000
68.9700 659.0000 1.0000
68.9800 640.0000 1.0000
68.9900 614.0000 1.0000
69.0000 644.0000 1.0000
69.0100 660.0000 1.0000
69.0200 630.0000 1.0000
69.0300 681.0000 1.0000
69.0400 622.0000 1.0000
69.0500 679.0000 1.0000
69.0600 645.0000 1.0000
69.0700 622.0000 1.0000
69.0800 615.0000 1.0000
69.0900 614.0000 1.0000
69.1000 651.0000 1.0000
69.1100 620.0000 1.0000
69.1200 646.0000 1.0000
69.1300 633.0000 1.0000
69.1400 677.0000 1.0000
69.1500 649.0000 1.0000
69.1600 655.0000 1.0000
69.1700 628.0000 1.0000
69.1800 619.0000 1.0000
69.1900 644.0000 1.0000
69.2000 663.0000 1.0000
69.2100 664.0000 1.0000
69.2200 692.0000 1.0000
69.2300 641.0000 1.0000
69.2400 625.0000 1.0000
69.2500 683.0000 1.0000
69.2600 638.0000 1.0000
69.2700 629.0000 1.0000
69.2800 673.0000 1.0000
69.2900 640.0000 1.0000
69.3000 646.0000 1.0000
69.3100 633.0000 1.0000
69.3200 640.0000 1.0000
69.3300 648.0000 1.0000
69.3400 639.0000 1.0000
69.3500 658.0000 1.0000
69.3600 643.0000 1.0000
69.3700 660.0000 1.0000
69.3800 647.0000 1.0000
69.3900 652.0000 1.0000
69.4000 628.0000 1.0000
69.4100 619.0000 1.0000
69.4200 656.0000 1.0000
69.4300 653.0000 1.0000
69.4400 644.0000 1.0000
69.4500 638.0000 1.0000
69.4600 641.0000 1.0000
69.4700 656.0000 1.0000
69.4800 646.0000 1.0000
69.4900 662.0000 1.0000
69.5000 652.0000 1.0000
69.5100 699.0000 1.0000
69.5200 689.0000 1.0000
69.5300 640.0000 1.0000
69.5400 674.0000 1.0000
69.5500 662.0000 1.0000
69.5600 655.0000 1.0000
69.5700 651.0000 1.0000
69.5800 660.0000 1.0000
69.5900 651.0000 1.0000
69.6000 662.0000 1.0000
69.6100 668.0000 1.0000
69.6200 656.0000 1.0000
69.6300 638.0000 1.0000
69.6400 601.0000 1.0000
69.6500 647.0000 1.0000
69.6600 668.0000 1.0000
69.6700 661.0000 1.0000
69.6800 652.0000 1.0000
69.6900 647.0000 1.0000
69.7000 662.0000 1.0000
69.7100 685.0000 1.0000
69.7200 665.0000 1.0000
69.7300 642.0000 1.0000
69.7400 653.0000 1.0000
69.7500 686.0000 1.0000
69.7600 640.0000 1.0000
69.7700 631.0000 1.0000
69.7800 623.0000 1.0000
69.7900 663.0000 1.0000
69.8000 670.0000 1.0000
69.8100 647.0000 1.0000
69.8200 651.0000 1.0000
69.8300 658.0000 1.0000
69.8400 632.0000 1.0000
69.8500 647.0000 1.0000
69.8600 656.0000 1.0000
69.8700 640.0000 1.0000
69.8800 641.0000 1.0000
69.8900 611.0000 1.0000
69.9000 627.0000 1.0000
69.9100 626.0000 1.0000
69.9200 613.0000 1.0000
69.9300 653.0000 1.0000
69.9400 662.0000 1.0000
69.9500 626.0000 1.0000
69.9600 615.0000 1.0000
69.9700 609.0000 1.0000
69.9800 617.0000 1.0000
69.9900 692.0000 1.0000
70.0000 622.0000 1.0000
*RAS_INT_END
*RAS_TEMPERATURE_START
*RAS_TEMPERATURE_END
*RAS_DATA_END
