*RAS_DATA_START
*RAS_HEADER_START
*DISP_FMT_X "%.2f"
*DISP_FMT_Y "%.0f"
*DISP_FULLSCALE "15898.0000000000"
*DISP_LINE_COLOR "255.0000000000"
*DISP_LINE_STYLE "0.0000000000"
*DISP_LINE_WIDTH "0.2500000000"
*DISP_NOTE "測定データ-11"
*DISP_OFFSET_Y "0.0000000000"
*DISP_PEAKSEARCH_UNIT_Y "cps"
*DISP_RANGE_BOTTOM "0.0000000000"
*DISP_RANGE_LEFT "20.0000000000"
*DISP_RANGE_LOGCUTOFF "0.0100000000"
*DISP_RANGE_RIGHT "70.0000000000"
*DISP_RANGE_TOP "15898.0000000000"
*DISP_SCALE_MODE_Y "0.0000000000"
*DISP_TAB_NAME "2θ/θ"
*DISP_TITLE_Y "強度"
*DISP_UNIT_Y "cps"
*DISP_WINDOW_NAME "MSG_MACROENGINE"
*FILE_COMMENT " "
*FILE_MD5 ""
*FILE_MEMO " "
*FILE_OPERATOR "Administrator"
*FILE_SAMPLE " "
*FILE_TYPE "RAS_RAW"
*FILE_USERGROUP "システムマネージャ"
*FILE_VERSION "1.0000000000"
*HW_ATTACHMENT_ID "ATT0025"
*HW_ATTACHMENT_NAME "標準|Standard"
*HW_COUNTER_ID-0 "CUT0025"
*HW_COUNTER_ID-1 "CUT0020"
*HW_COUNTER_ID-2 "CUT0020"
*HW_COUNTER_ID-3 "CSL0021"
*HW_COUNTER_ID-4 "CMC0021"
*HW_COUNTER_NAME-0 "D/teX Ultra|D/teX Ultra"
*HW_COUNTER_NAME-1 "None|None"
*HW_COUNTER_NAME-2 "None|None"
*HW_COUNTER_NAME-3 "BBM|BBM"
*HW_COUNTER_NAME-4 "検出器モノクロメータ|Detector monochromator"
*HW_COUNTER_SELECT_NAME "D/teX Ultra|D/teX Ultra"
*HW_GONIOMETER_ID "GON0023"
*HW_GONIOMETER_NAME "SmartLab|SmartLab"
*HW_GONIOMETER_RADIUS-0 "90.0"
*HW_GONIOMETER_RADIUS-1 "114.0"
*HW_GONIOMETER_RADIUS-2 "190.0"
*HW_GONIOMETER_RADIUS-3 "300.0"
*HW_GONIOMETER_RADIUS-4 "187.0"
*HW_GONIOMETER_RADIUS-5 "300.0"
*HW_GONIOMETER_RADIUS-6 "113.0"
*HW_GONIOMETER_RADIUS-7 "331.0"
*HW_I_OPT_ID-0 "CBO0021"
*HW_I_OPT_ID-1 "ICR0023"
*HW_I_OPT_ID-2 "ISL0021"
*HW_I_OPT_ID-3 "ISO0021"
*HW_I_OPT_ID-4 "IAD0021"
*HW_I_OPT_ID-5 "IPR0001"
*HW_I_OPT_NAME-0 "CBOユニット|CBO unit"
*HW_I_OPT_NAME-1 "標準入射光学ユニット|Standard incident optical unit"
*HW_I_OPT_NAME-2 "標準入射スリットボックス|Standard incident slit box"
*HW_I_OPT_NAME-3 "入射平行スリット|Incident parallel slit"
*HW_I_OPT_NAME-4 "長手制限スリット|Length limiting slit"
*HW_I_OPT_NAME-5 "None|None"
*HW_R_ATTENUATER_AUTOMODE "0"
*HW_R_OPT_ID-0 "RSS0021"
*HW_R_OPT_ID-1 "RCR0023"
*HW_R_OPT_ID-2 "RSO0021"
*HW_R_OPT_ID-3 "RRS0021"
*HW_R_OPT_ID-4 "ATN0021"
*HW_R_OPT_ID-5 "RFL0021"
*HW_R_OPT_ID-6 "RAD0021"
*HW_R_OPT_NAME-0 "標準受光スリットボックス1|Standard receiving slit box # 1"
*HW_R_OPT_NAME-1 "標準受光光学ユニット1|Standard receiving unit # 1"
*HW_R_OPT_NAME-2 "標準受光光学ユニット2|Standard receiving optical unit # 2"
*HW_R_OPT_NAME-3 "標準受光スリットボックス2|Standard receiving slit box # 2"
*HW_R_OPT_NAME-4 "標準アッテネータ|Standard Attenuator"
*HW_R_OPT_NAME-5 "Cu Kβ|Cu K-beta"
*HW_R_OPT_NAME-6 "調整用受光スリット|Alignment receiving slit"
*HW_SAMPLE_HOLDER_ID "SMP0023"
*HW_SAMPLE_HOLDER_NAME "標準Zステージ|Standard Z stage"
*HW_XG_CURRENT_MAX "50"
*HW_XG_CURRENT_MIN "2"
*HW_XG_CURRENT_RESOLUTION "1"
*HW_XG_CURRENT_UNIT "mA"
*HW_XG_FOCUS "1mm x 10mm"
*HW_XG_FOCUS_TYPE "Normal"
*HW_XG_ID ""
*HW_XG_NAME "3kW 封入管(ID:1200)|3kW Sealed tube(ID:1200)"
*HW_XG_TARGET_ATOMIC_NUMBER "29.0000000000"
*HW_XG_TARGET_NAME "Cu"
*HW_XG_TYPE "Hermetic"
*HW_XG_VOLTAGE_MAX "60"
*HW_XG_VOLTAGE_MIN "20"
*HW_XG_VOLTAGE_RESOLUTION "1"
*HW_XG_VOLTAGE_UNIT "kV"
*HW_XG_WATT_MAX "1.500"
*HW_XG_WATT_UNIT "kW"
*HW_XG_WAVE_LENGTH_ALPHA1 "1.540593"
*HW_XG_WAVE_LENGTH_ALPHA2 "1.544414"
*HW_XG_WAVE_LENGTH_BETA "1.392250"
*MEAS_COND_AXIS_NAME-0 "2θ/θ"
*MEAS_COND_AXIS_NAME-1 "2θ"
*MEAS_COND_AXIS_NAME-2 "ω"
*MEAS_COND_AXIS_NAME-3 "Z"
*MEAS_COND_AXIS_NAME-4 "2θ/ω"
*MEAS_COND_AXIS_NAME-5 "θs"
*MEAS_COND_AXIS_NAME-6 "θd"
*MEAS_COND_AXIS_NAME-7 "Ts"
*MEAS_COND_AXIS_NAME-8 "CBO選択スリット"
*MEAS_COND_AXIS_NAME-9 "M"
*MEAS_COND_AXIS_NAME-10 "入射平行スリット"
*MEAS_COND_AXIS_NAME-11 "入射スリット"
*MEAS_COND_AXIS_NAME-12 ""
*MEAS_COND_AXIS_NAME-13 "Zs"
*MEAS_COND_AXIS_NAME-14 "入射光学素子"
*MEAS_COND_AXIS_NAME-15 "長手制限スリット"
*MEAS_COND_AXIS_NAME-16 "センタースリット"
*MEAS_COND_AXIS_NAME-17 "フィルター"
*MEAS_COND_AXIS_NAME-18 "受光スリット1"
*MEAS_COND_AXIS_NAME-19 "受光スリット2"
*MEAS_COND_AXIS_NAME-20 "受光光学素子"
*MEAS_COND_AXIS_NAME-21 "受光平行スリット"
*MEAS_COND_AXIS_NAME-22 "調整用受光スリット"
*MEAS_COND_AXIS_NAME-23 ""
*MEAS_COND_AXIS_NAME-24 ""
*MEAS_COND_AXIS_NAME-25 "Zd"
*MEAS_COND_AXIS_NAME-26 "アッテネータ"
*MEAS_COND_AXIS_NAME-27 "検出器モノクロメータ"
*MEAS_COND_AXIS_NAME-28 "モノクロメータスリット"
*MEAS_COND_AXIS_NAME-29 "プライマリビーム"
*MEAS_COND_AXIS_NAME-30 "PHA"
*MEAS_COND_AXIS_NAME_INTERNAL-0 "TwoThetaTheta"
*MEAS_COND_AXIS_NAME_INTERNAL-1 "TwoTheta"
*MEAS_COND_AXIS_NAME_INTERNAL-2 "Omega"
*MEAS_COND_AXIS_NAME_INTERNAL-3 "Z"
*MEAS_COND_AXIS_NAME_INTERNAL-4 "TwoThetaOmega"
*MEAS_COND_AXIS_NAME_INTERNAL-5 "ThetaS"
*MEAS_COND_AXIS_NAME_INTERNAL-6 "ThetaD"
*MEAS_COND_AXIS_NAME_INTERNAL-7 "Ts"
*MEAS_COND_AXIS_NAME_INTERNAL-8 "CBO"
*MEAS_COND_AXIS_NAME_INTERNAL-9 "CBO-M"
*MEAS_COND_AXIS_NAME_INTERNAL-10 "IncidentSollerSlit"
*MEAS_COND_AXIS_NAME_INTERNAL-11 "IncidentSlitBox"
*MEAS_COND_AXIS_NAME_INTERNAL-12 "IncidentSlitBox-_Axis"
*MEAS_COND_AXIS_NAME_INTERNAL-13 "Zs"
*MEAS_COND_AXIS_NAME_INTERNAL-14 "IncidentMonochromator"
*MEAS_COND_AXIS_NAME_INTERNAL-15 "IncidentAxdSlit"
*MEAS_COND_AXIS_NAME_INTERNAL-16 "CenterSlit"
*MEAS_COND_AXIS_NAME_INTERNAL-17 "Filter"
*MEAS_COND_AXIS_NAME_INTERNAL-18 "ReceivingSlitBox1"
*MEAS_COND_AXIS_NAME_INTERNAL-19 "ReceivingSlitBox2"
*MEAS_COND_AXIS_NAME_INTERNAL-20 "ReceivingOptics"
*MEAS_COND_AXIS_NAME_INTERNAL-21 "ReceivingSollerSlit"
*MEAS_COND_AXIS_NAME_INTERNAL-22 "ReceivingAxdSlit"
*MEAS_COND_AXIS_NAME_INTERNAL-23 "ReceivingSlitBox1-_Axis"
*MEAS_COND_AXIS_NAME_INTERNAL-24 "ReceivingSlitBox2-_Axis"
*MEAS_COND_AXIS_NAME_INTERNAL-25 "ReceivingSlitBox2-Zd"
*MEAS_COND_AXIS_NAME_INTERNAL-26 "Attenuator"
*MEAS_COND_AXIS_NAME_INTERNAL-27 "CounterMonochromator"
*MEAS_COND_AXIS_NAME_INTERNAL-28 "CounterSlit"
*MEAS_COND_AXIS_NAME_INTERNAL-29 "IncidentPrimary"
*MEAS_COND_AXIS_NAME_INTERNAL-30 "PHA"
*MEAS_COND_AXIS_NAME_MAGICNO-0 "83951616.0000000000"
*MEAS_COND_AXIS_NAME_MAGICNO-1 "268632064.0000000000"
*MEAS_COND_AXIS_NAME_MAGICNO-2 "268500992.0000000000"
*MEAS_COND_AXIS_NAME_MAGICNO-3 "285278208.0000000000"
*MEAS_COND_AXIS_NAME_MAGICNO-4 "83951616.0000000000"
*MEAS_COND_AXIS_NAME_MAGICNO-5 "131072.0000000000"
*MEAS_COND_AXIS_NAME_MAGICNO-6 "131072.0000000000"
*MEAS_COND_AXIS_NAME_MAGICNO-7 "318898176.0000000000"
*MEAS_COND_AXIS_NAME_MAGICNO-8 "20971521.0000000000"
*MEAS_COND_AXIS_NAME_MAGICNO-9 "285343744.0000000000"
*MEAS_COND_AXIS_NAME_MAGICNO-10 "20971521.0000000000"
*MEAS_COND_AXIS_NAME_MAGICNO-11 "22020097.0000000000"
*MEAS_COND_AXIS_NAME_MAGICNO-12 "25165824.0000000000"
*MEAS_COND_AXIS_NAME_MAGICNO-13 "318898176.0000000000"
*MEAS_COND_AXIS_NAME_MAGICNO-14 "1.0000000000"
*MEAS_COND_AXIS_NAME_MAGICNO-15 "20971521.0000000000"
*MEAS_COND_AXIS_NAME_MAGICNO-16 "20971521.0000000000"
*MEAS_COND_AXIS_NAME_MAGICNO-17 "20971521.0000000000"
*MEAS_COND_AXIS_NAME_MAGICNO-18 "23068673.0000000000"
*MEAS_COND_AXIS_NAME_MAGICNO-19 "23068673.0000000000"
*MEAS_COND_AXIS_NAME_MAGICNO-20 "20971521.0000000000"
*MEAS_COND_AXIS_NAME_MAGICNO-21 "20971521.0000000000"
*MEAS_COND_AXIS_NAME_MAGICNO-22 "20971521.0000000000"
*MEAS_COND_AXIS_NAME_MAGICNO-23 "25165824.0000000000"
*MEAS_COND_AXIS_NAME_MAGICNO-24 "25165824.0000000000"
*MEAS_COND_AXIS_NAME_MAGICNO-25 "285343744.0000000000"
*MEAS_COND_AXIS_NAME_MAGICNO-26 "17301505.0000000000"
*MEAS_COND_AXIS_NAME_MAGICNO-27 "20971521.0000000000"
*MEAS_COND_AXIS_NAME_MAGICNO-28 "20971521.0000000000"
*MEAS_COND_AXIS_NAME_MAGICNO-29 "20971521.0000000000"
*MEAS_COND_AXIS_NAME_MAGICNO-30 "0.0000000000"
*MEAS_COND_AXIS_OFFSET-0 "-"
*MEAS_COND_AXIS_OFFSET-1 "-0.1081000000"
*MEAS_COND_AXIS_OFFSET-2 "0.3758000000"
*MEAS_COND_AXIS_OFFSET-3 "-"
*MEAS_COND_AXIS_OFFSET-4 "-"
*MEAS_COND_AXIS_OFFSET-5 "0.3758000000"
*MEAS_COND_AXIS_OFFSET-6 "-0.4839000000"
*MEAS_COND_AXIS_OFFSET-7 "-"
*MEAS_COND_AXIS_OFFSET-8 "-"
*MEAS_COND_AXIS_OFFSET-9 "-"
*MEAS_COND_AXIS_OFFSET-10 "-"
*MEAS_COND_AXIS_OFFSET-11 "-"
*MEAS_COND_AXIS_OFFSET-12 "-"
*MEAS_COND_AXIS_OFFSET-13 "-"
*MEAS_COND_AXIS_OFFSET-14 "-"
*MEAS_COND_AXIS_OFFSET-15 "-"
*MEAS_COND_AXIS_OFFSET-16 "-"
*MEAS_COND_AXIS_OFFSET-17 "-"
*MEAS_COND_AXIS_OFFSET-18 "-"
*MEAS_COND_AXIS_OFFSET-19 "-"
*MEAS_COND_AXIS_OFFSET-20 "-"
*MEAS_COND_AXIS_OFFSET-21 "-"
*MEAS_COND_AXIS_OFFSET-22 "-"
*MEAS_COND_AXIS_OFFSET-23 "-"
*MEAS_COND_AXIS_OFFSET-24 "-"
*MEAS_COND_AXIS_OFFSET-25 "-"
*MEAS_COND_AXIS_OFFSET-26 "-"
*MEAS_COND_AXIS_OFFSET-27 "-"
*MEAS_COND_AXIS_OFFSET-28 "-"
*MEAS_COND_AXIS_OFFSET-29 "-"
*MEAS_COND_AXIS_OFFSET-30 "-"
*MEAS_COND_AXIS_POSITION-0 "0.0000000000"
*MEAS_COND_AXIS_POSITION-1 "0.0000000000"
*MEAS_COND_AXIS_POSITION-2 "0.0000000000"
*MEAS_COND_AXIS_POSITION-3 "-0.5500000000"
*MEAS_COND_AXIS_POSITION-4 "0.0000000000"
*MEAS_COND_AXIS_POSITION-5 "0.0000000000"
*MEAS_COND_AXIS_POSITION-6 "0.0000000000"
*MEAS_COND_AXIS_POSITION-7 "-0.4278800000"
*MEAS_COND_AXIS_POSITION-8 "BB"
*MEAS_COND_AXIS_POSITION-9 "0.0000000000"
*MEAS_COND_AXIS_POSITION-10 "Soller_slit_5.0deg"
*MEAS_COND_AXIS_POSITION-11 "2/3deg"
*MEAS_COND_AXIS_POSITION-12 "2.2088000000"
*MEAS_COND_AXIS_POSITION-13 "-0.4140600000"
*MEAS_COND_AXIS_POSITION-14 "0.0000000000"
*MEAS_COND_AXIS_POSITION-15 "10.0mm"
*MEAS_COND_AXIS_POSITION-16 "None"
*MEAS_COND_AXIS_POSITION-17 "Cu_K-beta"
*MEAS_COND_AXIS_POSITION-18 "13.000mm"
*MEAS_COND_AXIS_POSITION-19 "13.000mm"
*MEAS_COND_AXIS_POSITION-20 "No_unit"
*MEAS_COND_AXIS_POSITION-21 "Soller_slit_5.0deg"
*MEAS_COND_AXIS_POSITION-22 "None"
*MEAS_COND_AXIS_POSITION-23 "13.0000000000"
*MEAS_COND_AXIS_POSITION-24 "13.0000000000"
*MEAS_COND_AXIS_POSITION-25 "0.0109400000"
*MEAS_COND_AXIS_POSITION-26 "Open"
*MEAS_COND_AXIS_POSITION-27 "None"
*MEAS_COND_AXIS_POSITION-28 "None"
*MEAS_COND_AXIS_POSITION-29 "None"
*MEAS_COND_AXIS_POSITION-30 "38.0000000000"
*MEAS_COND_AXIS_UNIT-0 "deg"
*MEAS_COND_AXIS_UNIT-1 "deg"
*MEAS_COND_AXIS_UNIT-2 "deg"
*MEAS_COND_AXIS_UNIT-3 "mm"
*MEAS_COND_AXIS_UNIT-4 "deg"
*MEAS_COND_AXIS_UNIT-5 "deg"
*MEAS_COND_AXIS_UNIT-6 "deg"
*MEAS_COND_AXIS_UNIT-7 "mm"
*MEAS_COND_AXIS_UNIT-8 ""
*MEAS_COND_AXIS_UNIT-9 "pulse"
*MEAS_COND_AXIS_UNIT-10 ""
*MEAS_COND_AXIS_UNIT-11 ""
*MEAS_COND_AXIS_UNIT-12 "mm"
*MEAS_COND_AXIS_UNIT-13 "mm"
*MEAS_COND_AXIS_UNIT-14 ""
*MEAS_COND_AXIS_UNIT-15 ""
*MEAS_COND_AXIS_UNIT-16 ""
*MEAS_COND_AXIS_UNIT-17 ""
*MEAS_COND_AXIS_UNIT-18 ""
*MEAS_COND_AXIS_UNIT-19 ""
*MEAS_COND_AXIS_UNIT-20 ""
*MEAS_COND_AXIS_UNIT-21 ""
*MEAS_COND_AXIS_UNIT-22 ""
*MEAS_COND_AXIS_UNIT-23 "mm"
*MEAS_COND_AXIS_UNIT-24 "mm"
*MEAS_COND_AXIS_UNIT-25 "mm"
*MEAS_COND_AXIS_UNIT-26 ""
*MEAS_COND_AXIS_UNIT-27 ""
*MEAS_COND_AXIS_UNIT-28 ""
*MEAS_COND_AXIS_UNIT-29 ""
*MEAS_COND_AXIS_UNIT-30 "div"
*MEAS_COND_COUNTER_CNTLOSS_CORR "0.0000000000"
*MEAS_COND_COUNTER_PHABASE "38.0000000000"
*MEAS_COND_COUNTER_PHAWINDOW "16.0000000000"
*MEAS_COND_COUNTER_PHA_UNIT "div"
*MEAS_COND_COUNTER_TAUDIFF "30.0000000000"
*MEAS_COND_COUNTER_TAUINT "0.0000000000"
*MEAS_COND_IRRADIATION_MODE "OFF"
*MEAS_COND_IRRADIATION_WIDTH ""
*MEAS_COND_OPT_ATTR "集中法"
*MEAS_COND_OPT_NAME "@集中法"
*MEAS_COND_UNSYMMETRIC_MODE "OFF"
*MEAS_COND_XG_CURRENT "30.0000000000"
*MEAS_COND_XG_VOLTAGE "40.0000000000"
*MEAS_COND_XG_WAVE_TYPE "Ka"
*MEAS_DATA_COUNT "5001.0000000000"
*MEAS_SCAN_AXIS_X "2θ/θ"
*MEAS_SCAN_AXIS_X_INTERNAL "TwoThetaTheta"
*MEAS_SCAN_END_TIME "07/12/21 17:57:31"
*MEAS_SCAN_MODE "CONTINUOUS"
*MEAS_SCAN_MONITOR "0"
*MEAS_SCAN_RESOLUTION_X "0.0002"
*MEAS_SCAN_SPEED "1.0"
*MEAS_SCAN_SPEED_UNIT "deg/min"
*MEAS_SCAN_START "20.0000000000"
*MEAS_SCAN_START_TIME "07/12/21 17:04:38"
*MEAS_SCAN_STEP "0.0100000000"
*MEAS_SCAN_STOP "70.0000000000"
*MEAS_SCAN_UNIT_X "deg"
*MEAS_SCAN_UNIT_Y "counts"
*RAS_HEADER_END
*RAS_INT_START
20.0000 1753.0000 1.0000
20.0100 1695.0000 1.0000
20.0200 1652.0000 1.0000
20.0300 1713.0000 1.0000
20.0400 1689.0000 1.0000
20.0500 1736.0000 1.0000
20.0600 1672.0000 1.0000
20.0700 1702.0000 1.0000
20.0800 1671.0000 1.0000
20.0900 1716.0000 1.0000
20.1000 1682.0000 1.0000
20.1100 1706.0000 1.0000
20.1200 1732.0000 1.0000
20.1300 1699.0000 1.0000
20.1400 1739.0000 1.0000
20.1500 1685.0000 1.0000
20.1600 1741.0000 1.0000
20.1700 1721.0000 1.0000
20.1800 1632.0000 1.0000
20.1900 1672.0000 1.0000
20.2000 1639.0000 1.0000
20.2100 1670.0000 1.0000
20.2200 1679.0000 1.0000
20.2300 1752.0000 1.0000
20.2400 1724.0000 1.0000
20.2500 1667.0000 1.0000
20.2600 1743.0000 1.0000
20.2700 1810.0000 1.0000
20.2800 1709.0000 1.0000
20.2900 1665.0000 1.0000
20.3000 1694.0000 1.0000
20.3100 1768.0000 1.0000
20.3200 1689.0000 1.0000
20.3300 1682.0000 1.0000
20.3400 1729.0000 1.0000
20.3500 1687.0000 1.0000
20.3600 1665.0000 1.0000
20.3700 1727.0000 1.0000
20.3800 1742.0000 1.0000
20.3900 1714.0000 1.0000
20.4000 1748.0000 1.0000
20.4100 1694.0000 1.0000
20.4200 1681.0000 1.0000
20.4300 1695.0000 1.0000
20.4400 1697.0000 1.0000
20.4500 1669.0000 1.0000
20.4600 1700.0000 1.0000
20.4700 1742.0000 1.0000
20.4800 1735.0000 1.0000
20.4900 1738.0000 1.0000
20.5000 1764.0000 1.0000
20.5100 1699.0000 1.0000
20.5200 1686.0000 1.0000
20.5300 1674.0000 1.0000
20.5400 1704.0000 1.0000
20.5500 1671.0000 1.0000
20.5600 1689.0000 1.0000
20.5700 1705.0000 1.0000
20.5800 1678.0000 1.0000
20.5900 1708.0000 1.0000
20.6000 1703.0000 1.0000
20.6100 1730.0000 1.0000
20.6200 1715.0000 1.0000
20.6300 1729.0000 1.0000
20.6400 1743.0000 1.0000
20.6500 1706.0000 1.0000
20.6600 1699.0000 1.0000
20.6700 1676.0000 1.0000
20.6800 1716.0000 1.0000
20.6900 1655.0000 1.0000
20.7000 1729.0000 1.0000
20.7100 1735.0000 1.0000
20.7200 1703.0000 1.0000
20.7300 1677.0000 1.0000
20.7400 1653.0000 1.0000
20.7500 1708.0000 1.0000
20.7600 1720.0000 1.0000
20.7700 1736.0000 1.0000
20.7800 1622.0000 1.0000
20.7900 1634.0000 1.0000
20.8000 1676.0000 1.0000
20.8100 1711.0000 1.0000
20.8200 1731.0000 1.0000
20.8300 1739.0000 1.0000
20.8400 1636.0000 1.0000
20.8500 1734.0000 1.0000
20.8600 1708.0000 1.0000
20.8700 1667.0000 1.0000
20.8800 1697.0000 1.0000
20.8900 1747.0000 1.0000
20.9000 1660.0000 1.0000
20.9100 1688.0000 1.0000
20.9200 1713.0000 1.0000
20.9300 1827.0000 1.0000
20.9400 1709.0000 1.0000
20.9500 1761.0000 1.0000
20.9600 1712.0000 1.0000
20.9700 1677.0000 1.0000
20.9800 1685.0000 1.0000
20.9900 1713.0000 1.0000
21.0000 1727.0000 1.0000
21.0100 1718.0000 1.0000
21.0200 1755.0000 1.0000
21.0300 1693.0000 1.0000
21.0400 1718.0000 1.0000
21.0500 1753.0000 1.0000
21.0600 1708.0000 1.0000
21.0700 1672.0000 1.0000
21.0800 1723.0000 1.0000
21.0900 1763.0000 1.0000
21.1000 1700.0000 1.0000
21.1100 1688.0000 1.0000
21.1200 1682.0000 1.0000
21.1300 1756.0000 1.0000
21.1400 1720.0000 1.0000
21.1500 1675.0000 1.0000
21.1600 1709.0000 1.0000
21.1700 1661.0000 1.0000
21.1800 1670.0000 1.0000
21.1900 1665.0000 1.0000
21.2000 1704.0000 1.0000
21.2100 1713.0000 1.0000
21.2200 1692.0000 1.0000
21.2300 1684.0000 1.0000
21.2400 1694.0000 1.0000
21.2500 1734.0000 1.0000
21.2600 1752.0000 1.0000
21.2700 1741.0000 1.0000
21.2800 1717.0000 1.0000
21.2900 1711.0000 1.0000
21.3000 1707.0000 1.0000
21.3100 1723.0000 1.0000
21.3200 1806.0000 1.0000
21.3300 1739.0000 1.0000
21.3400 1665.0000 1.0000
21.3500 1724.0000 1.0000
21.3600 1698.0000 1.0000
21.3700 1742.0000 1.0000
21.3800 1813.0000 1.0000
21.3900 1789.0000 1.0000
21.4000 1699.0000 1.0000
21.4100 1680.0000 1.0000
21.4200 1778.0000 1.0000
21.4300 1683.0000 1.0000
21.4400 1736.0000 1.0000
21.4500 1699.0000 1.0000
21.4600 1715.0000 1.0000
21.4700 1725.0000 1.0000
21.4800 1704.0000 1.0000
21.4900 1722.0000 1.0000
21.5000 1790.0000 1.0000
21.5100 1738.0000 1.0000
21.5200 1783.0000 1.0000
21.5300 1821.0000 1.0000
21.5400 1791.0000 1.0000
21.5500 1724.0000 1.0000
21.5600 1702.0000 1.0000
21.5700 1758.0000 1.0000
21.5800 1692.0000 1.0000
21.5900 1722.0000 1.0000
21.6000 1758.0000 1.0000
21.6100 1710.0000 1.0000
21.6200 1719.0000 1.0000
21.6300 1732.0000 1.0000
21.6400 1745.0000 1.0000
21.6500 1779.0000 1.0000
21.6600 1680.0000 1.0000
21.6700 1767.0000 1.0000
21.6800 1683.0000 1.0000
21.6900 1797.0000 1.0000
21.7000 1844.0000 1.0000
21.7100 1691.0000 1.0000
21.7200 1704.0000 1.0000
21.7300 1754.0000 1.0000
21.7400 1715.0000 1.0000
21.7500 1684.0000 1.0000
21.7600 1726.0000 1.0000
21.7700 1711.0000 1.0000
21.7800 1739.0000 1.0000
21.7900 1707.0000 1.0000
21.8000 1804.0000 1.0000
21.8100 1745.0000 1.0000
21.8200 1706.0000 1.0000
21.8300 1695.0000 1.0000
21.8400 1736.0000 1.0000
21.8500 1712.0000 1.0000
21.8600 1743.0000 1.0000
21.8700 1747.0000 1.0000
21.8800 1740.0000 1.0000
21.8900 1722.0000 1.0000
21.9000 1696.0000 1.0000
21.9100 1655.0000 1.0000
21.9200 1758.0000 1.0000
21.9300 1725.0000 1.0000
21.9400 1766.0000 1.0000
21.9500 1722.0000 1.0000
21.9600 1708.0000 1.0000
21.9700 1725.0000 1.0000
21.9800 1784.0000 1.0000
21.9900 1727.0000 1.0000
22.0000 1709.0000 1.0000
22.0100 1756.0000 1.0000
22.0200 1765.0000 1.0000
22.0300 1779.0000 1.0000
22.0400 1767.0000 1.0000
22.0500 1760.0000 1.0000
22.0600 1794.0000 1.0000
22.0700 1733.0000 1.0000
22.0800 1719.0000 1.0000
22.0900 1735.0000 1.0000
22.1000 1776.0000 1.0000
22.1100 1704.0000 1.0000
22.1200 1786.0000 1.0000
22.1300 1733.0000 1.0000
22.1400 1809.0000 1.0000
22.1500 1761.0000 1.0000
22.1600 1700.0000 1.0000
22.1700 1763.0000 1.0000
22.1800 1748.0000 1.0000
22.1900 1687.0000 1.0000
22.2000 1643.0000 1.0000
22.2100 1681.0000 1.0000
22.2200 1782.0000 1.0000
22.2300 1728.0000 1.0000
22.2400 1763.0000 1.0000
22.2500 1730.0000 1.0000
22.2600 1661.0000 1.0000
22.2700 1698.0000 1.0000
22.2800 1832.0000 1.0000
22.2900 1654.0000 1.0000
22.3000 1754.0000 1.0000
22.3100 1734.0000 1.0000
22.3200 1704.0000 1.0000
22.3300 1743.0000 1.0000
22.3400 1765.0000 1.0000
22.3500 1745.0000 1.0000
22.3600 1812.0000 1.0000
22.3700 1751.0000 1.0000
22.3800 1720.0000 1.0000
22.3900 1698.0000 1.0000
22.4000 1702.0000 1.0000
22.4100 1708.0000 1.0000
22.4200 1722.0000 1.0000
22.4300 1717.0000 1.0000
22.4400 1753.0000 1.0000
22.4500 1769.0000 1.0000
22.4600 1765.0000 1.0000
22.4700 1697.0000 1.0000
22.4800 1814.0000 1.0000
22.4900 1735.0000 1.0000
22.5000 1833.0000 1.0000
22.5100 1785.0000 1.0000
22.5200 1753.0000 1.0000
22.5300 1741.0000 1.0000
22.5400 1728.0000 1.0000
22.5500 1766.0000 1.0000
22.5600 1730.0000 1.0000
22.5700 1723.0000 1.0000
22.5800 1776.0000 1.0000
22.5900 1721.0000 1.0000
22.6000 1725.0000 1.0000
22.6100 1783.0000 1.0000
22.6200 1774.0000 1.0000
22.6300 1740.0000 1.0000
22.6400 1733.0000 1.0000
22.6500 1783.0000 1.0000
22.6600 1723.0000 1.0000
22.6700 1691.0000 1.0000
22.6800 1748.0000 1.0000
22.6900 1742.0000 1.0000
22.7000 1725.0000 1.0000
22.7100 1792.0000 1.0000
22.7200 1780.0000 1.0000
22.7300 1738.0000 1.0000
22.7400 1711.0000 1.0000
22.7500 1750.0000 1.0000
22.7600 1772.0000 1.0000
22.7700 1769.0000 1.0000
22.7800 1762.0000 1.0000
22.7900 1765.0000 1.0000
22.8000 1687.0000 1.0000
22.8100 1724.0000 1.0000
22.8200 1757.0000 1.0000
22.8300 1812.0000 1.0000
22.8400 1742.0000 1.0000
22.8500 1692.0000 1.0000
22.8600 1829.0000 1.0000
22.8700 1763.0000 1.0000
22.8800 1802.0000 1.0000
22.8900 1762.0000 1.0000
22.9000 1790.0000 1.0000
22.9100 1710.0000 1.0000
22.9200 1741.0000 1.0000
22.9300 1698.0000 1.0000
22.9400 1712.0000 1.0000
22.9500 1803.0000 1.0000
22.9600 1726.0000 1.0000
22.9700 1733.0000 1.0000
22.9800 1683.0000 1.0000
22.9900 1690.0000 1.0000
23.0000 1748.0000 1.0000
23.0100 1721.0000 1.0000
23.0200 1721.0000 1.0000
23.0300 1775.0000 1.0000
23.0400 1821.0000 1.0000
23.0500 1769.0000 1.0000
23.0600 1703.0000 1.0000
23.0700 1747.0000 1.0000
23.0800 1787.0000 1.0000
23.0900 1756.0000 1.0000
23.1000 1801.0000 1.0000
23.1100 1747.0000 1.0000
23.1200 1777.0000 1.0000
23.1300 1762.0000 1.0000
23.1400 1795.0000 1.0000
23.1500 1803.0000 1.0000
23.1600 1780.0000 1.0000
23.1700 1769.0000 1.0000
23.1800 1796.0000 1.0000
23.1900 1663.0000 1.0000
23.2000 1763.0000 1.0000
23.2100 1798.0000 1.0000
23.2200 1757.0000 1.0000
23.2300 1754.0000 1.0000
23.2400 1742.0000 1.0000
23.2500 1779.0000 1.0000
23.2600 1780.0000 1.0000
23.2700 1806.0000 1.0000
23.2800 1729.0000 1.0000
23.2900 1751.0000 1.0000
23.3000 1833.0000 1.0000
23.3100 1766.0000 1.0000
23.3200 1782.0000 1.0000
23.3300 1756.0000 1.0000
23.3400 1733.0000 1.0000
23.3500 1760.0000 1.0000
23.3600 1752.0000 1.0000
23.3700 1756.0000 1.0000
23.3800 1792.0000 1.0000
23.3900 1827.0000 1.0000
23.4000 1782.0000 1.0000
23.4100 1777.0000 1.0000
23.4200 1761.0000 1.0000
23.4300 1723.0000 1.0000
23.4400 1745.0000 1.0000
23.4500 1820.0000 1.0000
23.4600 1780.0000 1.0000
23.4700 1791.0000 1.0000
23.4800 1732.0000 1.0000
23.4900 1801.0000 1.0000
23.5000 1710.0000 1.0000
23.5100 1723.0000 1.0000
23.5200 1765.0000 1.0000
23.5300 1787.0000 1.0000
23.5400 1772.0000 1.0000
23.5500 1799.0000 1.0000
23.5600 1790.0000 1.0000
23.5700 1682.0000 1.0000
23.5800 1772.0000 1.0000
23.5900 1838.0000 1.0000
23.6000 1846.0000 1.0000
23.6100 1792.0000 1.0000
23.6200 1761.0000 1.0000
23.6300 1722.0000 1.0000
23.6400 1814.0000 1.0000
23.6500 1767.0000 1.0000
23.6600 1797.0000 1.0000
23.6700 1755.0000 1.0000
23.6800 1751.0000 1.0000
23.6900 1892.0000 1.0000
23.7000 1743.0000 1.0000
23.7100 1794.0000 1.0000
23.7200 1837.0000 1.0000
23.7300 1725.0000 1.0000
23.7400 1788.0000 1.0000
23.7500 1839.0000 1.0000
23.7600 1800.0000 1.0000
23.7700 1725.0000 1.0000
23.7800 1737.0000 1.0000
23.7900 1756.0000 1.0000
23.8000 1732.0000 1.0000
23.8100 1786.0000 1.0000
23.8200 1784.0000 1.0000
23.8300 1786.0000 1.0000
23.8400 1803.0000 1.0000
23.8500 1817.0000 1.0000
23.8600 1732.0000 1.0000
23.8700 1736.0000 1.0000
23.8800 1815.0000 1.0000
23.8900 1811.0000 1.0000
23.9000 1777.0000 1.0000
23.9100 1842.0000 1.0000
23.9200 1757.0000 1.0000
23.9300 1810.0000 1.0000
23.9400 1804.0000 1.0000
23.9500 1760.0000 1.0000
23.9600 1793.0000 1.0000
23.9700 1812.0000 1.0000
23.9800 1783.0000 1.0000
23.9900 1752.0000 1.0000
24.0000 1793.0000 1.0000
24.0100 1811.0000 1.0000
24.0200 1783.0000 1.0000
24.0300 1850.0000 1.0000
24.0400 1781.0000 1.0000
24.0500 1814.0000 1.0000
24.0600 1780.0000 1.0000
24.0700 1839.0000 1.0000
24.0800 1757.0000 1.0000
24.0900 1796.0000 1.0000
24.1000 1778.0000 1.0000
24.1100 1781.0000 1.0000
24.1200 1808.0000 1.0000
24.1300 1794.0000 1.0000
24.1400 1820.0000 1.0000
24.1500 1850.0000 1.0000
24.1600 1880.0000 1.0000
24.1700 1826.0000 1.0000
24.1800 1799.0000 1.0000
24.1900 1744.0000 1.0000
24.2000 1719.0000 1.0000
24.2100 1800.0000 1.0000
24.2200 1774.0000 1.0000
24.2300 1756.0000 1.0000
24.2400 1728.0000 1.0000
24.2500 1760.0000 1.0000
24.2600 1849.0000 1.0000
24.2700 1779.0000 1.0000
24.2800 1825.0000 1.0000
24.2900 1849.0000 1.0000
24.3000 1817.0000 1.0000
24.3100 1769.0000 1.0000
24.3200 1824.0000 1.0000
24.3300 1755.0000 1.0000
24.3400 1854.0000 1.0000
24.3500 1773.0000 1.0000
24.3600 1815.0000 1.0000
24.3700 1821.0000 1.0000
24.3800 1843.0000 1.0000
24.3900 1846.0000 1.0000
24.4000 1824.0000 1.0000
24.4100 1759.0000 1.0000
24.4200 1780.0000 1.0000
24.4300 1813.0000 1.0000
24.4400 1803.0000 1.0000
24.4500 1860.0000 1.0000
24.4600 1860.0000 1.0000
24.4700 1808.0000 1.0000
24.4800 1815.0000 1.0000
24.4900 1788.0000 1.0000
24.5000 1814.0000 1.0000
24.5100 1831.0000 1.0000
24.5200 1847.0000 1.0000
24.5300 1816.0000 1.0000
24.5400 1864.0000 1.0000
24.5500 1811.0000 1.0000
24.5600 1820.0000 1.0000
24.5700 1817.0000 1.0000
24.5800 1840.0000 1.0000
24.5900 1804.0000 1.0000
24.6000 1801.0000 1.0000
24.6100 1830.0000 1.0000
24.6200 1853.0000 1.0000
24.6300 1847.0000 1.0000
24.6400 1772.0000 1.0000
24.6500 1854.0000 1.0000
24.6600 1838.0000 1.0000
24.6700 1770.0000 1.0000
24.6800 1794.0000 1.0000
24.6900 1861.0000 1.0000
24.7000 1879.0000 1.0000
24.7100 1885.0000 1.0000
24.7200 1881.0000 1.0000
24.7300 1885.0000 1.0000
24.7400 1871.0000 1.0000
24.7500 1829.0000 1.0000
24.7600 1877.0000 1.0000
24.7700 1866.0000 1.0000
24.7800 1875.0000 1.0000
24.7900 1863.0000 1.0000
24.8000 1907.0000 1.0000
24.8100 1839.0000 1.0000
24.8200 1882.0000 1.0000
24.8300 1773.0000 1.0000
24.8400 1817.0000 1.0000
24.8500 1906.0000 1.0000
24.8600 1870.0000 1.0000
24.8700 1769.0000 1.0000
24.8800 1862.0000 1.0000
24.8900 1860.0000 1.0000
24.9000 1809.0000 1.0000
24.9100 1839.0000 1.0000
24.9200 1886.0000 1.0000
24.9300 1831.0000 1.0000
24.9400 1851.0000 1.0000
24.9500 1838.0000 1.0000
24.9600 1824.0000 1.0000
24.9700 1886.0000 1.0000
24.9800 1900.0000 1.0000
24.9900 1827.0000 1.0000
25.0000 1865.0000 1.0000
25.0100 1859.0000 1.0000
25.0200 1851.0000 1.0000
25.0300 1865.0000 1.0000
25.0400 1890.0000 1.0000
25.0500 1806.0000 1.0000
25.0600 1811.0000 1.0000
25.0700 1866.0000 1.0000
25.0800 1830.0000 1.0000
25.0900 1864.0000 1.0000
25.1000 1808.0000 1.0000
25.1100 1880.0000 1.0000
25.1200 1916.0000 1.0000
25.1300 1883.0000 1.0000
25.1400 1863.0000 1.0000
25.1500 1915.0000 1.0000
25.1600 1910.0000 1.0000
25.1700 1900.0000 1.0000
25.1800 1852.0000 1.0000
25.1900 1854.0000 1.0000
25.2000 1892.0000 1.0000
25.2100 1861.0000 1.0000
25.2200 1813.0000 1.0000
25.2300 1874.0000 1.0000
25.2400 1804.0000 1.0000
25.2500 1914.0000 1.0000
25.2600 1823.0000 1.0000
25.2700 1819.0000 1.0000
25.2800 1815.0000 1.0000
25.2900 1846.0000 1.0000
25.3000 1779.0000 1.0000
25.3100 1781.0000 1.0000
25.3200 1829.0000 1.0000
25.3300 1852.0000 1.0000
25.3400 1809.0000 1.0000
25.3500 1829.0000 1.0000
25.3600 1914.0000 1.0000
25.3700 1865.0000 1.0000
25.3800 1864.0000 1.0000
25.3900 1832.0000 1.0000
25.4000 1797.0000 1.0000
25.4100 1807.0000 1.0000
25.4200 1867.0000 1.0000
25.4300 1852.0000 1.0000
25.4400 1861.0000 1.0000
25.4500 1799.0000 1.0000
25.4600 1879.0000 1.0000
25.4700 1848.0000 1.0000
25.4800 1791.0000 1.0000
25.4900 1803.0000 1.0000
25.5000 1852.0000 1.0000
25.5100 1843.0000 1.0000
25.5200 1800.0000 1.0000
25.5300 1813.0000 1.0000
25.5400 1877.0000 1.0000
25.5500 1825.0000 1.0000
25.5600 1835.0000 1.0000
25.5700 1902.0000 1.0000
25.5800 1861.0000 1.0000
25.5900 1840.0000 1.0000
25.6000 1830.0000 1.0000
25.6100 1846.0000 1.0000
25.6200 1823.0000 1.0000
25.6300 1806.0000 1.0000
25.6400 1874.0000 1.0000
25.6500 1898.0000 1.0000
25.6600 1827.0000 1.0000
25.6700 1844.0000 1.0000
25.6800 1858.0000 1.0000
25.6900 1781.0000 1.0000
25.7000 1843.0000 1.0000
25.7100 1816.0000 1.0000
25.7200 1823.0000 1.0000
25.7300 1858.0000 1.0000
25.7400 1881.0000 1.0000
25.7500 1946.0000 1.0000
25.7600 1832.0000 1.0000
25.7700 1853.0000 1.0000
25.7800 1824.0000 1.0000
25.7900 1866.0000 1.0000
25.8000 1848.0000 1.0000
25.8100 1721.0000 1.0000
25.8200 1811.0000 1.0000
25.8300 1840.0000 1.0000
25.8400 1908.0000 1.0000
25.8500 1820.0000 1.0000
25.8600 1903.0000 1.0000
25.8700 1771.0000 1.0000
25.8800 1793.0000 1.0000
25.8900 1797.0000 1.0000
25.9000 1789.0000 1.0000
25.9100 1844.0000 1.0000
25.9200 1858.0000 1.0000
25.9300 1817.0000 1.0000
25.9400 1831.0000 1.0000
25.9500 1886.0000 1.0000
25.9600 1811.0000 1.0000
25.9700 1896.0000 1.0000
25.9800 1848.0000 1.0000
25.9900 1795.0000 1.0000
26.0000 1799.0000 1.0000
26.0100 1825.0000 1.0000
26.0200 1867.0000 1.0000
26.0300 1810.0000 1.0000
26.0400 1798.0000 1.0000
26.0500 1845.0000 1.0000
26.0600 1839.0000 1.0000
26.0700 1825.0000 1.0000
26.0800 1897.0000 1.0000
26.0900 1827.0000 1.0000
26.1000 1821.0000 1.0000
26.1100 1880.0000 1.0000
26.1200 1839.0000 1.0000
26.1300 1858.0000 1.0000
26.1400 1855.0000 1.0000
26.1500 1887.0000 1.0000
26.1600 1819.0000 1.0000
26.1700 1797.0000 1.0000
26.1800 1833.0000 1.0000
26.1900 1812.0000 1.0000
26.2000 1909.0000 1.0000
26.2100 1851.0000 1.0000
26.2200 1807.0000 1.0000
26.2300 1800.0000 1.0000
26.2400 1905.0000 1.0000
26.2500 1931.0000 1.0000
26.2600 1926.0000 1.0000
26.2700 1979.0000 1.0000
26.2800 1901.0000 1.0000
26.2900 1973.0000 1.0000
26.3000 1919.0000 1.0000
26.3100 1922.0000 1.0000
26.3200 1897.0000 1.0000
26.3300 1917.0000 1.0000
26.3400 1874.0000 1.0000
26.3500 1852.0000 1.0000
26.3600 1829.0000 1.0000
26.3700 1898.0000 1.0000
26.3800 1879.0000 1.0000
26.3900 1904.0000 1.0000
26.4000 1895.0000 1.0000
26.4100 1873.0000 1.0000
26.4200 1840.0000 1.0000
26.4300 1890.0000 1.0000
26.4400 1872.0000 1.0000
26.4500 1951.0000 1.0000
26.4600 1955.0000 1.0000
26.4700 1916.0000 1.0000
26.4800 1821.0000 1.0000
26.4900 1884.0000 1.0000
26.5000 1935.0000 1.0000
26.5100 1946.0000 1.0000
26.5200 1919.0000 1.0000
26.5300 1978.0000 1.0000
26.5400 1873.0000 1.0000
26.5500 1958.0000 1.0000
26.5600 1967.0000 1.0000
26.5700 1995.0000 1.0000
26.5800 1951.0000 1.0000
26.5900 1926.0000 1.0000
26.6000 1968.0000 1.0000
26.6100 1907.0000 1.0000
26.6200 1900.0000 1.0000
26.6300 1973.0000 1.0000
26.6400 1999.0000 1.0000
26.6500 2028.0000 1.0000
26.6600 1976.0000 1.0000
26.6700 2046.0000 1.0000
26.6800 1998.0000 1.0000
26.6900 1934.0000 1.0000
26.7000 1940.0000 1.0000
26.7100 1974.0000 1.0000
26.7200 1962.0000 1.0000
26.7300 2070.0000 1.0000
26.7400 2070.0000 1.0000
26.7500 2022.0000 1.0000
26.7600 1960.0000 1.0000
26.7700 2031.0000 1.0000
26.7800 2006.0000 1.0000
26.7900 2081.0000 1.0000
26.8000 2055.0000 1.0000
26.8100 2041.0000 1.0000
26.8200 2048.0000 1.0000
26.8300 2117.0000 1.0000
26.8400 2122.0000 1.0000
26.8500 2208.0000 1.0000
26.8600 2148.0000 1.0000
26.8700 2116.0000 1.0000
26.8800 2112.0000 1.0000
26.8900 2192.0000 1.0000
26.9000 2232.0000 1.0000
26.9100 2271.0000 1.0000
26.9200 2251.0000 1.0000
26.9300 2345.0000 1.0000
26.9400 2344.0000 1.0000
26.9500 2379.0000 1.0000
26.9600 2396.0000 1.0000
26.9700 2404.0000 1.0000
26.9800 2494.0000 1.0000
26.9900 2551.0000 1.0000
27.0000 2708.0000 1.0000
27.0100 2669.0000 1.0000
27.0200 2704.0000 1.0000
27.0300 2798.0000 1.0000
27.0400 2897.0000 1.0000
27.0500 2902.0000 1.0000
27.0600 3018.0000 1.0000
27.0700 3093.0000 1.0000
27.0800 3129.0000 1.0000
27.0900 3271.0000 1.0000
27.1000 3367.0000 1.0000
27.1100 3414.0000 1.0000
27.1200 3666.0000 1.0000
27.1300 3916.0000 1.0000
27.1400 4095.0000 1.0000
27.1500 4278.0000 1.0000
27.1600 4444.0000 1.0000
27.1700 4746.0000 1.0000
27.1800 5023.0000 1.0000
27.1900 5251.0000 1.0000
27.2000 5590.0000 1.0000
27.2100 5901.0000 1.0000
27.2200 6088.0000 1.0000
27.2300 6353.0000 1.0000
27.2400 6498.0000 1.0000
27.2500 6709.0000 1.0000
27.2600 6734.0000 1.0000
27.2700 6831.0000 1.0000
27.2800 6976.0000 1.0000
27.2900 6997.0000 1.0000
27.3000 6897.0000 1.0000
27.3100 6682.0000 1.0000
27.3200 6499.0000 1.0000
27.3300 6264.0000 1.0000
27.3400 6133.0000 1.0000
27.3500 5784.0000 1.0000
27.3600 5467.0000 1.0000
27.3700 5297.0000 1.0000
27.3800 5016.0000 1.0000
27.3900 4814.0000 1.0000
27.4000 4409.0000 1.0000
27.4100 4221.0000 1.0000
27.4200 4082.0000 1.0000
27.4300 3876.0000 1.0000
27.4400 3751.0000 1.0000
27.4500 3491.0000 1.0000
27.4600 3322.0000 1.0000
27.4700 3317.0000 1.0000
27.4800 3107.0000 1.0000
27.4900 3077.0000 1.0000
27.5000 3053.0000 1.0000
27.5100 2924.0000 1.0000
27.5200 2799.0000 1.0000
27.5300 2732.0000 1.0000
27.5400 2660.0000 1.0000
27.5500 2610.0000 1.0000
27.5600 2581.0000 1.0000
27.5700 2492.0000 1.0000
27.5800 2500.0000 1.0000
27.5900 2381.0000 1.0000
27.6000 2429.0000 1.0000
27.6100 2277.0000 1.0000
27.6200 2263.0000 1.0000
27.6300 2283.0000 1.0000
27.6400 2185.0000 1.0000
27.6500 2241.0000 1.0000
27.6600 2252.0000 1.0000
27.6700 2217.0000 1.0000
27.6800 2126.0000 1.0000
27.6900 2089.0000 1.0000
27.7000 2110.0000 1.0000
27.7100 2086.0000 1.0000
27.7200 2112.0000 1.0000
27.7300 2095.0000 1.0000
27.7400 2101.0000 1.0000
27.7500 2078.0000 1.0000
27.7600 2035.0000 1.0000
27.7700 2000.0000 1.0000
27.7800 2008.0000 1.0000
27.7900 1988.0000 1.0000
27.8000 2031.0000 1.0000
27.8100 1967.0000 1.0000
27.8200 2043.0000 1.0000
27.8300 1929.0000 1.0000
27.8400 1913.0000 1.0000
27.8500 1920.0000 1.0000
27.8600 2001.0000 1.0000
27.8700 1892.0000 1.0000
27.8800 1859.0000 1.0000
27.8900 1907.0000 1.0000
27.9000 1947.0000 1.0000
27.9100 1867.0000 1.0000
27.9200 1955.0000 1.0000
27.9300 1946.0000 1.0000
27.9400 1932.0000 1.0000
27.9500 1944.0000 1.0000
27.9600 1930.0000 1.0000
27.9700 1910.0000 1.0000
27.9800 1839.0000 1.0000
27.9900 1936.0000 1.0000
28.0000 1910.0000 1.0000
28.0100 1879.0000 1.0000
28.0200 1890.0000 1.0000
28.0300 1857.0000 1.0000
28.0400 1822.0000 1.0000
28.0500 1839.0000 1.0000
28.0600 1942.0000 1.0000
28.0700 1849.0000 1.0000
28.0800 1812.0000 1.0000
28.0900 1870.0000 1.0000
28.1000 1797.0000 1.0000
28.1100 1926.0000 1.0000
28.1200 1866.0000 1.0000
28.1300 1860.0000 1.0000
28.1400 1814.0000 1.0000
28.1500 1835.0000 1.0000
28.1600 1899.0000 1.0000
28.1700 1841.0000 1.0000
28.1800 1747.0000 1.0000
28.1900 1838.0000 1.0000
28.2000 1809.0000 1.0000
28.2100 1799.0000 1.0000
28.2200 1775.0000 1.0000
28.2300 1815.0000 1.0000
28.2400 1789.0000 1.0000
28.2500 1808.0000 1.0000
28.2600 1764.0000 1.0000
28.2700 1810.0000 1.0000
28.2800 1832.0000 1.0000
28.2900 1759.0000 1.0000
28.3000 1819.0000 1.0000
28.3100 1789.0000 1.0000
28.3200 1816.0000 1.0000
28.3300 1830.0000 1.0000
28.3400 1773.0000 1.0000
28.3500 1767.0000 1.0000
28.3600 1840.0000 1.0000
28.3700 1778.0000 1.0000
28.3800 1754.0000 1.0000
28.3900 1798.0000 1.0000
28.4000 1778.0000 1.0000
28.4100 1791.0000 1.0000
28.4200 1769.0000 1.0000
28.4300 1807.0000 1.0000
28.4400 1783.0000 1.0000
28.4500 1754.0000 1.0000
28.4600 1762.0000 1.0000
28.4700 1774.0000 1.0000
28.4800 1748.0000 1.0000
28.4900 1775.0000 1.0000
28.5000 1768.0000 1.0000
28.5100 1706.0000 1.0000
28.5200 1759.0000 1.0000
28.5300 1765.0000 1.0000
28.5400 1695.0000 1.0000
28.5500 1797.0000 1.0000
28.5600 1709.0000 1.0000
28.5700 1688.0000 1.0000
28.5800 1778.0000 1.0000
28.5900 1721.0000 1.0000
28.6000 1767.0000 1.0000
28.6100 1743.0000 1.0000
28.6200 1753.0000 1.0000
28.6300 1782.0000 1.0000
28.6400 1788.0000 1.0000
28.6500 1743.0000 1.0000
28.6600 1740.0000 1.0000
28.6700 1737.0000 1.0000
28.6800 1745.0000 1.0000
28.6900 1741.0000 1.0000
28.7000 1775.0000 1.0000
28.7100 1730.0000 1.0000
28.7200 1772.0000 1.0000
28.7300 1716.0000 1.0000
28.7400 1699.0000 1.0000
28.7500 1752.0000 1.0000
28.7600 1804.0000 1.0000
28.7700 1716.0000 1.0000
28.7800 1732.0000 1.0000
28.7900 1733.0000 1.0000
28.8000 1770.0000 1.0000
28.8100 1708.0000 1.0000
28.8200 1777.0000 1.0000
28.8300 1764.0000 1.0000
28.8400 1733.0000 1.0000
28.8500 1764.0000 1.0000
28.8600 1687.0000 1.0000
28.8700 1694.0000 1.0000
28.8800 1718.0000 1.0000
28.8900 1741.0000 1.0000
28.9000 1721.0000 1.0000
28.9100 1738.0000 1.0000
28.9200 1705.0000 1.0000
28.9300 1705.0000 1.0000
28.9400 1734.0000 1.0000
28.9500 1723.0000 1.0000
28.9600 1688.0000 1.0000
28.9700 1692.0000 1.0000
28.9800 1736.0000 1.0000
28.9900 1734.0000 1.0000
29.0000 1690.0000 1.0000
29.0100 1735.0000 1.0000
29.0200 1649.0000 1.0000
29.0300 1748.0000 1.0000
29.0400 1721.0000 1.0000
29.0500 1737.0000 1.0000
29.0600 1719.0000 1.0000
29.0700 1685.0000 1.0000
29.0800 1739.0000 1.0000
29.0900 1750.0000 1.0000
29.1000 1741.0000 1.0000
29.1100 1650.0000 1.0000
29.1200 1727.0000 1.0000
29.1300 1691.0000 1.0000
29.1400 1674.0000 1.0000
29.1500 1709.0000 1.0000
29.1600 1708.0000 1.0000
29.1700 1704.0000 1.0000
29.1800 1712.0000 1.0000
29.1900 1714.0000 1.0000
29.2000 1712.0000 1.0000
29.2100 1717.0000 1.0000
29.2200 1749.0000 1.0000
29.2300 1681.0000 1.0000
29.2400 1656.0000 1.0000
29.2500 1670.0000 1.0000
29.2600 1689.0000 1.0000
29.2700 1704.0000 1.0000
29.2800 1704.0000 1.0000
29.2900 1714.0000 1.0000
29.3000 1733.0000 1.0000
29.3100 1729.0000 1.0000
29.3200 1587.0000 1.0000
29.3300 1644.0000 1.0000
29.3400 1702.0000 1.0000
29.3500 1693.0000 1.0000
29.3600 1662.0000 1.0000
29.3700 1665.0000 1.0000
29.3800 1698.0000 1.0000
29.3900 1735.0000 1.0000
29.4000 1712.0000 1.0000
29.4100 1653.0000 1.0000
29.4200 1690.0000 1.0000
29.4300 1654.0000 1.0000
29.4400 1648.0000 1.0000
29.4500 1647.0000 1.0000
29.4600 1636.0000 1.0000
29.4700 1659.0000 1.0000
29.4800 1645.0000 1.0000
29.4900 1648.0000 1.0000
29.5000 1656.0000 1.0000
29.5100 1672.0000 1.0000
29.5200 1667.0000 1.0000
29.5300 1628.0000 1.0000
29.5400 1676.0000 1.0000
29.5500 1618.0000 1.0000
29.5600 1659.0000 1.0000
29.5700 1634.0000 1.0000
29.5800 1639.0000 1.0000
29.5900 1628.0000 1.0000
29.6000 1708.0000 1.0000
29.6100 1669.0000 1.0000
29.6200 1651.0000 1.0000
29.6300 1654.0000 1.0000
29.6400 1688.0000 1.0000
29.6500 1648.0000 1.0000
29.6600 1703.0000 1.0000
29.6700 1677.0000 1.0000
29.6800 1652.0000 1.0000
29.6900 1675.0000 1.0000
29.7000 1688.0000 1.0000
29.7100 1675.0000 1.0000
29.7200 1703.0000 1.0000
29.7300 1664.0000 1.0000
29.7400 1678.0000 1.0000
29.7500 1659.0000 1.0000
29.7600 1635.0000 1.0000
29.7700 1671.0000 1.0000
29.7800 1628.0000 1.0000
29.7900 1595.0000 1.0000
29.8000 1645.0000 1.0000
29.8100 1666.0000 1.0000
29.8200 1620.0000 1.0000
29.8300 1589.0000 1.0000
29.8400 1663.0000 1.0000
29.8500 1634.0000 1.0000
29.8600 1624.0000 1.0000
29.8700 1676.0000 1.0000
29.8800 1685.0000 1.0000
29.8900 1601.0000 1.0000
29.9000 1625.0000 1.0000
29.9100 1649.0000 1.0000
29.9200 1627.0000 1.0000
29.9300 1654.0000 1.0000
29.9400 1639.0000 1.0000
29.9500 1589.0000 1.0000
29.9600 1654.0000 1.0000
29.9700 1621.0000 1.0000
29.9800 1664.0000 1.0000
29.9900 1612.0000 1.0000
30.0000 1658.0000 1.0000
30.0100 1632.0000 1.0000
30.0200 1605.0000 1.0000
30.0300 1645.0000 1.0000
30.0400 1607.0000 1.0000
30.0500 1586.0000 1.0000
30.0600 1658.0000 1.0000
30.0700 1595.0000 1.0000
30.0800 1672.0000 1.0000
30.0900 1664.0000 1.0000
30.1000 1651.0000 1.0000
30.1100 1635.0000 1.0000
30.1200 1612.0000 1.0000
30.1300 1619.0000 1.0000
30.1400 1578.0000 1.0000
30.1500 1611.0000 1.0000
30.1600 1642.0000 1.0000
30.1700 1554.0000 1.0000
30.1800 1662.0000 1.0000
30.1900 1599.0000 1.0000
30.2000 1616.0000 1.0000
30.2100 1642.0000 1.0000
30.2200 1666.0000 1.0000
30.2300 1634.0000 1.0000
30.2400 1656.0000 1.0000
30.2500 1626.0000 1.0000
30.2600 1621.0000 1.0000
30.2700 1613.0000 1.0000
30.2800 1610.0000 1.0000
30.2900 1685.0000 1.0000
30.3000 1553.0000 1.0000
30.3100 1633.0000 1.0000
30.3200 1563.0000 1.0000
30.3300 1590.0000 1.0000
30.3400 1662.0000 1.0000
30.3500 1572.0000 1.0000
30.3600 1668.0000 1.0000
30.3700 1592.0000 1.0000
30.3800 1601.0000 1.0000
30.3900 1560.0000 1.0000
30.4000 1551.0000 1.0000
30.4100 1622.0000 1.0000
30.4200 1571.0000 1.0000
30.4300 1598.0000 1.0000
30.4400 1589.0000 1.0000
30.4500 1626.0000 1.0000
30.4600 1572.0000 1.0000
30.4700 1588.0000 1.0000
30.4800 1646.0000 1.0000
30.4900 1621.0000 1.0000
30.5000 1598.0000 1.0000
30.5100 1542.0000 1.0000
30.5200 1631.0000 1.0000
30.5300 1580.0000 1.0000
30.5400 1599.0000 1.0000
30.5500 1527.0000 1.0000
30.5600 1612.0000 1.0000
30.5700 1665.0000 1.0000
30.5800 1623.0000 1.0000
30.5900 1648.0000 1.0000
30.6000 1638.0000 1.0000
30.6100 1667.0000 1.0000
30.6200 1616.0000 1.0000
30.6300 1581.0000 1.0000
30.6400 1567.0000 1.0000
30.6500 1588.0000 1.0000
30.6600 1614.0000 1.0000
30.6700 1652.0000 1.0000
30.6800 1650.0000 1.0000
30.6900 1620.0000 1.0000
30.7000 1658.0000 1.0000
30.7100 1624.0000 1.0000
30.7200 1631.0000 1.0000
30.7300 1603.0000 1.0000
30.7400 1593.0000 1.0000
30.7500 1534.0000 1.0000
30.7600 1622.0000 1.0000
30.7700 1614.0000 1.0000
30.7800 1610.0000 1.0000
30.7900 1585.0000 1.0000
30.8000 1507.0000 1.0000
30.8100 1581.0000 1.0000
30.8200 1622.0000 1.0000
30.8300 1518.0000 1.0000
30.8400 1568.0000 1.0000
30.8500 1579.0000 1.0000
30.8600 1567.0000 1.0000
30.8700 1550.0000 1.0000
30.8800 1559.0000 1.0000
30.8900 1539.0000 1.0000
30.9000 1549.0000 1.0000
30.9100 1543.0000 1.0000
30.9200 1568.0000 1.0000
30.9300 1640.0000 1.0000
30.9400 1668.0000 1.0000
30.9500 1606.0000 1.0000
30.9600 1564.0000 1.0000
30.9700 1590.0000 1.0000
30.9800 1593.0000 1.0000
30.9900 1554.0000 1.0000
31.0000 1549.0000 1.0000
31.0100 1540.0000 1.0000
31.0200 1506.0000 1.0000
31.0300 1634.0000 1.0000
31.0400 1581.0000 1.0000
31.0500 1602.0000 1.0000
31.0600 1571.0000 1.0000
31.0700 1619.0000 1.0000
31.0800 1538.0000 1.0000
31.0900 1552.0000 1.0000
31.1000 1560.0000 1.0000
31.1100 1540.0000 1.0000
31.1200 1633.0000 1.0000
31.1300 1592.0000 1.0000
31.1400 1532.0000 1.0000
31.1500 1589.0000 1.0000
31.1600 1581.0000 1.0000
31.1700 1560.0000 1.0000
31.1800 1541.0000 1.0000
31.1900 1576.0000 1.0000
31.2000 1560.0000 1.0000
31.2100 1570.0000 1.0000
31.2200 1589.0000 1.0000
31.2300 1558.0000 1.0000
31.2400 1587.0000 1.0000
31.2500 1576.0000 1.0000
31.2600 1622.0000 1.0000
31.2700 1588.0000 1.0000
31.2800 1554.0000 1.0000
31.2900 1537.0000 1.0000
31.3000 1542.0000 1.0000
31.3100 1566.0000 1.0000
31.3200 1571.0000 1.0000
31.3300 1494.0000 1.0000
31.3400 1548.0000 1.0000
31.3500 1472.0000 1.0000
31.3600 1614.0000 1.0000
31.3700 1574.0000 1.0000
31.3800 1515.0000 1.0000
31.3900 1512.0000 1.0000
31.4000 1506.0000 1.0000
31.4100 1493.0000 1.0000
31.4200 1515.0000 1.0000
31.4300 1556.0000 1.0000
31.4400 1524.0000 1.0000
31.4500 1543.0000 1.0000
31.4600 1494.0000 1.0000
31.4700 1579.0000 1.0000
31.4800 1571.0000 1.0000
31.4900 1494.0000 1.0000
31.5000 1512.0000 1.0000
31.5100 1537.0000 1.0000
31.5200 1495.0000 1.0000
31.5300 1506.0000 1.0000
31.5400 1508.0000 1.0000
31.5500 1554.0000 1.0000
31.5600 1582.0000 1.0000
31.5700 1600.0000 1.0000
31.5800 1580.0000 1.0000
31.5900 1536.0000 1.0000
31.6000 1569.0000 1.0000
31.6100 1524.0000 1.0000
31.6200 1491.0000 1.0000
31.6300 1511.0000 1.0000
31.6400 1575.0000 1.0000
31.6500 1550.0000 1.0000
31.6600 1485.0000 1.0000
31.6700 1552.0000 1.0000
31.6800 1578.0000 1.0000
31.6900 1548.0000 1.0000
31.7000 1511.0000 1.0000
31.7100 1528.0000 1.0000
31.7200 1526.0000 1.0000
31.7300 1531.0000 1.0000
31.7400 1514.0000 1.0000
31.7500 1519.0000 1.0000
31.7600 1586.0000 1.0000
31.7700 1489.0000 1.0000
31.7800 1478.0000 1.0000
31.7900 1563.0000 1.0000
31.8000 1542.0000 1.0000
31.8100 1527.0000 1.0000
31.8200 1520.0000 1.0000
31.8300 1505.0000 1.0000
31.8400 1583.0000 1.0000
31.8500 1529.0000 1.0000
31.8600 1499.0000 1.0000
31.8700 1604.0000 1.0000
31.8800 1542.0000 1.0000
31.8900 1582.0000 1.0000
31.9000 1547.0000 1.0000
31.9100 1573.0000 1.0000
31.9200 1603.0000 1.0000
31.9300 1663.0000 1.0000
31.9400 1651.0000 1.0000
31.9500 1602.0000 1.0000
31.9600 1594.0000 1.0000
31.9700 1582.0000 1.0000
31.9800 1556.0000 1.0000
31.9900 1536.0000 1.0000
32.0000 1531.0000 1.0000
32.0100 1578.0000 1.0000
32.0200 1506.0000 1.0000
32.0300 1567.0000 1.0000
32.0400 1523.0000 1.0000
32.0500 1546.0000 1.0000
32.0600 1502.0000 1.0000
32.0700 1582.0000 1.0000
32.0800 1515.0000 1.0000
32.0900 1563.0000 1.0000
32.1000 1600.0000 1.0000
32.1100 1483.0000 1.0000
32.1200 1487.0000 1.0000
32.1300 1531.0000 1.0000
32.1400 1531.0000 1.0000
32.1500 1504.0000 1.0000
32.1600 1468.0000 1.0000
32.1700 1509.0000 1.0000
32.1800 1515.0000 1.0000
32.1900 1519.0000 1.0000
32.2000 1528.0000 1.0000
32.2100 1485.0000 1.0000
32.2200 1595.0000 1.0000
32.2300 1563.0000 1.0000
32.2400 1540.0000 1.0000
32.2500 1501.0000 1.0000
32.2600 1562.0000 1.0000
32.2700 1533.0000 1.0000
32.2800 1531.0000 1.0000
32.2900 1532.0000 1.0000
32.3000 1539.0000 1.0000
32.3100 1522.0000 1.0000
32.3200 1460.0000 1.0000
32.3300 1597.0000 1.0000
32.3400 1493.0000 1.0000
32.3500 1506.0000 1.0000
32.3600 1574.0000 1.0000
32.3700 1617.0000 1.0000
32.3800 1542.0000 1.0000
32.3900 1482.0000 1.0000
32.4000 1557.0000 1.0000
32.4100 1534.0000 1.0000
32.4200 1555.0000 1.0000
32.4300 1545.0000 1.0000
32.4400 1523.0000 1.0000
32.4500 1518.0000 1.0000
32.4600 1496.0000 1.0000
32.4700 1533.0000 1.0000
32.4800 1523.0000 1.0000
32.4900 1536.0000 1.0000
32.5000 1545.0000 1.0000
32.5100 1524.0000 1.0000
32.5200 1496.0000 1.0000
32.5300 1449.0000 1.0000
32.5400 1446.0000 1.0000
32.5500 1469.0000 1.0000
32.5600 1466.0000 1.0000
32.5700 1436.0000 1.0000
32.5800 1419.0000 1.0000
32.5900 1468.0000 1.0000
32.6000 1477.0000 1.0000
32.6100 1494.0000 1.0000
32.6200 1468.0000 1.0000
32.6300 1449.0000 1.0000
32.6400 1503.0000 1.0000
32.6500 1504.0000 1.0000
32.6600 1514.0000 1.0000
32.6700 1522.0000 1.0000
32.6800 1522.0000 1.0000
32.6900 1498.0000 1.0000
32.7000 1462.0000 1.0000
32.7100 1556.0000 1.0000
32.7200 1502.0000 1.0000
32.7300 1458.0000 1.0000
32.7400 1433.0000 1.0000
32.7500 1492.0000 1.0000
32.7600 1497.0000 1.0000
32.7700 1504.0000 1.0000
32.7800 1469.0000 1.0000
32.7900 1455.0000 1.0000
32.8000 1484.0000 1.0000
32.8100 1496.0000 1.0000
32.8200 1485.0000 1.0000
32.8300 1488.0000 1.0000
32.8400 1507.0000 1.0000
32.8500 1491.0000 1.0000
32.8600 1467.0000 1.0000
32.8700 1439.0000 1.0000
32.8800 1396.0000 1.0000
32.8900 1443.0000 1.0000
32.9000 1538.0000 1.0000
32.9100 1459.0000 1.0000
32.9200 1459.0000 1.0000
32.9300 1460.0000 1.0000
32.9400 1419.0000 1.0000
32.9500 1445.0000 1.0000
32.9600 1444.0000 1.0000
32.9700 1467.0000 1.0000
32.9800 1395.0000 1.0000
32.9900 1475.0000 1.0000
33.0000 1503.0000 1.0000
33.0100 1392.0000 1.0000
33.0200 1428.0000 1.0000
33.0300 1463.0000 1.0000
33.0400 1457.0000 1.0000
33.0500 1467.0000 1.0000
33.0600 1472.0000 1.0000
33.0700 1504.0000 1.0000
33.0800 1471.0000 1.0000
33.0900 1519.0000 1.0000
33.1000 1452.0000 1.0000
33.1100 1391.0000 1.0000
33.1200 1470.0000 1.0000
33.1300 1444.0000 1.0000
33.1400 1436.0000 1.0000
33.1500 1412.0000 1.0000
33.1600 1453.0000 1.0000
33.1700 1485.0000 1.0000
33.1800 1429.0000 1.0000
33.1900 1496.0000 1.0000
33.2000 1492.0000 1.0000
33.2100 1479.0000 1.0000
33.2200 1464.0000 1.0000
33.2300 1469.0000 1.0000
33.2400 1468.0000 1.0000
33.2500 1516.0000 1.0000
33.2600 1415.0000 1.0000
33.2700 1382.0000 1.0000
33.2800 1404.0000 1.0000
33.2900 1403.0000 1.0000
33.3000 1439.0000 1.0000
33.3100 1484.0000 1.0000
33.3200 1427.0000 1.0000
33.3300 1410.0000 1.0000
33.3400 1509.0000 1.0000
33.3500 1456.0000 1.0000
33.3600 1475.0000 1.0000
33.3700 1434.0000 1.0000
33.3800 1433.0000 1.0000
33.3900 1458.0000 1.0000
33.4000 1474.0000 1.0000
33.4100 1473.0000 1.0000
33.4200 1470.0000 1.0000
33.4300 1462.0000 1.0000
33.4400 1520.0000 1.0000
33.4500 1494.0000 1.0000
33.4600 1450.0000 1.0000
33.4700 1462.0000 1.0000
33.4800 1422.0000 1.0000
33.4900 1421.0000 1.0000
33.5000 1431.0000 1.0000
33.5100 1441.0000 1.0000
33.5200 1452.0000 1.0000
33.5300 1396.0000 1.0000
33.5400 1452.0000 1.0000
33.5500 1474.0000 1.0000
33.5600 1497.0000 1.0000
33.5700 1505.0000 1.0000
33.5800 1451.0000 1.0000
33.5900 1485.0000 1.0000
33.6000 1421.0000 1.0000
33.6100 1451.0000 1.0000
33.6200 1445.0000 1.0000
33.6300 1473.0000 1.0000
33.6400 1494.0000 1.0000
33.6500 1445.0000 1.0000
33.6600 1475.0000 1.0000
33.6700 1510.0000 1.0000
33.6800 1545.0000 1.0000
33.6900 1466.0000 1.0000
33.7000 1459.0000 1.0000
33.7100 1570.0000 1.0000
33.7200 1498.0000 1.0000
33.7300 1568.0000 1.0000
33.7400 1508.0000 1.0000
33.7500 1525.0000 1.0000
33.7600 1510.0000 1.0000
33.7700 1594.0000 1.0000
33.7800 1588.0000 1.0000
33.7900 1480.0000 1.0000
33.8000 1496.0000 1.0000
33.8100 1575.0000 1.0000
33.8200 1592.0000 1.0000
33.8300 1605.0000 1.0000
33.8400 1587.0000 1.0000
33.8500 1594.0000 1.0000
33.8600 1572.0000 1.0000
33.8700 1587.0000 1.0000
33.8800 1570.0000 1.0000
33.8900 1569.0000 1.0000
33.9000 1575.0000 1.0000
33.9100 1608.0000 1.0000
33.9200 1614.0000 1.0000
33.9300 1594.0000 1.0000
33.9400 1609.0000 1.0000
33.9500 1579.0000 1.0000
33.9600 1653.0000 1.0000
33.9700 1579.0000 1.0000
33.9800 1618.0000 1.0000
33.9900 1586.0000 1.0000
34.0000 1600.0000 1.0000
34.0100 1522.0000 1.0000
34.0200 1606.0000 1.0000
34.0300 1574.0000 1.0000
34.0400 1677.0000 1.0000
34.0500 1663.0000 1.0000
34.0600 1636.0000 1.0000
34.0700 1570.0000 1.0000
34.0800 1692.0000 1.0000
34.0900 1660.0000 1.0000
34.1000 1614.0000 1.0000
34.1100 1551.0000 1.0000
34.1200 1596.0000 1.0000
34.1300 1633.0000 1.0000
34.1400 1653.0000 1.0000
34.1500 1650.0000 1.0000
34.1600 1688.0000 1.0000
34.1700 1689.0000 1.0000
34.1800 1801.0000 1.0000
34.1900 1743.0000 1.0000
34.2000 1748.0000 1.0000
34.2100 1743.0000 1.0000
34.2200 1822.0000 1.0000
34.2300 1802.0000 1.0000
34.2400 1767.0000 1.0000
34.2500 1822.0000 1.0000
34.2600 1865.0000 1.0000
34.2700 1916.0000 1.0000
34.2800 1877.0000 1.0000
34.2900 1928.0000 1.0000
34.3000 1998.0000 1.0000
34.3100 1998.0000 1.0000
34.3200 2088.0000 1.0000
34.3300 2062.0000 1.0000
34.3400 2275.0000 1.0000
34.3500 2229.0000 1.0000
34.3600 2417.0000 1.0000
34.3700 2467.0000 1.0000
34.3800 2632.0000 1.0000
34.3900 2683.0000 1.0000
34.4000 2774.0000 1.0000
34.4100 2825.0000 1.0000
34.4200 2973.0000 1.0000
34.4300 2976.0000 1.0000
34.4400 2962.0000 1.0000
34.4500 3148.0000 1.0000
34.4600 3108.0000 1.0000
34.4700 3058.0000 1.0000
34.4800 3039.0000 1.0000
34.4900 3018.0000 1.0000
34.5000 3062.0000 1.0000
34.5100 2903.0000 1.0000
34.5200 2971.0000 1.0000
34.5300 2802.0000 1.0000
34.5400 2894.0000 1.0000
34.5500 2790.0000 1.0000
34.5600 2662.0000 1.0000
34.5700 2592.0000 1.0000
34.5800 2463.0000 1.0000
34.5900 2351.0000 1.0000
34.6000 2429.0000 1.0000
34.6100 2306.0000 1.0000
34.6200 2171.0000 1.0000
34.6300 2180.0000 1.0000
34.6400 2108.0000 1.0000
34.6500 2035.0000 1.0000
34.6600 2011.0000 1.0000
34.6700 1949.0000 1.0000
34.6800 1948.0000 1.0000
34.6900 1895.0000 1.0000
34.7000 1877.0000 1.0000
34.7100 1834.0000 1.0000
34.7200 1815.0000 1.0000
34.7300 1830.0000 1.0000
34.7400 1771.0000 1.0000
34.7500 1758.0000 1.0000
34.7600 1739.0000 1.0000
34.7700 1709.0000 1.0000
34.7800 1649.0000 1.0000
34.7900 1630.0000 1.0000
34.8000 1626.0000 1.0000
34.8100 1640.0000 1.0000
34.8200 1589.0000 1.0000
34.8300 1514.0000 1.0000
34.8400 1595.0000 1.0000
34.8500 1580.0000 1.0000
34.8600 1489.0000 1.0000
34.8700 1612.0000 1.0000
34.8800 1469.0000 1.0000
34.8900 1522.0000 1.0000
34.9000 1479.0000 1.0000
34.9100 1405.0000 1.0000
34.9200 1457.0000 1.0000
34.9300 1434.0000 1.0000
34.9400 1446.0000 1.0000
34.9500 1432.0000 1.0000
34.9600 1457.0000 1.0000
34.9700 1435.0000 1.0000
34.9800 1424.0000 1.0000
34.9900 1451.0000 1.0000
35.0000 1451.0000 1.0000
35.0100 1386.0000 1.0000
35.0200 1413.0000 1.0000
35.0300 1351.0000 1.0000
35.0400 1370.0000 1.0000
35.0500 1408.0000 1.0000
35.0600 1396.0000 1.0000
35.0700 1387.0000 1.0000
35.0800 1387.0000 1.0000
35.0900 1399.0000 1.0000
35.1000 1394.0000 1.0000
35.1100 1386.0000 1.0000
35.1200 1458.0000 1.0000
35.1300 1349.0000 1.0000
35.1400 1376.0000 1.0000
35.1500 1435.0000 1.0000
35.1600 1357.0000 1.0000
35.1700 1387.0000 1.0000
35.1800 1340.0000 1.0000
35.1900 1303.0000 1.0000
35.2000 1329.0000 1.0000
35.2100 1299.0000 1.0000
35.2200 1360.0000 1.0000
35.2300 1346.0000 1.0000
35.2400 1278.0000 1.0000
35.2500 1320.0000 1.0000
35.2600 1301.0000 1.0000
35.2700 1391.0000 1.0000
35.2800 1323.0000 1.0000
35.2900 1327.0000 1.0000
35.3000 1305.0000 1.0000
35.3100 1349.0000 1.0000
35.3200 1360.0000 1.0000
35.3300 1346.0000 1.0000
35.3400 1371.0000 1.0000
35.3500 1266.0000 1.0000
35.3600 1338.0000 1.0000
35.3700 1332.0000 1.0000
35.3800 1291.0000 1.0000
35.3900 1343.0000 1.0000
35.4000 1253.0000 1.0000
35.4100 1349.0000 1.0000
35.4200 1280.0000 1.0000
35.4300 1297.0000 1.0000
35.4400 1282.0000 1.0000
35.4500 1327.0000 1.0000
35.4600 1262.0000 1.0000
35.4700 1265.0000 1.0000
35.4800 1310.0000 1.0000
35.4900 1328.0000 1.0000
35.5000 1263.0000 1.0000
35.5100 1292.0000 1.0000
35.5200 1337.0000 1.0000
35.5300 1269.0000 1.0000
35.5400 1315.0000 1.0000
35.5500 1312.0000 1.0000
35.5600 1248.0000 1.0000
35.5700 1288.0000 1.0000
35.5800 1293.0000 1.0000
35.5900 1345.0000 1.0000
35.6000 1326.0000 1.0000
35.6100 1321.0000 1.0000
35.6200 1268.0000 1.0000
35.6300 1341.0000 1.0000
35.6400 1293.0000 1.0000
35.6500 1329.0000 1.0000
35.6600 1271.0000 1.0000
35.6700 1284.0000 1.0000
35.6800 1305.0000 1.0000
35.6900 1297.0000 1.0000
35.7000 1298.0000 1.0000
35.7100 1333.0000 1.0000
35.7200 1289.0000 1.0000
35.7300 1336.0000 1.0000
35.7400 1286.0000 1.0000
35.7500 1219.0000 1.0000
35.7600 1277.0000 1.0000
35.7700 1300.0000 1.0000
35.7800 1248.0000 1.0000
35.7900 1307.0000 1.0000
35.8000 1358.0000 1.0000
35.8100 1300.0000 1.0000
35.8200 1269.0000 1.0000
35.8300 1325.0000 1.0000
35.8400 1261.0000 1.0000
35.8500 1319.0000 1.0000
35.8600 1338.0000 1.0000
35.8700 1283.0000 1.0000
35.8800 1336.0000 1.0000
35.8900 1297.0000 1.0000
35.9000 1328.0000 1.0000
35.9100 1289.0000 1.0000
35.9200 1319.0000 1.0000
35.9300 1306.0000 1.0000
35.9400 1332.0000 1.0000
35.9500 1362.0000 1.0000
35.9600 1326.0000 1.0000
35.9700 1326.0000 1.0000
35.9800 1397.0000 1.0000
35.9900 1344.0000 1.0000
36.0000 1321.0000 1.0000
36.0100 1343.0000 1.0000
36.0200 1368.0000 1.0000
36.0300 1337.0000 1.0000
36.0400 1331.0000 1.0000
36.0500 1364.0000 1.0000
36.0600 1374.0000 1.0000
36.0700 1383.0000 1.0000
36.0800 1383.0000 1.0000
36.0900 1388.0000 1.0000
36.1000 1377.0000 1.0000
36.1100 1417.0000 1.0000
36.1200 1482.0000 1.0000
36.1300 1499.0000 1.0000
36.1400 1541.0000 1.0000
36.1500 1507.0000 1.0000
36.1600 1492.0000 1.0000
36.1700 1545.0000 1.0000
36.1800 1468.0000 1.0000
36.1900 1567.0000 1.0000
36.2000 1600.0000 1.0000
36.2100 1618.0000 1.0000
36.2200 1689.0000 1.0000
36.2300 1726.0000 1.0000
36.2400 1814.0000 1.0000
36.2500 1864.0000 1.0000
36.2600 1848.0000 1.0000
36.2700 1886.0000 1.0000
36.2800 1887.0000 1.0000
36.2900 1991.0000 1.0000
36.3000 2028.0000 1.0000
36.3100 2002.0000 1.0000
36.3200 2060.0000 1.0000
36.3300 2069.0000 1.0000
36.3400 2064.0000 1.0000
36.3500 2132.0000 1.0000
36.3600 2069.0000 1.0000
36.3700 2137.0000 1.0000
36.3800 2237.0000 1.0000
36.3900 2190.0000 1.0000
36.4000 2126.0000 1.0000
36.4100 2157.0000 1.0000
36.4200 2125.0000 1.0000
36.4300 2088.0000 1.0000
36.4400 2126.0000 1.0000
36.4500 2091.0000 1.0000
36.4600 2081.0000 1.0000
36.4700 2023.0000 1.0000
36.4800 2002.0000 1.0000
36.4900 2024.0000 1.0000
36.5000 1941.0000 1.0000
36.5100 1912.0000 1.0000
36.5200 1807.0000 1.0000
36.5300 1794.0000 1.0000
36.5400 1707.0000 1.0000
36.5500 1684.0000 1.0000
36.5600 1575.0000 1.0000
36.5700 1596.0000 1.0000
36.5800 1629.0000 1.0000
36.5900 1588.0000 1.0000
36.6000 1555.0000 1.0000
36.6100 1458.0000 1.0000
36.6200 1523.0000 1.0000
36.6300 1491.0000 1.0000
36.6400 1533.0000 1.0000
36.6500 1457.0000 1.0000
36.6600 1418.0000 1.0000
36.6700 1354.0000 1.0000
36.6800 1373.0000 1.0000
36.6900 1389.0000 1.0000
36.7000 1337.0000 1.0000
36.7100 1323.0000 1.0000
36.7200 1297.0000 1.0000
36.7300 1341.0000 1.0000
36.7400 1323.0000 1.0000
36.7500 1274.0000 1.0000
36.7600 1298.0000 1.0000
36.7700 1266.0000 1.0000
36.7800 1289.0000 1.0000
36.7900 1337.0000 1.0000
36.8000 1285.0000 1.0000
36.8100 1276.0000 1.0000
36.8200 1210.0000 1.0000
36.8300 1209.0000 1.0000
36.8400 1255.0000 1.0000
36.8500 1234.0000 1.0000
36.8600 1256.0000 1.0000
36.8700 1232.0000 1.0000
36.8800 1232.0000 1.0000
36.8900 1257.0000 1.0000
36.9000 1255.0000 1.0000
36.9100 1202.0000 1.0000
36.9200 1199.0000 1.0000
36.9300 1171.0000 1.0000
36.9400 1184.0000 1.0000
36.9500 1203.0000 1.0000
36.9600 1137.0000 1.0000
36.9700 1243.0000 1.0000
36.9800 1189.0000 1.0000
36.9900 1154.0000 1.0000
37.0000 1167.0000 1.0000
37.0100 1212.0000 1.0000
37.0200 1153.0000 1.0000
37.0300 1188.0000 1.0000
37.0400 1161.0000 1.0000
37.0500 1187.0000 1.0000
37.0600 1150.0000 1.0000
37.0700 1150.0000 1.0000
37.0800 1209.0000 1.0000
37.0900 1143.0000 1.0000
37.1000 1199.0000 1.0000
37.1100 1216.0000 1.0000
37.1200 1169.0000 1.0000
37.1300 1162.0000 1.0000
37.1400 1196.0000 1.0000
37.1500 1144.0000 1.0000
37.1600 1252.0000 1.0000
37.1700 1188.0000 1.0000
37.1800 1186.0000 1.0000
37.1900 1167.0000 1.0000
37.2000 1193.0000 1.0000
37.2100 1173.0000 1.0000
37.2200 1171.0000 1.0000
37.2300 1195.0000 1.0000
37.2400 1209.0000 1.0000
37.2500 1287.0000 1.0000
37.2600 1225.0000 1.0000
37.2700 1278.0000 1.0000
37.2800 1162.0000 1.0000
37.2900 1164.0000 1.0000
37.3000 1226.0000 1.0000
37.3100 1180.0000 1.0000
37.3200 1149.0000 1.0000
37.3300 1171.0000 1.0000
37.3400 1163.0000 1.0000
37.3500 1195.0000 1.0000
37.3600 1188.0000 1.0000
37.3700 1155.0000 1.0000
37.3800 1202.0000 1.0000
37.3900 1217.0000 1.0000
37.4000 1188.0000 1.0000
37.4100 1178.0000 1.0000
37.4200 1134.0000 1.0000
37.4300 1156.0000 1.0000
37.4400 1122.0000 1.0000
37.4500 1182.0000 1.0000
37.4600 1170.0000 1.0000
37.4700 1178.0000 1.0000
37.4800 1190.0000 1.0000
37.4900 1190.0000 1.0000
37.5000 1159.0000 1.0000
37.5100 1205.0000 1.0000
37.5200 1180.0000 1.0000
37.5300 1197.0000 1.0000
37.5400 1213.0000 1.0000
37.5500 1204.0000 1.0000
37.5600 1120.0000 1.0000
37.5700 1145.0000 1.0000
37.5800 1174.0000 1.0000
37.5900 1203.0000 1.0000
37.6000 1231.0000 1.0000
37.6100 1207.0000 1.0000
37.6200 1228.0000 1.0000
37.6300 1153.0000 1.0000
37.6400 1160.0000 1.0000
37.6500 1226.0000 1.0000
37.6600 1244.0000 1.0000
37.6700 1181.0000 1.0000
37.6800 1199.0000 1.0000
37.6900 1172.0000 1.0000
37.7000 1189.0000 1.0000
37.7100 1161.0000 1.0000
37.7200 1174.0000 1.0000
37.7300 1176.0000 1.0000
37.7400 1199.0000 1.0000
37.7500 1180.0000 1.0000
37.7600 1221.0000 1.0000
37.7700 1198.0000 1.0000
37.7800 1227.0000 1.0000
37.7900 1208.0000 1.0000
37.8000 1169.0000 1.0000
37.8100 1230.0000 1.0000
37.8200 1229.0000 1.0000
37.8300 1231.0000 1.0000
37.8400 1205.0000 1.0000
37.8500 1227.0000 1.0000
37.8600 1203.0000 1.0000
37.8700 1216.0000 1.0000
37.8800 1175.0000 1.0000
37.8900 1217.0000 1.0000
37.9000 1239.0000 1.0000
37.9100 1149.0000 1.0000
37.9200 1253.0000 1.0000
37.9300 1245.0000 1.0000
37.9400 1233.0000 1.0000
37.9500 1245.0000 1.0000
37.9600 1324.0000 1.0000
37.9700 1233.0000 1.0000
37.9800 1250.0000 1.0000
37.9900 1269.0000 1.0000
38.0000 1338.0000 1.0000
38.0100 1330.0000 1.0000
38.0200 1270.0000 1.0000
38.0300 1362.0000 1.0000
38.0400 1357.0000 1.0000
38.0500 1346.0000 1.0000
38.0600 1370.0000 1.0000
38.0700 1373.0000 1.0000
38.0800 1415.0000 1.0000
38.0900 1396.0000 1.0000
38.1000 1480.0000 1.0000
38.1100 1472.0000 1.0000
38.1200 1446.0000 1.0000
38.1300 1465.0000 1.0000
38.1400 1516.0000 1.0000
38.1500 1500.0000 1.0000
38.1600 1623.0000 1.0000
38.1700 1630.0000 1.0000
38.1800 1715.0000 1.0000
38.1900 1663.0000 1.0000
38.2000 1789.0000 1.0000
38.2100 1800.0000 1.0000
38.2200 1867.0000 1.0000
38.2300 1920.0000 1.0000
38.2400 1951.0000 1.0000
38.2500 2110.0000 1.0000
38.2600 2156.0000 1.0000
38.2700 2245.0000 1.0000
38.2800 2343.0000 1.0000
38.2900 2368.0000 1.0000
38.3000 2530.0000 1.0000
38.3100 2678.0000 1.0000
38.3200 2854.0000 1.0000
38.3300 3003.0000 1.0000
38.3400 3120.0000 1.0000
38.3500 3456.0000 1.0000
38.3600 3640.0000 1.0000
38.3700 3896.0000 1.0000
38.3800 4114.0000 1.0000
38.3900 4428.0000 1.0000
38.4000 4876.0000 1.0000
38.4100 5084.0000 1.0000
38.4200 5476.0000 1.0000
38.4300 5988.0000 1.0000
38.4400 6297.0000 1.0000
38.4500 6640.0000 1.0000
38.4600 7049.0000 1.0000
38.4700 7257.0000 1.0000
38.4800 7612.0000 1.0000
38.4900 7693.0000 1.0000
38.5000 7949.0000 1.0000
38.5100 7892.0000 1.0000
38.5200 7796.0000 1.0000
38.5300 7880.0000 1.0000
38.5400 7762.0000 1.0000
38.5500 7634.0000 1.0000
38.5600 7332.0000 1.0000
38.5700 7252.0000 1.0000
38.5800 6962.0000 1.0000
38.5900 6719.0000 1.0000
38.6000 6361.0000 1.0000
38.6100 6069.0000 1.0000
38.6200 5677.0000 1.0000
38.6300 5358.0000 1.0000
38.6400 4947.0000 1.0000
38.6500 4673.0000 1.0000
38.6600 4410.0000 1.0000
38.6700 4195.0000 1.0000
38.6800 3946.0000 1.0000
38.6900 3739.0000 1.0000
38.7000 3379.0000 1.0000
38.7100 3225.0000 1.0000
38.7200 3031.0000 1.0000
38.7300 2854.0000 1.0000
38.7400 2709.0000 1.0000
38.7500 2538.0000 1.0000
38.7600 2413.0000 1.0000
38.7700 2269.0000 1.0000
38.7800 2239.0000 1.0000
38.7900 2040.0000 1.0000
38.8000 1975.0000 1.0000
38.8100 1908.0000 1.0000
38.8200 1894.0000 1.0000
38.8300 1790.0000 1.0000
38.8400 1704.0000 1.0000
38.8500 1702.0000 1.0000
38.8600 1640.0000 1.0000
38.8700 1556.0000 1.0000
38.8800 1510.0000 1.0000
38.8900 1462.0000 1.0000
38.9000 1452.0000 1.0000
38.9100 1426.0000 1.0000
38.9200 1397.0000 1.0000
38.9300 1390.0000 1.0000
38.9400 1411.0000 1.0000
38.9500 1339.0000 1.0000
38.9600 1303.0000 1.0000
38.9700 1271.0000 1.0000
38.9800 1284.0000 1.0000
38.9900 1238.0000 1.0000
39.0000 1294.0000 1.0000
39.0100 1248.0000 1.0000
39.0200 1255.0000 1.0000
39.0300 1201.0000 1.0000
39.0400 1206.0000 1.0000
39.0500 1233.0000 1.0000
39.0600 1206.0000 1.0000
39.0700 1151.0000 1.0000
39.0800 1202.0000 1.0000
39.0900 1189.0000 1.0000
39.1000 1191.0000 1.0000
39.1100 1140.0000 1.0000
39.1200 1115.0000 1.0000
39.1300 1149.0000 1.0000
39.1400 1197.0000 1.0000
39.1500 1148.0000 1.0000
39.1600 1111.0000 1.0000
39.1700 1108.0000 1.0000
39.1800 1180.0000 1.0000
39.1900 1102.0000 1.0000
39.2000 1124.0000 1.0000
39.2100 1118.0000 1.0000
39.2200 1089.0000 1.0000
39.2300 1118.0000 1.0000
39.2400 1144.0000 1.0000
39.2500 1164.0000 1.0000
39.2600 1100.0000 1.0000
39.2700 1128.0000 1.0000
39.2800 1085.0000 1.0000
39.2900 1062.0000 1.0000
39.3000 1080.0000 1.0000
39.3100 1087.0000 1.0000
39.3200 1071.0000 1.0000
39.3300 1039.0000 1.0000
39.3400 1071.0000 1.0000
39.3500 1077.0000 1.0000
39.3600 1057.0000 1.0000
39.3700 1097.0000 1.0000
39.3800 1082.0000 1.0000
39.3900 1066.0000 1.0000
39.4000 1083.0000 1.0000
39.4100 1129.0000 1.0000
39.4200 1127.0000 1.0000
39.4300 1101.0000 1.0000
39.4400 1107.0000 1.0000
39.4500 1094.0000 1.0000
39.4600 1088.0000 1.0000
39.4700 1111.0000 1.0000
39.4800 1102.0000 1.0000
39.4900 1105.0000 1.0000
39.5000 1099.0000 1.0000
39.5100 1163.0000 1.0000
39.5200 1142.0000 1.0000
39.5300 1163.0000 1.0000
39.5400 1135.0000 1.0000
39.5500 1116.0000 1.0000
39.5600 1063.0000 1.0000
39.5700 1088.0000 1.0000
39.5800 1115.0000 1.0000
39.5900 1080.0000 1.0000
39.6000 1074.0000 1.0000
39.6100 1081.0000 1.0000
39.6200 1050.0000 1.0000
39.6300 1100.0000 1.0000
39.6400 1101.0000 1.0000
39.6500 1091.0000 1.0000
39.6600 1092.0000 1.0000
39.6700 1053.0000 1.0000
39.6800 1095.0000 1.0000
39.6900 1101.0000 1.0000
39.7000 1132.0000 1.0000
39.7100 1107.0000 1.0000
39.7200 1108.0000 1.0000
39.7300 1051.0000 1.0000
39.7400 1110.0000 1.0000
39.7500 1031.0000 1.0000
39.7600 1066.0000 1.0000
39.7700 1040.0000 1.0000
39.7800 1070.0000 1.0000
39.7900 1050.0000 1.0000
39.8000 1056.0000 1.0000
39.8100 1054.0000 1.0000
39.8200 954.0000 1.0000
39.8300 1032.0000 1.0000
39.8400 1032.0000 1.0000
39.8500 1051.0000 1.0000
39.8600 1084.0000 1.0000
39.8700 1082.0000 1.0000
39.8800 1033.0000 1.0000
39.8900 985.0000 1.0000
39.9000 1009.0000 1.0000
39.9100 1025.0000 1.0000
39.9200 1104.0000 1.0000
39.9300 1056.0000 1.0000
39.9400 1039.0000 1.0000
39.9500 1048.0000 1.0000
39.9600 1045.0000 1.0000
39.9700 1044.0000 1.0000
39.9800 1032.0000 1.0000
39.9900 1025.0000 1.0000
40.0000 1080.0000 1.0000
40.0100 1068.0000 1.0000
40.0200 1088.0000 1.0000
40.0300 1031.0000 1.0000
40.0400 992.0000 1.0000
40.0500 964.0000 1.0000
40.0600 1010.0000 1.0000
40.0700 1075.0000 1.0000
40.0800 1047.0000 1.0000
40.0900 1048.0000 1.0000
40.1000 1002.0000 1.0000
40.1100 980.0000 1.0000
40.1200 949.0000 1.0000
40.1300 1042.0000 1.0000
40.1400 1006.0000 1.0000
40.1500 967.0000 1.0000
40.1600 1013.0000 1.0000
40.1700 1032.0000 1.0000
40.1800 1069.0000 1.0000
40.1900 1028.0000 1.0000
40.2000 1022.0000 1.0000
40.2100 1007.0000 1.0000
40.2200 1047.0000 1.0000
40.2300 971.0000 1.0000
40.2400 1021.0000 1.0000
40.2500 1001.0000 1.0000
40.2600 978.0000 1.0000
40.2700 1044.0000 1.0000
40.2800 987.0000 1.0000
40.2900 1033.0000 1.0000
40.3000 990.0000 1.0000
40.3100 998.0000 1.0000
40.3200 1033.0000 1.0000
40.3300 1050.0000 1.0000
40.3400 982.0000 1.0000
40.3500 1018.0000 1.0000
40.3600 939.0000 1.0000
40.3700 1012.0000 1.0000
40.3800 959.0000 1.0000
40.3900 1009.0000 1.0000
40.4000 969.0000 1.0000
40.4100 954.0000 1.0000
40.4200 943.0000 1.0000
40.4300 959.0000 1.0000
40.4400 1007.0000 1.0000
40.4500 1014.0000 1.0000
40.4600 978.0000 1.0000
40.4700 954.0000 1.0000
40.4800 979.0000 1.0000
40.4900 946.0000 1.0000
40.5000 1024.0000 1.0000
40.5100 968.0000 1.0000
40.5200 990.0000 1.0000
40.5300 981.0000 1.0000
40.5400 1016.0000 1.0000
40.5500 944.0000 1.0000
40.5600 1013.0000 1.0000
40.5700 1028.0000 1.0000
40.5800 1000.0000 1.0000
40.5900 989.0000 1.0000
40.6000 974.0000 1.0000
40.6100 963.0000 1.0000
40.6200 1021.0000 1.0000
40.6300 982.0000 1.0000
40.6400 1019.0000 1.0000
40.6500 1034.0000 1.0000
40.6600 997.0000 1.0000
40.6700 961.0000 1.0000
40.6800 974.0000 1.0000
40.6900 974.0000 1.0000
40.7000 988.0000 1.0000
40.7100 952.0000 1.0000
40.7200 975.0000 1.0000
40.7300 993.0000 1.0000
40.7400 1007.0000 1.0000
40.7500 974.0000 1.0000
40.7600 1021.0000 1.0000
40.7700 995.0000 1.0000
40.7800 1030.0000 1.0000
40.7900 1017.0000 1.0000
40.8000 963.0000 1.0000
40.8100 978.0000 1.0000
40.8200 1052.0000 1.0000
40.8300 928.0000 1.0000
40.8400 980.0000 1.0000
40.8500 910.0000 1.0000
40.8600 938.0000 1.0000
40.8700 988.0000 1.0000
40.8800 1024.0000 1.0000
40.8900 970.0000 1.0000
40.9000 935.0000 1.0000
40.9100 925.0000 1.0000
40.9200 1001.0000 1.0000
40.9300 981.0000 1.0000
40.9400 996.0000 1.0000
40.9500 967.0000 1.0000
40.9600 997.0000 1.0000
40.9700 1011.0000 1.0000
40.9800 1010.0000 1.0000
40.9900 974.0000 1.0000
41.0000 971.0000 1.0000
41.0100 922.0000 1.0000
41.0200 964.0000 1.0000
41.0300 987.0000 1.0000
41.0400 988.0000 1.0000
41.0500 990.0000 1.0000
41.0600 948.0000 1.0000
41.0700 990.0000 1.0000
41.0800 984.0000 1.0000
41.0900 956.0000 1.0000
41.1000 948.0000 1.0000
41.1100 1053.0000 1.0000
41.1200 959.0000 1.0000
41.1300 982.0000 1.0000
41.1400 969.0000 1.0000
41.1500 979.0000 1.0000
41.1600 971.0000 1.0000
41.1700 955.0000 1.0000
41.1800 958.0000 1.0000
41.1900 985.0000 1.0000
41.2000 988.0000 1.0000
41.2100 972.0000 1.0000
41.2200 964.0000 1.0000
41.2300 1015.0000 1.0000
41.2400 1020.0000 1.0000
41.2500 978.0000 1.0000
41.2600 961.0000 1.0000
41.2700 922.0000 1.0000
41.2800 933.0000 1.0000
41.2900 954.0000 1.0000
41.3000 946.0000 1.0000
41.3100 999.0000 1.0000
41.3200 1000.0000 1.0000
41.3300 981.0000 1.0000
41.3400 946.0000 1.0000
41.3500 948.0000 1.0000
41.3600 984.0000 1.0000
41.3700 972.0000 1.0000
41.3800 961.0000 1.0000
41.3900 968.0000 1.0000
41.4000 952.0000 1.0000
41.4100 958.0000 1.0000
41.4200 941.0000 1.0000
41.4300 931.0000 1.0000
41.4400 984.0000 1.0000
41.4500 984.0000 1.0000
41.4600 989.0000 1.0000
41.4700 917.0000 1.0000
41.4800 956.0000 1.0000
41.4900 1004.0000 1.0000
41.5000 1020.0000 1.0000
41.5100 911.0000 1.0000
41.5200 984.0000 1.0000
41.5300 942.0000 1.0000
41.5400 1002.0000 1.0000
41.5500 984.0000 1.0000
41.5600 988.0000 1.0000
41.5700 1008.0000 1.0000
41.5800 994.0000 1.0000
41.5900 980.0000 1.0000
41.6000 970.0000 1.0000
41.6100 952.0000 1.0000
41.6200 998.0000 1.0000
41.6300 1023.0000 1.0000
41.6400 1000.0000 1.0000
41.6500 990.0000 1.0000
41.6600 955.0000 1.0000
41.6700 959.0000 1.0000
41.6800 959.0000 1.0000
41.6900 996.0000 1.0000
41.7000 1069.0000 1.0000
41.7100 1062.0000 1.0000
41.7200 1011.0000 1.0000
41.7300 981.0000 1.0000
41.7400 999.0000 1.0000
41.7500 986.0000 1.0000
41.7600 931.0000 1.0000
41.7700 974.0000 1.0000
41.7800 979.0000 1.0000
41.7900 981.0000 1.0000
41.8000 984.0000 1.0000
41.8100 980.0000 1.0000
41.8200 962.0000 1.0000
41.8300 945.0000 1.0000
41.8400 956.0000 1.0000
41.8500 995.0000 1.0000
41.8600 977.0000 1.0000
41.8700 987.0000 1.0000
41.8800 947.0000 1.0000
41.8900 943.0000 1.0000
41.9000 914.0000 1.0000
41.9100 1007.0000 1.0000
41.9200 934.0000 1.0000
41.9300 953.0000 1.0000
41.9400 999.0000 1.0000
41.9500 1005.0000 1.0000
41.9600 973.0000 1.0000
41.9700 968.0000 1.0000
41.9800 971.0000 1.0000
41.9900 1004.0000 1.0000
42.0000 942.0000 1.0000
42.0100 991.0000 1.0000
42.0200 934.0000 1.0000
42.0300 972.0000 1.0000
42.0400 915.0000 1.0000
42.0500 975.0000 1.0000
42.0600 945.0000 1.0000
42.0700 944.0000 1.0000
42.0800 937.0000 1.0000
42.0900 988.0000 1.0000
42.1000 972.0000 1.0000
42.1100 996.0000 1.0000
42.1200 999.0000 1.0000
42.1300 971.0000 1.0000
42.1400 925.0000 1.0000
42.1500 923.0000 1.0000
42.1600 963.0000 1.0000
42.1700 939.0000 1.0000
42.1800 962.0000 1.0000
42.1900 979.0000 1.0000
42.2000 987.0000 1.0000
42.2100 996.0000 1.0000
42.2200 1002.0000 1.0000
42.2300 970.0000 1.0000
42.2400 964.0000 1.0000
42.2500 949.0000 1.0000
42.2600 935.0000 1.0000
42.2700 942.0000 1.0000
42.2800 991.0000 1.0000
42.2900 960.0000 1.0000
42.3000 955.0000 1.0000
42.3100 957.0000 1.0000
42.3200 980.0000 1.0000
42.3300 1001.0000 1.0000
42.3400 952.0000 1.0000
42.3500 950.0000 1.0000
42.3600 982.0000 1.0000
42.3700 925.0000 1.0000
42.3800 931.0000 1.0000
42.3900 1008.0000 1.0000
42.4000 938.0000 1.0000
42.4100 956.0000 1.0000
42.4200 994.0000 1.0000
42.4300 917.0000 1.0000
42.4400 880.0000 1.0000
42.4500 930.0000 1.0000
42.4600 952.0000 1.0000
42.4700 950.0000 1.0000
42.4800 932.0000 1.0000
42.4900 955.0000 1.0000
42.5000 932.0000 1.0000
42.5100 1002.0000 1.0000
42.5200 975.0000 1.0000
42.5300 981.0000 1.0000
42.5400 942.0000 1.0000
42.5500 942.0000 1.0000
42.5600 945.0000 1.0000
42.5700 958.0000 1.0000
42.5800 984.0000 1.0000
42.5900 963.0000 1.0000
42.6000 963.0000 1.0000
42.6100 961.0000 1.0000
42.6200 964.0000 1.0000
42.6300 920.0000 1.0000
42.6400 954.0000 1.0000
42.6500 936.0000 1.0000
42.6600 996.0000 1.0000
42.6700 940.0000 1.0000
42.6800 898.0000 1.0000
42.6900 945.0000 1.0000
42.7000 949.0000 1.0000
42.7100 970.0000 1.0000
42.7200 1012.0000 1.0000
42.7300 933.0000 1.0000
42.7400 907.0000 1.0000
42.7500 975.0000 1.0000
42.7600 954.0000 1.0000
42.7700 969.0000 1.0000
42.7800 919.0000 1.0000
42.7900 973.0000 1.0000
42.8000 969.0000 1.0000
42.8100 1001.0000 1.0000
42.8200 940.0000 1.0000
42.8300 944.0000 1.0000
42.8400 960.0000 1.0000
42.8500 960.0000 1.0000
42.8600 959.0000 1.0000
42.8700 918.0000 1.0000
42.8800 974.0000 1.0000
42.8900 968.0000 1.0000
42.9000 922.0000 1.0000
42.9100 1051.0000 1.0000
42.9200 973.0000 1.0000
42.9300 978.0000 1.0000
42.9400 983.0000 1.0000
42.9500 998.0000 1.0000
42.9600 983.0000 1.0000
42.9700 913.0000 1.0000
42.9800 955.0000 1.0000
42.9900 936.0000 1.0000
43.0000 977.0000 1.0000
43.0100 1002.0000 1.0000
43.0200 960.0000 1.0000
43.0300 933.0000 1.0000
43.0400 984.0000 1.0000
43.0500 1039.0000 1.0000
43.0600 1020.0000 1.0000
43.0700 1006.0000 1.0000
43.0800 1037.0000 1.0000
43.0900 1027.0000 1.0000
43.1000 1044.0000 1.0000
43.1100 978.0000 1.0000
43.1200 1020.0000 1.0000
43.1300 1020.0000 1.0000
43.1400 1056.0000 1.0000
43.1500 1036.0000 1.0000
43.1600 1044.0000 1.0000
43.1700 1044.0000 1.0000
43.1800 1088.0000 1.0000
43.1900 1089.0000 1.0000
43.2000 1009.0000 1.0000
43.2100 1027.0000 1.0000
43.2200 1047.0000 1.0000
43.2300 1050.0000 1.0000
43.2400 1060.0000 1.0000
43.2500 1026.0000 1.0000
43.2600 1024.0000 1.0000
43.2700 1003.0000 1.0000
43.2800 1063.0000 1.0000
43.2900 1060.0000 1.0000
43.3000 1038.0000 1.0000
43.3100 1054.0000 1.0000
43.3200 1017.0000 1.0000
43.3300 1015.0000 1.0000
43.3400 978.0000 1.0000
43.3500 1017.0000 1.0000
43.3600 985.0000 1.0000
43.3700 1006.0000 1.0000
43.3800 986.0000 1.0000
43.3900 973.0000 1.0000
43.4000 1027.0000 1.0000
43.4100 908.0000 1.0000
43.4200 948.0000 1.0000
43.4300 973.0000 1.0000
43.4400 959.0000 1.0000
43.4500 982.0000 1.0000
43.4600 963.0000 1.0000
43.4700 893.0000 1.0000
43.4800 947.0000 1.0000
43.4900 962.0000 1.0000
43.5000 952.0000 1.0000
43.5100 961.0000 1.0000
43.5200 972.0000 1.0000
43.5300 997.0000 1.0000
43.5400 980.0000 1.0000
43.5500 957.0000 1.0000
43.5600 881.0000 1.0000
43.5700 909.0000 1.0000
43.5800 941.0000 1.0000
43.5900 978.0000 1.0000
43.6000 919.0000 1.0000
43.6100 924.0000 1.0000
43.6200 890.0000 1.0000
43.6300 938.0000 1.0000
43.6400 922.0000 1.0000
43.6500 999.0000 1.0000
43.6600 945.0000 1.0000
43.6700 916.0000 1.0000
43.6800 909.0000 1.0000
43.6900 922.0000 1.0000
43.7000 877.0000 1.0000
43.7100 964.0000 1.0000
43.7200 921.0000 1.0000
43.7300 951.0000 1.0000
43.7400 945.0000 1.0000
43.7500 938.0000 1.0000
43.7600 930.0000 1.0000
43.7700 904.0000 1.0000
43.7800 937.0000 1.0000
43.7900 949.0000 1.0000
43.8000 987.0000 1.0000
43.8100 910.0000 1.0000
43.8200 902.0000 1.0000
43.8300 941.0000 1.0000
43.8400 892.0000 1.0000
43.8500 910.0000 1.0000
43.8600 908.0000 1.0000
43.8700 934.0000 1.0000
43.8800 931.0000 1.0000
43.8900 941.0000 1.0000
43.9000 898.0000 1.0000
43.9100 955.0000 1.0000
43.9200 940.0000 1.0000
43.9300 951.0000 1.0000
43.9400 935.0000 1.0000
43.9500 926.0000 1.0000
43.9600 999.0000 1.0000
43.9700 936.0000 1.0000
43.9800 945.0000 1.0000
43.9900 953.0000 1.0000
44.0000 923.0000 1.0000
44.0100 930.0000 1.0000
44.0200 909.0000 1.0000
44.0300 912.0000 1.0000
44.0400 939.0000 1.0000
44.0500 915.0000 1.0000
44.0600 943.0000 1.0000
44.0700 895.0000 1.0000
44.0800 959.0000 1.0000
44.0900 995.0000 1.0000
44.1000 969.0000 1.0000
44.1100 967.0000 1.0000
44.1200 887.0000 1.0000
44.1300 951.0000 1.0000
44.1400 925.0000 1.0000
44.1500 924.0000 1.0000
44.1600 950.0000 1.0000
44.1700 940.0000 1.0000
44.1800 926.0000 1.0000
44.1900 898.0000 1.0000
44.2000 955.0000 1.0000
44.2100 912.0000 1.0000
44.2200 892.0000 1.0000
44.2300 953.0000 1.0000
44.2400 941.0000 1.0000
44.2500 914.0000 1.0000
44.2600 980.0000 1.0000
44.2700 922.0000 1.0000
44.2800 887.0000 1.0000
44.2900 934.0000 1.0000
44.3000 977.0000 1.0000
44.3100 946.0000 1.0000
44.3200 935.0000 1.0000
44.3300 907.0000 1.0000
44.3400 921.0000 1.0000
44.3500 890.0000 1.0000
44.3600 909.0000 1.0000
44.3700 943.0000 1.0000
44.3800 914.0000 1.0000
44.3900 989.0000 1.0000
44.4000 898.0000 1.0000
44.4100 865.0000 1.0000
44.4200 950.0000 1.0000
44.4300 914.0000 1.0000
44.4400 923.0000 1.0000
44.4500 902.0000 1.0000
44.4600 923.0000 1.0000
44.4700 906.0000 1.0000
44.4800 925.0000 1.0000
44.4900 878.0000 1.0000
44.5000 922.0000 1.0000
44.5100 916.0000 1.0000
44.5200 908.0000 1.0000
44.5300 896.0000 1.0000
44.5400 921.0000 1.0000
44.5500 918.0000 1.0000
44.5600 924.0000 1.0000
44.5700 940.0000 1.0000
44.5800 920.0000 1.0000
44.5900 939.0000 1.0000
44.6000 858.0000 1.0000
44.6100 902.0000 1.0000
44.6200 910.0000 1.0000
44.6300 947.0000 1.0000
44.6400 929.0000 1.0000
44.6500 905.0000 1.0000
44.6600 879.0000 1.0000
44.6700 871.0000 1.0000
44.6800 908.0000 1.0000
44.6900 917.0000 1.0000
44.7000 930.0000 1.0000
44.7100 924.0000 1.0000
44.7200 926.0000 1.0000
44.7300 905.0000 1.0000
44.7400 910.0000 1.0000
44.7500 892.0000 1.0000
44.7600 906.0000 1.0000
44.7700 894.0000 1.0000
44.7800 943.0000 1.0000
44.7900 918.0000 1.0000
44.8000 936.0000 1.0000
44.8100 892.0000 1.0000
44.8200 885.0000 1.0000
44.8300 887.0000 1.0000
44.8400 904.0000 1.0000
44.8500 886.0000 1.0000
44.8600 868.0000 1.0000
44.8700 875.0000 1.0000
44.8800 890.0000 1.0000
44.8900 900.0000 1.0000
44.9000 878.0000 1.0000
44.9100 939.0000 1.0000
44.9200 893.0000 1.0000
44.9300 871.0000 1.0000
44.9400 918.0000 1.0000
44.9500 878.0000 1.0000
44.9600 909.0000 1.0000
44.9700 896.0000 1.0000
44.9800 908.0000 1.0000
44.9900 840.0000 1.0000
45.0000 909.0000 1.0000
45.0100 921.0000 1.0000
45.0200 890.0000 1.0000
45.0300 889.0000 1.0000
45.0400 916.0000 1.0000
45.0500 1025.0000 1.0000
45.0600 882.0000 1.0000
45.0700 858.0000 1.0000
45.0800 883.0000 1.0000
45.0900 954.0000 1.0000
45.1000 897.0000 1.0000
45.1100 901.0000 1.0000
45.1200 915.0000 1.0000
45.1300 916.0000 1.0000
45.1400 899.0000 1.0000
45.1500 881.0000 1.0000
45.1600 957.0000 1.0000
45.1700 946.0000 1.0000
45.1800 884.0000 1.0000
45.1900 923.0000 1.0000
45.2000 850.0000 1.0000
45.2100 882.0000 1.0000
45.2200 946.0000 1.0000
45.2300 904.0000 1.0000
45.2400 884.0000 1.0000
45.2500 879.0000 1.0000
45.2600 854.0000 1.0000
45.2700 839.0000 1.0000
45.2800 895.0000 1.0000
45.2900 866.0000 1.0000
45.3000 874.0000 1.0000
45.3100 877.0000 1.0000
45.3200 888.0000 1.0000
45.3300 909.0000 1.0000
45.3400 913.0000 1.0000
45.3500 885.0000 1.0000
45.3600 871.0000 1.0000
45.3700 840.0000 1.0000
45.3800 848.0000 1.0000
45.3900 892.0000 1.0000
45.4000 875.0000 1.0000
45.4100 911.0000 1.0000
45.4200 942.0000 1.0000
45.4300 914.0000 1.0000
45.4400 910.0000 1.0000
45.4500 924.0000 1.0000
45.4600 876.0000 1.0000
45.4700 889.0000 1.0000
45.4800 869.0000 1.0000
45.4900 887.0000 1.0000
45.5000 914.0000 1.0000
45.5100 904.0000 1.0000
45.5200 885.0000 1.0000
45.5300 854.0000 1.0000
45.5400 877.0000 1.0000
45.5500 904.0000 1.0000
45.5600 931.0000 1.0000
45.5700 918.0000 1.0000
45.5800 871.0000 1.0000
45.5900 863.0000 1.0000
45.6000 825.0000 1.0000
45.6100 906.0000 1.0000
45.6200 886.0000 1.0000
45.6300 931.0000 1.0000
45.6400 898.0000 1.0000
45.6500 892.0000 1.0000
45.6600 895.0000 1.0000
45.6700 894.0000 1.0000
45.6800 862.0000 1.0000
45.6900 874.0000 1.0000
45.7000 911.0000 1.0000
45.7100 926.0000 1.0000
45.7200 908.0000 1.0000
45.7300 891.0000 1.0000
45.7400 889.0000 1.0000
45.7500 942.0000 1.0000
45.7600 903.0000 1.0000
45.7700 938.0000 1.0000
45.7800 890.0000 1.0000
45.7900 908.0000 1.0000
45.8000 861.0000 1.0000
45.8100 857.0000 1.0000
45.8200 895.0000 1.0000
45.8300 877.0000 1.0000
45.8400 849.0000 1.0000
45.8500 948.0000 1.0000
45.8600 887.0000 1.0000
45.8700 832.0000 1.0000
45.8800 884.0000 1.0000
45.8900 899.0000 1.0000
45.9000 857.0000 1.0000
45.9100 886.0000 1.0000
45.9200 848.0000 1.0000
45.9300 838.0000 1.0000
45.9400 907.0000 1.0000
45.9500 853.0000 1.0000
45.9600 871.0000 1.0000
45.9700 859.0000 1.0000
45.9800 891.0000 1.0000
45.9900 859.0000 1.0000
46.0000 881.0000 1.0000
46.0100 873.0000 1.0000
46.0200 853.0000 1.0000
46.0300 871.0000 1.0000
46.0400 886.0000 1.0000
46.0500 872.0000 1.0000
46.0600 867.0000 1.0000
46.0700 880.0000 1.0000
46.0800 880.0000 1.0000
46.0900 879.0000 1.0000
46.1000 918.0000 1.0000
46.1100 885.0000 1.0000
46.1200 914.0000 1.0000
46.1300 917.0000 1.0000
46.1400 887.0000 1.0000
46.1500 845.0000 1.0000
46.1600 865.0000 1.0000
46.1700 887.0000 1.0000
46.1800 892.0000 1.0000
46.1900 871.0000 1.0000
46.2000 924.0000 1.0000
46.2100 904.0000 1.0000
46.2200 873.0000 1.0000
46.2300 884.0000 1.0000
46.2400 878.0000 1.0000
46.2500 855.0000 1.0000
46.2600 887.0000 1.0000
46.2700 878.0000 1.0000
46.2800 848.0000 1.0000
46.2900 902.0000 1.0000
46.3000 866.0000 1.0000
46.3100 889.0000 1.0000
46.3200 905.0000 1.0000
46.3300 905.0000 1.0000
46.3400 877.0000 1.0000
46.3500 881.0000 1.0000
46.3600 878.0000 1.0000
46.3700 835.0000 1.0000
46.3800 941.0000 1.0000
46.3900 861.0000 1.0000
46.4000 922.0000 1.0000
46.4100 881.0000 1.0000
46.4200 825.0000 1.0000
46.4300 866.0000 1.0000
46.4400 876.0000 1.0000
46.4500 887.0000 1.0000
46.4600 846.0000 1.0000
46.4700 893.0000 1.0000
46.4800 872.0000 1.0000
46.4900 857.0000 1.0000
46.5000 932.0000 1.0000
46.5100 881.0000 1.0000
46.5200 890.0000 1.0000
46.5300 899.0000 1.0000
46.5400 869.0000 1.0000
46.5500 899.0000 1.0000
46.5600 882.0000 1.0000
46.5700 868.0000 1.0000
46.5800 891.0000 1.0000
46.5900 933.0000 1.0000
46.6000 859.0000 1.0000
46.6100 883.0000 1.0000
46.6200 894.0000 1.0000
46.6300 876.0000 1.0000
46.6400 878.0000 1.0000
46.6500 862.0000 1.0000
46.6600 874.0000 1.0000
46.6700 892.0000 1.0000
46.6800 891.0000 1.0000
46.6900 869.0000 1.0000
46.7000 858.0000 1.0000
46.7100 865.0000 1.0000
46.7200 816.0000 1.0000
46.7300 934.0000 1.0000
46.7400 839.0000 1.0000
46.7500 886.0000 1.0000
46.7600 892.0000 1.0000
46.7700 894.0000 1.0000
46.7800 866.0000 1.0000
46.7900 856.0000 1.0000
46.8000 843.0000 1.0000
46.8100 822.0000 1.0000
46.8200 882.0000 1.0000
46.8300 859.0000 1.0000
46.8400 902.0000 1.0000
46.8500 895.0000 1.0000
46.8600 891.0000 1.0000
46.8700 932.0000 1.0000
46.8800 839.0000 1.0000
46.8900 881.0000 1.0000
46.9000 831.0000 1.0000
46.9100 867.0000 1.0000
46.9200 864.0000 1.0000
46.9300 899.0000 1.0000
46.9400 911.0000 1.0000
46.9500 884.0000 1.0000
46.9600 903.0000 1.0000
46.9700 911.0000 1.0000
46.9800 904.0000 1.0000
46.9900 882.0000 1.0000
47.0000 936.0000 1.0000
47.0100 912.0000 1.0000
47.0200 876.0000 1.0000
47.0300 857.0000 1.0000
47.0400 860.0000 1.0000
47.0500 885.0000 1.0000
47.0600 853.0000 1.0000
47.0700 851.0000 1.0000
47.0800 842.0000 1.0000
47.0900 876.0000 1.0000
47.1000 868.0000 1.0000
47.1100 911.0000 1.0000
47.1200 885.0000 1.0000
47.1300 853.0000 1.0000
47.1400 867.0000 1.0000
47.1500 858.0000 1.0000
47.1600 847.0000 1.0000
47.1700 857.0000 1.0000
47.1800 834.0000 1.0000
47.1900 859.0000 1.0000
47.2000 860.0000 1.0000
47.2100 859.0000 1.0000
47.2200 879.0000 1.0000
47.2300 875.0000 1.0000
47.2400 817.0000 1.0000
47.2500 893.0000 1.0000
47.2600 859.0000 1.0000
47.2700 868.0000 1.0000
47.2800 853.0000 1.0000
47.2900 866.0000 1.0000
47.3000 862.0000 1.0000
47.3100 863.0000 1.0000
47.3200 855.0000 1.0000
47.3300 867.0000 1.0000
47.3400 873.0000 1.0000
47.3500 889.0000 1.0000
47.3600 859.0000 1.0000
47.3700 860.0000 1.0000
47.3800 843.0000 1.0000
47.3900 891.0000 1.0000
47.4000 842.0000 1.0000
47.4100 909.0000 1.0000
47.4200 867.0000 1.0000
47.4300 878.0000 1.0000
47.4400 848.0000 1.0000
47.4500 871.0000 1.0000
47.4600 846.0000 1.0000
47.4700 831.0000 1.0000
47.4800 846.0000 1.0000
47.4900 876.0000 1.0000
47.5000 858.0000 1.0000
47.5100 796.0000 1.0000
47.5200 864.0000 1.0000
47.5300 920.0000 1.0000
47.5400 844.0000 1.0000
47.5500 863.0000 1.0000
47.5600 824.0000 1.0000
47.5700 850.0000 1.0000
47.5800 877.0000 1.0000
47.5900 868.0000 1.0000
47.6000 818.0000 1.0000
47.6100 826.0000 1.0000
47.6200 861.0000 1.0000
47.6300 866.0000 1.0000
47.6400 806.0000 1.0000
47.6500 847.0000 1.0000
47.6600 822.0000 1.0000
47.6700 860.0000 1.0000
47.6800 865.0000 1.0000
47.6900 848.0000 1.0000
47.7000 879.0000 1.0000
47.7100 846.0000 1.0000
47.7200 845.0000 1.0000
47.7300 846.0000 1.0000
47.7400 861.0000 1.0000
47.7500 851.0000 1.0000
47.7600 836.0000 1.0000
47.7700 817.0000 1.0000
47.7800 859.0000 1.0000
47.7900 799.0000 1.0000
47.8000 827.0000 1.0000
47.8100 816.0000 1.0000
47.8200 835.0000 1.0000
47.8300 853.0000 1.0000
47.8400 842.0000 1.0000
47.8500 853.0000 1.0000
47.8600 792.0000 1.0000
47.8700 800.0000 1.0000
47.8800 852.0000 1.0000
47.8900 839.0000 1.0000
47.9000 852.0000 1.0000
47.9100 863.0000 1.0000
47.9200 842.0000 1.0000
47.9300 864.0000 1.0000
47.9400 856.0000 1.0000
47.9500 859.0000 1.0000
47.9600 869.0000 1.0000
47.9700 897.0000 1.0000
47.9800 852.0000 1.0000
47.9900 789.0000 1.0000
48.0000 810.0000 1.0000
48.0100 818.0000 1.0000
48.0200 805.0000 1.0000
48.0300 853.0000 1.0000
48.0400 875.0000 1.0000
48.0500 842.0000 1.0000
48.0600 805.0000 1.0000
48.0700 880.0000 1.0000
48.0800 866.0000 1.0000
48.0900 780.0000 1.0000
48.1000 838.0000 1.0000
48.1100 833.0000 1.0000
48.1200 850.0000 1.0000
48.1300 833.0000 1.0000
48.1400 848.0000 1.0000
48.1500 854.0000 1.0000
48.1600 841.0000 1.0000
48.1700 806.0000 1.0000
48.1800 810.0000 1.0000
48.1900 871.0000 1.0000
48.2000 823.0000 1.0000
48.2100 774.0000 1.0000
48.2200 844.0000 1.0000
48.2300 825.0000 1.0000
48.2400 844.0000 1.0000
48.2500 830.0000 1.0000
48.2600 865.0000 1.0000
48.2700 831.0000 1.0000
48.2800 857.0000 1.0000
48.2900 850.0000 1.0000
48.3000 847.0000 1.0000
48.3100 831.0000 1.0000
48.3200 828.0000 1.0000
48.3300 853.0000 1.0000
48.3400 858.0000 1.0000
48.3500 822.0000 1.0000
48.3600 825.0000 1.0000
48.3700 798.0000 1.0000
48.3800 792.0000 1.0000
48.3900 814.0000 1.0000
48.4000 831.0000 1.0000
48.4100 818.0000 1.0000
48.4200 828.0000 1.0000
48.4300 830.0000 1.0000
48.4400 827.0000 1.0000
48.4500 859.0000 1.0000
48.4600 847.0000 1.0000
48.4700 818.0000 1.0000
48.4800 819.0000 1.0000
48.4900 780.0000 1.0000
48.5000 839.0000 1.0000
48.5100 854.0000 1.0000
48.5200 846.0000 1.0000
48.5300 849.0000 1.0000
48.5400 870.0000 1.0000
48.5500 839.0000 1.0000
48.5600 812.0000 1.0000
48.5700 833.0000 1.0000
48.5800 788.0000 1.0000
48.5900 832.0000 1.0000
48.6000 844.0000 1.0000
48.6100 807.0000 1.0000
48.6200 826.0000 1.0000
48.6300 835.0000 1.0000
48.6400 832.0000 1.0000
48.6500 849.0000 1.0000
48.6600 821.0000 1.0000
48.6700 815.0000 1.0000
48.6800 857.0000 1.0000
48.6900 874.0000 1.0000
48.7000 829.0000 1.0000
48.7100 828.0000 1.0000
48.7200 809.0000 1.0000
48.7300 855.0000 1.0000
48.7400 795.0000 1.0000
48.7500 844.0000 1.0000
48.7600 831.0000 1.0000
48.7700 810.0000 1.0000
48.7800 799.0000 1.0000
48.7900 826.0000 1.0000
48.8000 836.0000 1.0000
48.8100 895.0000 1.0000
48.8200 894.0000 1.0000
48.8300 811.0000 1.0000
48.8400 809.0000 1.0000
48.8500 830.0000 1.0000
48.8600 813.0000 1.0000
48.8700 832.0000 1.0000
48.8800 826.0000 1.0000
48.8900 813.0000 1.0000
48.9000 823.0000 1.0000
48.9100 817.0000 1.0000
48.9200 831.0000 1.0000
48.9300 828.0000 1.0000
48.9400 836.0000 1.0000
48.9500 867.0000 1.0000
48.9600 826.0000 1.0000
48.9700 786.0000 1.0000
48.9800 831.0000 1.0000
48.9900 824.0000 1.0000
49.0000 797.0000 1.0000
49.0100 794.0000 1.0000
49.0200 842.0000 1.0000
49.0300 805.0000 1.0000
49.0400 765.0000 1.0000
49.0500 828.0000 1.0000
49.0600 884.0000 1.0000
49.0700 814.0000 1.0000
49.0800 860.0000 1.0000
49.0900 785.0000 1.0000
49.1000 806.0000 1.0000
49.1100 794.0000 1.0000
49.1200 843.0000 1.0000
49.1300 821.0000 1.0000
49.1400 804.0000 1.0000
49.1500 832.0000 1.0000
49.1600 838.0000 1.0000
49.1700 821.0000 1.0000
49.1800 833.0000 1.0000
49.1900 820.0000 1.0000
49.2000 823.0000 1.0000
49.2100 797.0000 1.0000
49.2200 779.0000 1.0000
49.2300 845.0000 1.0000
49.2400 830.0000 1.0000
49.2500 847.0000 1.0000
49.2600 810.0000 1.0000
49.2700 830.0000 1.0000
49.2800 809.0000 1.0000
49.2900 824.0000 1.0000
49.3000 884.0000 1.0000
49.3100 835.0000 1.0000
49.3200 802.0000 1.0000
49.3300 822.0000 1.0000
49.3400 824.0000 1.0000
49.3500 817.0000 1.0000
49.3600 834.0000 1.0000
49.3700 824.0000 1.0000
49.3800 818.0000 1.0000
49.3900 811.0000 1.0000
49.4000 751.0000 1.0000
49.4100 754.0000 1.0000
49.4200 834.0000 1.0000
49.4300 830.0000 1.0000
49.4400 856.0000 1.0000
49.4500 814.0000 1.0000
49.4600 825.0000 1.0000
49.4700 793.0000 1.0000
49.4800 816.0000 1.0000
49.4900 787.0000 1.0000
49.5000 794.0000 1.0000
49.5100 796.0000 1.0000
49.5200 827.0000 1.0000
49.5300 799.0000 1.0000
49.5400 794.0000 1.0000
49.5500 844.0000 1.0000
49.5600 861.0000 1.0000
49.5700 863.0000 1.0000
49.5800 864.0000 1.0000
49.5900 859.0000 1.0000
49.6000 804.0000 1.0000
49.6100 824.0000 1.0000
49.6200 824.0000 1.0000
49.6300 840.0000 1.0000
49.6400 816.0000 1.0000
49.6500 769.0000 1.0000
49.6600 809.0000 1.0000
49.6700 822.0000 1.0000
49.6800 815.0000 1.0000
49.6900 820.0000 1.0000
49.7000 843.0000 1.0000
49.7100 840.0000 1.0000
49.7200 819.0000 1.0000
49.7300 807.0000 1.0000
49.7400 843.0000 1.0000
49.7500 825.0000 1.0000
49.7600 799.0000 1.0000
49.7700 836.0000 1.0000
49.7800 808.0000 1.0000
49.7900 823.0000 1.0000
49.8000 808.0000 1.0000
49.8100 836.0000 1.0000
49.8200 818.0000 1.0000
49.8300 795.0000 1.0000
49.8400 822.0000 1.0000
49.8500 806.0000 1.0000
49.8600 822.0000 1.0000
49.8700 871.0000 1.0000
49.8800 847.0000 1.0000
49.8900 797.0000 1.0000
49.9000 795.0000 1.0000
49.9100 831.0000 1.0000
49.9200 831.0000 1.0000
49.9300 819.0000 1.0000
49.9400 808.0000 1.0000
49.9500 803.0000 1.0000
49.9600 824.0000 1.0000
49.9700 800.0000 1.0000
49.9800 838.0000 1.0000
49.9900 840.0000 1.0000
50.0000 824.0000 1.0000
50.0100 823.0000 1.0000
50.0200 822.0000 1.0000
50.0300 826.0000 1.0000
50.0400 803.0000 1.0000
50.0500 841.0000 1.0000
50.0600 818.0000 1.0000
50.0700 831.0000 1.0000
50.0800 822.0000 1.0000
50.0900 860.0000 1.0000
50.1000 831.0000 1.0000
50.1100 844.0000 1.0000
50.1200 863.0000 1.0000
50.1300 840.0000 1.0000
50.1400 784.0000 1.0000
50.1500 842.0000 1.0000
50.1600 858.0000 1.0000
50.1700 820.0000 1.0000
50.1800 805.0000 1.0000
50.1900 888.0000 1.0000
50.2000 844.0000 1.0000
50.2100 826.0000 1.0000
50.2200 809.0000 1.0000
50.2300 838.0000 1.0000
50.2400 809.0000 1.0000
50.2500 870.0000 1.0000
50.2600 887.0000 1.0000
50.2700 873.0000 1.0000
50.2800 843.0000 1.0000
50.2900 868.0000 1.0000
50.3000 842.0000 1.0000
50.3100 845.0000 1.0000
50.3200 840.0000 1.0000
50.3300 851.0000 1.0000
50.3400 792.0000 1.0000
50.3500 814.0000 1.0000
50.3600 850.0000 1.0000
50.3700 841.0000 1.0000
50.3800 819.0000 1.0000
50.3900 861.0000 1.0000
50.4000 858.0000 1.0000
50.4100 894.0000 1.0000
50.4200 798.0000 1.0000
50.4300 874.0000 1.0000
50.4400 848.0000 1.0000
50.4500 835.0000 1.0000
50.4600 791.0000 1.0000
50.4700 828.0000 1.0000
50.4800 817.0000 1.0000
50.4900 837.0000 1.0000
50.5000 800.0000 1.0000
50.5100 878.0000 1.0000
50.5200 851.0000 1.0000
50.5300 841.0000 1.0000
50.5400 797.0000 1.0000
50.5500 812.0000 1.0000
50.5600 824.0000 1.0000
50.5700 804.0000 1.0000
50.5800 809.0000 1.0000
50.5900 874.0000 1.0000
50.6000 832.0000 1.0000
50.6100 838.0000 1.0000
50.6200 823.0000 1.0000
50.6300 835.0000 1.0000
50.6400 824.0000 1.0000
50.6500 808.0000 1.0000
50.6600 873.0000 1.0000
50.6700 808.0000 1.0000
50.6800 820.0000 1.0000
50.6900 859.0000 1.0000
50.7000 849.0000 1.0000
50.7100 839.0000 1.0000
50.7200 822.0000 1.0000
50.7300 839.0000 1.0000
50.7400 850.0000 1.0000
50.7500 832.0000 1.0000
50.7600 849.0000 1.0000
50.7700 801.0000 1.0000
50.7800 827.0000 1.0000
50.7900 873.0000 1.0000
50.8000 846.0000 1.0000
50.8100 831.0000 1.0000
50.8200 850.0000 1.0000
50.8300 816.0000 1.0000
50.8400 788.0000 1.0000
50.8500 813.0000 1.0000
50.8600 817.0000 1.0000
50.8700 848.0000 1.0000
50.8800 805.0000 1.0000
50.8900 827.0000 1.0000
50.9000 806.0000 1.0000
50.9100 872.0000 1.0000
50.9200 804.0000 1.0000
50.9300 791.0000 1.0000
50.9400 815.0000 1.0000
50.9500 802.0000 1.0000
50.9600 818.0000 1.0000
50.9700 848.0000 1.0000
50.9800 839.0000 1.0000
50.9900 847.0000 1.0000
51.0000 823.0000 1.0000
51.0100 785.0000 1.0000
51.0200 862.0000 1.0000
51.0300 846.0000 1.0000
51.0400 883.0000 1.0000
51.0500 878.0000 1.0000
51.0600 798.0000 1.0000
51.0700 842.0000 1.0000
51.0800 832.0000 1.0000
51.0900 821.0000 1.0000
51.1000 865.0000 1.0000
51.1100 831.0000 1.0000
51.1200 787.0000 1.0000
51.1300 814.0000 1.0000
51.1400 818.0000 1.0000
51.1500 877.0000 1.0000
51.1600 835.0000 1.0000
51.1700 858.0000 1.0000
51.1800 815.0000 1.0000
51.1900 811.0000 1.0000
51.2000 817.0000 1.0000
51.2100 835.0000 1.0000
51.2200 876.0000 1.0000
51.2300 830.0000 1.0000
51.2400 845.0000 1.0000
51.2500 818.0000 1.0000
51.2600 824.0000 1.0000
51.2700 864.0000 1.0000
51.2800 880.0000 1.0000
51.2900 813.0000 1.0000
51.3000 842.0000 1.0000
51.3100 806.0000 1.0000
51.3200 846.0000 1.0000
51.3300 853.0000 1.0000
51.3400 867.0000 1.0000
51.3500 824.0000 1.0000
51.3600 835.0000 1.0000
51.3700 848.0000 1.0000
51.3800 823.0000 1.0000
51.3900 831.0000 1.0000
51.4000 850.0000 1.0000
51.4100 815.0000 1.0000
51.4200 823.0000 1.0000
51.4300 850.0000 1.0000
51.4400 827.0000 1.0000
51.4500 843.0000 1.0000
51.4600 850.0000 1.0000
51.4700 904.0000 1.0000
51.4800 853.0000 1.0000
51.4900 858.0000 1.0000
51.5000 846.0000 1.0000
51.5100 870.0000 1.0000
51.5200 854.0000 1.0000
51.5300 883.0000 1.0000
51.5400 934.0000 1.0000
51.5500 842.0000 1.0000
51.5600 830.0000 1.0000
51.5700 869.0000 1.0000
51.5800 900.0000 1.0000
51.5900 846.0000 1.0000
51.6000 847.0000 1.0000
51.6100 865.0000 1.0000
51.6200 875.0000 1.0000
51.6300 858.0000 1.0000
51.6400 875.0000 1.0000
51.6500 904.0000 1.0000
51.6600 841.0000 1.0000
51.6700 874.0000 1.0000
51.6800 876.0000 1.0000
51.6900 872.0000 1.0000
51.7000 877.0000 1.0000
51.7100 847.0000 1.0000
51.7200 874.0000 1.0000
51.7300 912.0000 1.0000
51.7400 878.0000 1.0000
51.7500 935.0000 1.0000
51.7600 912.0000 1.0000
51.7700 931.0000 1.0000
51.7800 864.0000 1.0000
51.7900 925.0000 1.0000
51.8000 979.0000 1.0000
51.8100 970.0000 1.0000
51.8200 927.0000 1.0000
51.8300 1018.0000 1.0000
51.8400 977.0000 1.0000
51.8500 996.0000 1.0000
51.8600 1009.0000 1.0000
51.8700 979.0000 1.0000
51.8800 1054.0000 1.0000
51.8900 1011.0000 1.0000
51.9000 1060.0000 1.0000
51.9100 1122.0000 1.0000
51.9200 1106.0000 1.0000
51.9300 1121.0000 1.0000
51.9400 1207.0000 1.0000
51.9500 1165.0000 1.0000
51.9600 1250.0000 1.0000
51.9700 1255.0000 1.0000
51.9800 1371.0000 1.0000
51.9900 1410.0000 1.0000
52.0000 1408.0000 1.0000
52.0100 1439.0000 1.0000
52.0200 1532.0000 1.0000
52.0300 1587.0000 1.0000
52.0400 1591.0000 1.0000
52.0500 1712.0000 1.0000
52.0600 1799.0000 1.0000
52.0700 1855.0000 1.0000
52.0800 1945.0000 1.0000
52.0900 2030.0000 1.0000
52.1000 2369.0000 1.0000
52.1100 2452.0000 1.0000
52.1200 2732.0000 1.0000
52.1300 2941.0000 1.0000
52.1400 3067.0000 1.0000
52.1500 3378.0000 1.0000
52.1600 3619.0000 1.0000
52.1700 3942.0000 1.0000
52.1800 4314.0000 1.0000
52.1900 4553.0000 1.0000
52.2000 4682.0000 1.0000
52.2100 4892.0000 1.0000
52.2200 5085.0000 1.0000
52.2300 5263.0000 1.0000
52.2400 5218.0000 1.0000
52.2500 5141.0000 1.0000
52.2600 5045.0000 1.0000
52.2700 4873.0000 1.0000
52.2800 4731.0000 1.0000
52.2900 4560.0000 1.0000
52.3000 4416.0000 1.0000
52.3100 4180.0000 1.0000
52.3200 4117.0000 1.0000
52.3300 4141.0000 1.0000
52.3400 4132.0000 1.0000
52.3500 4053.0000 1.0000
52.3600 3921.0000 1.0000
52.3700 3827.0000 1.0000
52.3800 3680.0000 1.0000
52.3900 3401.0000 1.0000
52.4000 3200.0000 1.0000
52.4100 3080.0000 1.0000
52.4200 2878.0000 1.0000
52.4300 2661.0000 1.0000
52.4400 2558.0000 1.0000
52.4500 2335.0000 1.0000
52.4600 2253.0000 1.0000
52.4700 2105.0000 1.0000
52.4800 2014.0000 1.0000
52.4900 1799.0000 1.0000
52.5000 1776.0000 1.0000
52.5100 1680.0000 1.0000
52.5200 1630.0000 1.0000
52.5300 1504.0000 1.0000
52.5400 1470.0000 1.0000
52.5500 1454.0000 1.0000
52.5600 1326.0000 1.0000
52.5700 1334.0000 1.0000
52.5800 1273.0000 1.0000
52.5900 1312.0000 1.0000
52.6000 1207.0000 1.0000
52.6100 1204.0000 1.0000
52.6200 1185.0000 1.0000
52.6300 1207.0000 1.0000
52.6400 1078.0000 1.0000
52.6500 1116.0000 1.0000
52.6600 1084.0000 1.0000
52.6700 1139.0000 1.0000
52.6800 1076.0000 1.0000
52.6900 1050.0000 1.0000
52.7000 1022.0000 1.0000
52.7100 1007.0000 1.0000
52.7200 1020.0000 1.0000
52.7300 1028.0000 1.0000
52.7400 946.0000 1.0000
52.7500 953.0000 1.0000
52.7600 939.0000 1.0000
52.7700 989.0000 1.0000
52.7800 1021.0000 1.0000
52.7900 990.0000 1.0000
52.8000 925.0000 1.0000
52.8100 949.0000 1.0000
52.8200 907.0000 1.0000
52.8300 917.0000 1.0000
52.8400 930.0000 1.0000
52.8500 930.0000 1.0000
52.8600 894.0000 1.0000
52.8700 911.0000 1.0000
52.8800 865.0000 1.0000
52.8900 879.0000 1.0000
52.9000 897.0000 1.0000
52.9100 864.0000 1.0000
52.9200 918.0000 1.0000
52.9300 865.0000 1.0000
52.9400 846.0000 1.0000
52.9500 837.0000 1.0000
52.9600 817.0000 1.0000
52.9700 805.0000 1.0000
52.9800 884.0000 1.0000
52.9900 853.0000 1.0000
53.0000 837.0000 1.0000
53.0100 883.0000 1.0000
53.0200 877.0000 1.0000
53.0300 855.0000 1.0000
53.0400 856.0000 1.0000
53.0500 826.0000 1.0000
53.0600 891.0000 1.0000
53.0700 788.0000 1.0000
53.0800 794.0000 1.0000
53.0900 813.0000 1.0000
53.1000 806.0000 1.0000
53.1100 832.0000 1.0000
53.1200 872.0000 1.0000
53.1300 837.0000 1.0000
53.1400 816.0000 1.0000
53.1500 815.0000 1.0000
53.1600 857.0000 1.0000
53.1700 846.0000 1.0000
53.1800 833.0000 1.0000
53.1900 833.0000 1.0000
53.2000 789.0000 1.0000
53.2100 839.0000 1.0000
53.2200 808.0000 1.0000
53.2300 814.0000 1.0000
53.2400 815.0000 1.0000
53.2500 832.0000 1.0000
53.2600 808.0000 1.0000
53.2700 854.0000 1.0000
53.2800 833.0000 1.0000
53.2900 822.0000 1.0000
53.3000 825.0000 1.0000
53.3100 814.0000 1.0000
53.3200 805.0000 1.0000
53.3300 816.0000 1.0000
53.3400 783.0000 1.0000
53.3500 816.0000 1.0000
53.3600 814.0000 1.0000
53.3700 790.0000 1.0000
53.3800 786.0000 1.0000
53.3900 814.0000 1.0000
53.4000 852.0000 1.0000
53.4100 843.0000 1.0000
53.4200 819.0000 1.0000
53.4300 840.0000 1.0000
53.4400 842.0000 1.0000
53.4500 828.0000 1.0000
53.4600 868.0000 1.0000
53.4700 825.0000 1.0000
53.4800 860.0000 1.0000
53.4900 838.0000 1.0000
53.5000 746.0000 1.0000
53.5100 822.0000 1.0000
53.5200 839.0000 1.0000
53.5300 827.0000 1.0000
53.5400 847.0000 1.0000
53.5500 812.0000 1.0000
53.5600 815.0000 1.0000
53.5700 800.0000 1.0000
53.5800 799.0000 1.0000
53.5900 817.0000 1.0000
53.6000 823.0000 1.0000
53.6100 799.0000 1.0000
53.6200 788.0000 1.0000
53.6300 807.0000 1.0000
53.6400 840.0000 1.0000
53.6500 825.0000 1.0000
53.6600 797.0000 1.0000
53.6700 815.0000 1.0000
53.6800 786.0000 1.0000
53.6900 802.0000 1.0000
53.7000 808.0000 1.0000
53.7100 805.0000 1.0000
53.7200 819.0000 1.0000
53.7300 790.0000 1.0000
53.7400 836.0000 1.0000
53.7500 796.0000 1.0000
53.7600 768.0000 1.0000
53.7700 750.0000 1.0000
53.7800 773.0000 1.0000
53.7900 796.0000 1.0000
53.8000 786.0000 1.0000
53.8100 810.0000 1.0000
53.8200 819.0000 1.0000
53.8300 828.0000 1.0000
53.8400 777.0000 1.0000
53.8500 864.0000 1.0000
53.8600 761.0000 1.0000
53.8700 833.0000 1.0000
53.8800 814.0000 1.0000
53.8900 839.0000 1.0000
53.9000 841.0000 1.0000
53.9100 818.0000 1.0000
53.9200 831.0000 1.0000
53.9300 825.0000 1.0000
53.9400 812.0000 1.0000
53.9500 803.0000 1.0000
53.9600 781.0000 1.0000
53.9700 774.0000 1.0000
53.9800 799.0000 1.0000
53.9900 838.0000 1.0000
54.0000 833.0000 1.0000
54.0100 790.0000 1.0000
54.0200 777.0000 1.0000
54.0300 750.0000 1.0000
54.0400 731.0000 1.0000
54.0500 796.0000 1.0000
54.0600 768.0000 1.0000
54.0700 836.0000 1.0000
54.0800 790.0000 1.0000
54.0900 792.0000 1.0000
54.1000 805.0000 1.0000
54.1100 822.0000 1.0000
54.1200 835.0000 1.0000
54.1300 762.0000 1.0000
54.1400 820.0000 1.0000
54.1500 802.0000 1.0000
54.1600 776.0000 1.0000
54.1700 792.0000 1.0000
54.1800 758.0000 1.0000
54.1900 788.0000 1.0000
54.2000 775.0000 1.0000
54.2100 839.0000 1.0000
54.2200 802.0000 1.0000
54.2300 816.0000 1.0000
54.2400 800.0000 1.0000
54.2500 836.0000 1.0000
54.2600 835.0000 1.0000
54.2700 805.0000 1.0000
54.2800 801.0000 1.0000
54.2900 781.0000 1.0000
54.3000 833.0000 1.0000
54.3100 799.0000 1.0000
54.3200 828.0000 1.0000
54.3300 787.0000 1.0000
54.3400 783.0000 1.0000
54.3500 811.0000 1.0000
54.3600 779.0000 1.0000
54.3700 772.0000 1.0000
54.3800 804.0000 1.0000
54.3900 819.0000 1.0000
54.4000 787.0000 1.0000
54.4100 792.0000 1.0000
54.4200 764.0000 1.0000
54.4300 749.0000 1.0000
54.4400 837.0000 1.0000
54.4500 802.0000 1.0000
54.4600 817.0000 1.0000
54.4700 810.0000 1.0000
54.4800 839.0000 1.0000
54.4900 822.0000 1.0000
54.5000 841.0000 1.0000
54.5100 838.0000 1.0000
54.5200 849.0000 1.0000
54.5300 826.0000 1.0000
54.5400 809.0000 1.0000
54.5500 843.0000 1.0000
54.5600 832.0000 1.0000
54.5700 868.0000 1.0000
54.5800 868.0000 1.0000
54.5900 790.0000 1.0000
54.6000 811.0000 1.0000
54.6100 821.0000 1.0000
54.6200 853.0000 1.0000
54.6300 831.0000 1.0000
54.6400 826.0000 1.0000
54.6500 841.0000 1.0000
54.6600 841.0000 1.0000
54.6700 815.0000 1.0000
54.6800 859.0000 1.0000
54.6900 874.0000 1.0000
54.7000 880.0000 1.0000
54.7100 821.0000 1.0000
54.7200 831.0000 1.0000
54.7300 869.0000 1.0000
54.7400 848.0000 1.0000
54.7500 891.0000 1.0000
54.7600 828.0000 1.0000
54.7700 841.0000 1.0000
54.7800 854.0000 1.0000
54.7900 846.0000 1.0000
54.8000 855.0000 1.0000
54.8100 848.0000 1.0000
54.8200 848.0000 1.0000
54.8300 852.0000 1.0000
54.8400 852.0000 1.0000
54.8500 832.0000 1.0000
54.8600 856.0000 1.0000
54.8700 887.0000 1.0000
54.8800 841.0000 1.0000
54.8900 875.0000 1.0000
54.9000 846.0000 1.0000
54.9100 854.0000 1.0000
54.9200 825.0000 1.0000
54.9300 841.0000 1.0000
54.9400 818.0000 1.0000
54.9500 847.0000 1.0000
54.9600 861.0000 1.0000
54.9700 906.0000 1.0000
54.9800 877.0000 1.0000
54.9900 910.0000 1.0000
55.0000 887.0000 1.0000
55.0100 889.0000 1.0000
55.0200 910.0000 1.0000
55.0300 921.0000 1.0000
55.0400 922.0000 1.0000
55.0500 929.0000 1.0000
55.0600 933.0000 1.0000
55.0700 954.0000 1.0000
55.0800 1002.0000 1.0000
55.0900 962.0000 1.0000
55.1000 950.0000 1.0000
55.1100 976.0000 1.0000
55.1200 989.0000 1.0000
55.1300 1036.0000 1.0000
55.1400 1075.0000 1.0000
55.1500 1129.0000 1.0000
55.1600 1152.0000 1.0000
55.1700 1113.0000 1.0000
55.1800 1112.0000 1.0000
55.1900 1110.0000 1.0000
55.2000 1138.0000 1.0000
55.2100 1138.0000 1.0000
55.2200 1228.0000 1.0000
55.2300 1201.0000 1.0000
55.2400 1157.0000 1.0000
55.2500 1245.0000 1.0000
55.2600 1174.0000 1.0000
55.2700 1181.0000 1.0000
55.2800 1188.0000 1.0000
55.2900 1199.0000 1.0000
55.3000 1181.0000 1.0000
55.3100 1180.0000 1.0000
55.3200 1213.0000 1.0000
55.3300 1173.0000 1.0000
55.3400 1157.0000 1.0000
55.3500 1137.0000 1.0000
55.3600 1114.0000 1.0000
55.3700 1083.0000 1.0000
55.3800 1074.0000 1.0000
55.3900 1125.0000 1.0000
55.4000 1145.0000 1.0000
55.4100 1091.0000 1.0000
55.4200 1058.0000 1.0000
55.4300 1040.0000 1.0000
55.4400 982.0000 1.0000
55.4500 983.0000 1.0000
55.4600 1037.0000 1.0000
55.4700 973.0000 1.0000
55.4800 981.0000 1.0000
55.4900 945.0000 1.0000
55.5000 965.0000 1.0000
55.5100 928.0000 1.0000
55.5200 944.0000 1.0000
55.5300 940.0000 1.0000
55.5400 905.0000 1.0000
55.5500 882.0000 1.0000
55.5600 905.0000 1.0000
55.5700 918.0000 1.0000
55.5800 922.0000 1.0000
55.5900 879.0000 1.0000
55.6000 868.0000 1.0000
55.6100 805.0000 1.0000
55.6200 881.0000 1.0000
55.6300 890.0000 1.0000
55.6400 867.0000 1.0000
55.6500 787.0000 1.0000
55.6600 841.0000 1.0000
55.6700 883.0000 1.0000
55.6800 810.0000 1.0000
55.6900 860.0000 1.0000
55.7000 853.0000 1.0000
55.7100 813.0000 1.0000
55.7200 810.0000 1.0000
55.7300 881.0000 1.0000
55.7400 819.0000 1.0000
55.7500 808.0000 1.0000
55.7600 820.0000 1.0000
55.7700 816.0000 1.0000
55.7800 831.0000 1.0000
55.7900 806.0000 1.0000
55.8000 826.0000 1.0000
55.8100 838.0000 1.0000
55.8200 745.0000 1.0000
55.8300 794.0000 1.0000
55.8400 780.0000 1.0000
55.8500 789.0000 1.0000
55.8600 844.0000 1.0000
55.8700 829.0000 1.0000
55.8800 800.0000 1.0000
55.8900 779.0000 1.0000
55.9000 753.0000 1.0000
55.9100 749.0000 1.0000
55.9200 789.0000 1.0000
55.9300 801.0000 1.0000
55.9400 802.0000 1.0000
55.9500 722.0000 1.0000
55.9600 781.0000 1.0000
55.9700 773.0000 1.0000
55.9800 788.0000 1.0000
55.9900 795.0000 1.0000
56.0000 807.0000 1.0000
56.0100 759.0000 1.0000
56.0200 759.0000 1.0000
56.0300 790.0000 1.0000
56.0400 801.0000 1.0000
56.0500 794.0000 1.0000
56.0600 772.0000 1.0000
56.0700 812.0000 1.0000
56.0800 833.0000 1.0000
56.0900 816.0000 1.0000
56.1000 835.0000 1.0000
56.1100 778.0000 1.0000
56.1200 787.0000 1.0000
56.1300 762.0000 1.0000
56.1400 788.0000 1.0000
56.1500 748.0000 1.0000
56.1600 823.0000 1.0000
56.1700 778.0000 1.0000
56.1800 752.0000 1.0000
56.1900 789.0000 1.0000
56.2000 779.0000 1.0000
56.2100 760.0000 1.0000
56.2200 783.0000 1.0000
56.2300 740.0000 1.0000
56.2400 773.0000 1.0000
56.2500 787.0000 1.0000
56.2600 721.0000 1.0000
56.2700 767.0000 1.0000
56.2800 780.0000 1.0000
56.2900 762.0000 1.0000
56.3000 780.0000 1.0000
56.3100 734.0000 1.0000
56.3200 783.0000 1.0000
56.3300 737.0000 1.0000
56.3400 819.0000 1.0000
56.3500 814.0000 1.0000
56.3600 762.0000 1.0000
56.3700 777.0000 1.0000
56.3800 725.0000 1.0000
56.3900 719.0000 1.0000
56.4000 753.0000 1.0000
56.4100 784.0000 1.0000
56.4200 806.0000 1.0000
56.4300 743.0000 1.0000
56.4400 790.0000 1.0000
56.4500 754.0000 1.0000
56.4600 742.0000 1.0000
56.4700 766.0000 1.0000
56.4800 746.0000 1.0000
56.4900 782.0000 1.0000
56.5000 711.0000 1.0000
56.5100 763.0000 1.0000
56.5200 783.0000 1.0000
56.5300 764.0000 1.0000
56.5400 798.0000 1.0000
56.5500 760.0000 1.0000
56.5600 727.0000 1.0000
56.5700 739.0000 1.0000
56.5800 796.0000 1.0000
56.5900 761.0000 1.0000
56.6000 778.0000 1.0000
56.6100 771.0000 1.0000
56.6200 746.0000 1.0000
56.6300 785.0000 1.0000
56.6400 800.0000 1.0000
56.6500 782.0000 1.0000
56.6600 776.0000 1.0000
56.6700 781.0000 1.0000
56.6800 772.0000 1.0000
56.6900 733.0000 1.0000
56.7000 773.0000 1.0000
56.7100 778.0000 1.0000
56.7200 735.0000 1.0000
56.7300 800.0000 1.0000
56.7400 829.0000 1.0000
56.7500 788.0000 1.0000
56.7600 791.0000 1.0000
56.7700 752.0000 1.0000
56.7800 767.0000 1.0000
56.7900 740.0000 1.0000
56.8000 728.0000 1.0000
56.8100 734.0000 1.0000
56.8200 816.0000 1.0000
56.8300 779.0000 1.0000
56.8400 796.0000 1.0000
56.8500 788.0000 1.0000
56.8600 771.0000 1.0000
56.8700 778.0000 1.0000
56.8800 769.0000 1.0000
56.8900 793.0000 1.0000
56.9000 749.0000 1.0000
56.9100 789.0000 1.0000
56.9200 762.0000 1.0000
56.9300 776.0000 1.0000
56.9400 804.0000 1.0000
56.9500 781.0000 1.0000
56.9600 768.0000 1.0000
56.9700 789.0000 1.0000
56.9800 773.0000 1.0000
56.9900 753.0000 1.0000
57.0000 816.0000 1.0000
57.0100 774.0000 1.0000
57.0200 751.0000 1.0000
57.0300 720.0000 1.0000
57.0400 762.0000 1.0000
57.0500 753.0000 1.0000
57.0600 759.0000 1.0000
57.0700 760.0000 1.0000
57.0800 772.0000 1.0000
57.0900 769.0000 1.0000
57.1000 711.0000 1.0000
57.1100 763.0000 1.0000
57.1200 810.0000 1.0000
57.1300 808.0000 1.0000
57.1400 782.0000 1.0000
57.1500 769.0000 1.0000
57.1600 732.0000 1.0000
57.1700 755.0000 1.0000
57.1800 761.0000 1.0000
57.1900 759.0000 1.0000
57.2000 818.0000 1.0000
57.2100 793.0000 1.0000
57.2200 760.0000 1.0000
57.2300 788.0000 1.0000
57.2400 758.0000 1.0000
57.2500 790.0000 1.0000
57.2600 755.0000 1.0000
57.2700 781.0000 1.0000
57.2800 791.0000 1.0000
57.2900 768.0000 1.0000
57.3000 784.0000 1.0000
57.3100 749.0000 1.0000
57.3200 790.0000 1.0000
57.3300 746.0000 1.0000
57.3400 717.0000 1.0000
57.3500 751.0000 1.0000
57.3600 766.0000 1.0000
57.3700 772.0000 1.0000
57.3800 765.0000 1.0000
57.3900 781.0000 1.0000
57.4000 761.0000 1.0000
57.4100 775.0000 1.0000
57.4200 750.0000 1.0000
57.4300 716.0000 1.0000
57.4400 754.0000 1.0000
57.4500 789.0000 1.0000
57.4600 758.0000 1.0000
57.4700 745.0000 1.0000
57.4800 774.0000 1.0000
57.4900 746.0000 1.0000
57.5000 711.0000 1.0000
57.5100 790.0000 1.0000
57.5200 760.0000 1.0000
57.5300 777.0000 1.0000
57.5400 785.0000 1.0000
57.5500 768.0000 1.0000
57.5600 745.0000 1.0000
57.5700 770.0000 1.0000
57.5800 798.0000 1.0000
57.5900 778.0000 1.0000
57.6000 802.0000 1.0000
57.6100 758.0000 1.0000
57.6200 806.0000 1.0000
57.6300 754.0000 1.0000
57.6400 739.0000 1.0000
57.6500 825.0000 1.0000
57.6600 761.0000 1.0000
57.6700 768.0000 1.0000
57.6800 768.0000 1.0000
57.6900 733.0000 1.0000
57.7000 787.0000 1.0000
57.7100 753.0000 1.0000
57.7200 796.0000 1.0000
57.7300 816.0000 1.0000
57.7400 789.0000 1.0000
57.7500 699.0000 1.0000
57.7600 768.0000 1.0000
57.7700 751.0000 1.0000
57.7800 736.0000 1.0000
57.7900 734.0000 1.0000
57.8000 823.0000 1.0000
57.8100 766.0000 1.0000
57.8200 743.0000 1.0000
57.8300 762.0000 1.0000
57.8400 750.0000 1.0000
57.8500 747.0000 1.0000
57.8600 763.0000 1.0000
57.8700 784.0000 1.0000
57.8800 770.0000 1.0000
57.8900 817.0000 1.0000
57.9000 752.0000 1.0000
57.9100 769.0000 1.0000
57.9200 787.0000 1.0000
57.9300 776.0000 1.0000
57.9400 808.0000 1.0000
57.9500 776.0000 1.0000
57.9600 748.0000 1.0000
57.9700 743.0000 1.0000
57.9800 778.0000 1.0000
57.9900 770.0000 1.0000
58.0000 805.0000 1.0000
58.0100 754.0000 1.0000
58.0200 771.0000 1.0000
58.0300 771.0000 1.0000
58.0400 788.0000 1.0000
58.0500 809.0000 1.0000
58.0600 770.0000 1.0000
58.0700 755.0000 1.0000
58.0800 770.0000 1.0000
58.0900 791.0000 1.0000
58.1000 771.0000 1.0000
58.1100 781.0000 1.0000
58.1200 762.0000 1.0000
58.1300 820.0000 1.0000
58.1400 788.0000 1.0000
58.1500 824.0000 1.0000
58.1600 773.0000 1.0000
58.1700 819.0000 1.0000
58.1800 815.0000 1.0000
58.1900 793.0000 1.0000
58.2000 750.0000 1.0000
58.2100 785.0000 1.0000
58.2200 810.0000 1.0000
58.2300 744.0000 1.0000
58.2400 805.0000 1.0000
58.2500 828.0000 1.0000
58.2600 750.0000 1.0000
58.2700 768.0000 1.0000
58.2800 746.0000 1.0000
58.2900 766.0000 1.0000
58.3000 744.0000 1.0000
58.3100 768.0000 1.0000
58.3200 773.0000 1.0000
58.3300 780.0000 1.0000
58.3400 752.0000 1.0000
58.3500 792.0000 1.0000
58.3600 848.0000 1.0000
58.3700 764.0000 1.0000
58.3800 792.0000 1.0000
58.3900 773.0000 1.0000
58.4000 837.0000 1.0000
58.4100 779.0000 1.0000
58.4200 788.0000 1.0000
58.4300 792.0000 1.0000
58.4400 781.0000 1.0000
58.4500 762.0000 1.0000
58.4600 756.0000 1.0000
58.4700 773.0000 1.0000
58.4800 760.0000 1.0000
58.4900 785.0000 1.0000
58.5000 790.0000 1.0000
58.5100 774.0000 1.0000
58.5200 746.0000 1.0000
58.5300 739.0000 1.0000
58.5400 725.0000 1.0000
58.5500 751.0000 1.0000
58.5600 754.0000 1.0000
58.5700 764.0000 1.0000
58.5800 727.0000 1.0000
58.5900 745.0000 1.0000
58.6000 738.0000 1.0000
58.6100 791.0000 1.0000
58.6200 779.0000 1.0000
58.6300 791.0000 1.0000
58.6400 794.0000 1.0000
58.6500 765.0000 1.0000
58.6600 764.0000 1.0000
58.6700 800.0000 1.0000
58.6800 753.0000 1.0000
58.6900 802.0000 1.0000
58.7000 722.0000 1.0000
58.7100 745.0000 1.0000
58.7200 760.0000 1.0000
58.7300 776.0000 1.0000
58.7400 771.0000 1.0000
58.7500 735.0000 1.0000
58.7600 800.0000 1.0000
58.7700 781.0000 1.0000
58.7800 775.0000 1.0000
58.7900 788.0000 1.0000
58.8000 737.0000 1.0000
58.8100 745.0000 1.0000
58.8200 755.0000 1.0000
58.8300 798.0000 1.0000
58.8400 810.0000 1.0000
58.8500 805.0000 1.0000
58.8600 816.0000 1.0000
58.8700 748.0000 1.0000
58.8800 773.0000 1.0000
58.8900 817.0000 1.0000
58.9000 828.0000 1.0000
58.9100 747.0000 1.0000
58.9200 760.0000 1.0000
58.9300 779.0000 1.0000
58.9400 778.0000 1.0000
58.9500 745.0000 1.0000
58.9600 801.0000 1.0000
58.9700 757.0000 1.0000
58.9800 772.0000 1.0000
58.9900 743.0000 1.0000
59.0000 753.0000 1.0000
59.0100 770.0000 1.0000
59.0200 721.0000 1.0000
59.0300 781.0000 1.0000
59.0400 795.0000 1.0000
59.0500 794.0000 1.0000
59.0600 818.0000 1.0000
59.0700 755.0000 1.0000
59.0800 781.0000 1.0000
59.0900 774.0000 1.0000
59.1000 764.0000 1.0000
59.1100 791.0000 1.0000
59.1200 750.0000 1.0000
59.1300 707.0000 1.0000
59.1400 755.0000 1.0000
59.1500 798.0000 1.0000
59.1600 749.0000 1.0000
59.1700 767.0000 1.0000
59.1800 759.0000 1.0000
59.1900 744.0000 1.0000
59.2000 774.0000 1.0000
59.2100 786.0000 1.0000
59.2200 731.0000 1.0000
59.2300 775.0000 1.0000
59.2400 776.0000 1.0000
59.2500 781.0000 1.0000
59.2600 818.0000 1.0000
59.2700 724.0000 1.0000
59.2800 749.0000 1.0000
59.2900 766.0000 1.0000
59.3000 780.0000 1.0000
59.3100 777.0000 1.0000
59.3200 791.0000 1.0000
59.3300 803.0000 1.0000
59.3400 724.0000 1.0000
59.3500 738.0000 1.0000
59.3600 738.0000 1.0000
59.3700 724.0000 1.0000
59.3800 778.0000 1.0000
59.3900 766.0000 1.0000
59.4000 714.0000 1.0000
59.4100 755.0000 1.0000
59.4200 748.0000 1.0000
59.4300 784.0000 1.0000
59.4400 773.0000 1.0000
59.4500 777.0000 1.0000
59.4600 729.0000 1.0000
59.4700 754.0000 1.0000
59.4800 766.0000 1.0000
59.4900 732.0000 1.0000
59.5000 780.0000 1.0000
59.5100 743.0000 1.0000
59.5200 809.0000 1.0000
59.5300 737.0000 1.0000
59.5400 775.0000 1.0000
59.5500 774.0000 1.0000
59.5600 754.0000 1.0000
59.5700 767.0000 1.0000
59.5800 752.0000 1.0000
59.5900 700.0000 1.0000
59.6000 776.0000 1.0000
59.6100 813.0000 1.0000
59.6200 779.0000 1.0000
59.6300 772.0000 1.0000
59.6400 763.0000 1.0000
59.6500 765.0000 1.0000
59.6600 716.0000 1.0000
59.6700 776.0000 1.0000
59.6800 762.0000 1.0000
59.6900 740.0000 1.0000
59.7000 742.0000 1.0000
59.7100 788.0000 1.0000
59.7200 802.0000 1.0000
59.7300 814.0000 1.0000
59.7400 718.0000 1.0000
59.7500 752.0000 1.0000
59.7600 746.0000 1.0000
59.7700 745.0000 1.0000
59.7800 794.0000 1.0000
59.7900 739.0000 1.0000
59.8000 794.0000 1.0000
59.8100 786.0000 1.0000
59.8200 752.0000 1.0000
59.8300 791.0000 1.0000
59.8400 755.0000 1.0000
59.8500 738.0000 1.0000
59.8600 809.0000 1.0000
59.8700 788.0000 1.0000
59.8800 776.0000 1.0000
59.8900 769.0000 1.0000
59.9000 776.0000 1.0000
59.9100 753.0000 1.0000
59.9200 792.0000 1.0000
59.9300 766.0000 1.0000
59.9400 765.0000 1.0000
59.9500 774.0000 1.0000
59.9600 778.0000 1.0000
59.9700 795.0000 1.0000
59.9800 746.0000 1.0000
59.9900 735.0000 1.0000
60.0000 732.0000 1.0000
60.0100 752.0000 1.0000
60.0200 768.0000 1.0000
60.0300 800.0000 1.0000
60.0400 773.0000 1.0000
60.0500 761.0000 1.0000
60.0600 770.0000 1.0000
60.0700 771.0000 1.0000
60.0800 762.0000 1.0000
60.0900 749.0000 1.0000
60.1000 728.0000 1.0000
60.1100 772.0000 1.0000
60.1200 742.0000 1.0000
60.1300 741.0000 1.0000
60.1400 755.0000 1.0000
60.1500 772.0000 1.0000
60.1600 825.0000 1.0000
60.1700 828.0000 1.0000
60.1800 829.0000 1.0000
60.1900 790.0000 1.0000
60.2000 735.0000 1.0000
60.2100 729.0000 1.0000
60.2200 758.0000 1.0000
60.2300 797.0000 1.0000
60.2400 753.0000 1.0000
60.2500 768.0000 1.0000
60.2600 743.0000 1.0000
60.2700 748.0000 1.0000
60.2800 800.0000 1.0000
60.2900 775.0000 1.0000
60.3000 745.0000 1.0000
60.3100 756.0000 1.0000
60.3200 756.0000 1.0000
60.3300 786.0000 1.0000
60.3400 793.0000 1.0000
60.3500 763.0000 1.0000
60.3600 763.0000 1.0000
60.3700 736.0000 1.0000
60.3800 755.0000 1.0000
60.3900 754.0000 1.0000
60.4000 799.0000 1.0000
60.4100 742.0000 1.0000
60.4200 771.0000 1.0000
60.4300 775.0000 1.0000
60.4400 772.0000 1.0000
60.4500 757.0000 1.0000
60.4600 806.0000 1.0000
60.4700 788.0000 1.0000
60.4800 788.0000 1.0000
60.4900 706.0000 1.0000
60.5000 782.0000 1.0000
60.5100 745.0000 1.0000
60.5200 779.0000 1.0000
60.5300 786.0000 1.0000
60.5400 776.0000 1.0000
60.5500 770.0000 1.0000
60.5600 755.0000 1.0000
60.5700 759.0000 1.0000
60.5800 748.0000 1.0000
60.5900 778.0000 1.0000
60.6000 757.0000 1.0000
60.6100 750.0000 1.0000
60.6200 760.0000 1.0000
60.6300 767.0000 1.0000
60.6400 764.0000 1.0000
60.6500 740.0000 1.0000
60.6600 711.0000 1.0000
60.6700 761.0000 1.0000
60.6800 739.0000 1.0000
60.6900 731.0000 1.0000
60.7000 805.0000 1.0000
60.7100 735.0000 1.0000
60.7200 768.0000 1.0000
60.7300 785.0000 1.0000
60.7400 763.0000 1.0000
60.7500 736.0000 1.0000
60.7600 794.0000 1.0000
60.7700 713.0000 1.0000
60.7800 716.0000 1.0000
60.7900 772.0000 1.0000
60.8000 781.0000 1.0000
60.8100 737.0000 1.0000
60.8200 742.0000 1.0000
60.8300 713.0000 1.0000
60.8400 759.0000 1.0000
60.8500 705.0000 1.0000
60.8600 750.0000 1.0000
60.8700 745.0000 1.0000
60.8800 805.0000 1.0000
60.8900 757.0000 1.0000
60.9000 787.0000 1.0000
60.9100 792.0000 1.0000
60.9200 761.0000 1.0000
60.9300 784.0000 1.0000
60.9400 782.0000 1.0000
60.9500 728.0000 1.0000
60.9600 770.0000 1.0000
60.9700 776.0000 1.0000
60.9800 775.0000 1.0000
60.9900 825.0000 1.0000
61.0000 782.0000 1.0000
61.0100 725.0000 1.0000
61.0200 774.0000 1.0000
61.0300 784.0000 1.0000
61.0400 729.0000 1.0000
61.0500 749.0000 1.0000
61.0600 740.0000 1.0000
61.0700 726.0000 1.0000
61.0800 741.0000 1.0000
61.0900 755.0000 1.0000
61.1000 761.0000 1.0000
61.1100 735.0000 1.0000
61.1200 759.0000 1.0000
61.1300 746.0000 1.0000
61.1400 753.0000 1.0000
61.1500 778.0000 1.0000
61.1600 763.0000 1.0000
61.1700 725.0000 1.0000
61.1800 737.0000 1.0000
61.1900 836.0000 1.0000
61.2000 794.0000 1.0000
61.2100 750.0000 1.0000
61.2200 765.0000 1.0000
61.2300 765.0000 1.0000
61.2400 749.0000 1.0000
61.2500 787.0000 1.0000
61.2600 776.0000 1.0000
61.2700 762.0000 1.0000
61.2800 744.0000 1.0000
61.2900 748.0000 1.0000
61.3000 772.0000 1.0000
61.3100 753.0000 1.0000
61.3200 763.0000 1.0000
61.3300 786.0000 1.0000
61.3400 760.0000 1.0000
61.3500 730.0000 1.0000
61.3600 783.0000 1.0000
61.3700 816.0000 1.0000
61.3800 797.0000 1.0000
61.3900 773.0000 1.0000
61.4000 748.0000 1.0000
61.4100 803.0000 1.0000
61.4200 783.0000 1.0000
61.4300 773.0000 1.0000
61.4400 759.0000 1.0000
61.4500 750.0000 1.0000
61.4600 739.0000 1.0000
61.4700 761.0000 1.0000
61.4800 792.0000 1.0000
61.4900 794.0000 1.0000
61.5000 803.0000 1.0000
61.5100 811.0000 1.0000
61.5200 774.0000 1.0000
61.5300 816.0000 1.0000
61.5400 800.0000 1.0000
61.5500 748.0000 1.0000
61.5600 765.0000 1.0000
61.5700 794.0000 1.0000
61.5800 800.0000 1.0000
61.5900 782.0000 1.0000
61.6000 767.0000 1.0000
61.6100 741.0000 1.0000
61.6200 790.0000 1.0000
61.6300 790.0000 1.0000
61.6400 838.0000 1.0000
61.6500 790.0000 1.0000
61.6600 761.0000 1.0000
61.6700 786.0000 1.0000
61.6800 789.0000 1.0000
61.6900 822.0000 1.0000
61.7000 793.0000 1.0000
61.7100 838.0000 1.0000
61.7200 797.0000 1.0000
61.7300 848.0000 1.0000
61.7400 821.0000 1.0000
61.7500 857.0000 1.0000
61.7600 841.0000 1.0000
61.7700 816.0000 1.0000
61.7800 837.0000 1.0000
61.7900 892.0000 1.0000
61.8000 846.0000 1.0000
61.8100 813.0000 1.0000
61.8200 848.0000 1.0000
61.8300 855.0000 1.0000
61.8400 881.0000 1.0000
61.8500 873.0000 1.0000
61.8600 910.0000 1.0000
61.8700 897.0000 1.0000
61.8800 923.0000 1.0000
61.8900 917.0000 1.0000
61.9000 938.0000 1.0000
61.9100 898.0000 1.0000
61.9200 967.0000 1.0000
61.9300 934.0000 1.0000
61.9400 969.0000 1.0000
61.9500 951.0000 1.0000
61.9600 967.0000 1.0000
61.9700 1026.0000 1.0000
61.9800 925.0000 1.0000
61.9900 1064.0000 1.0000
62.0000 1000.0000 1.0000
62.0100 1068.0000 1.0000
62.0200 1077.0000 1.0000
62.0300 1079.0000 1.0000
62.0400 1141.0000 1.0000
62.0500 1196.0000 1.0000
62.0600 1200.0000 1.0000
62.0700 1192.0000 1.0000
62.0800 1220.0000 1.0000
62.0900 1227.0000 1.0000
62.1000 1312.0000 1.0000
62.1100 1305.0000 1.0000
62.1200 1423.0000 1.0000
62.1300 1397.0000 1.0000
62.1400 1431.0000 1.0000
62.1500 1478.0000 1.0000
62.1600 1523.0000 1.0000
62.1700 1630.0000 1.0000
62.1800 1633.0000 1.0000
62.1900 1669.0000 1.0000
62.2000 1690.0000 1.0000
62.2100 1681.0000 1.0000
62.2200 1715.0000 1.0000
62.2300 1728.0000 1.0000
62.2400 1796.0000 1.0000
62.2500 1704.0000 1.0000
62.2600 1822.0000 1.0000
62.2700 1791.0000 1.0000
62.2800 1838.0000 1.0000
62.2900 1816.0000 1.0000
62.3000 1788.0000 1.0000
62.3100 1814.0000 1.0000
62.3200 1755.0000 1.0000
62.3300 1761.0000 1.0000
62.3400 1753.0000 1.0000
62.3500 1773.0000 1.0000
62.3600 1725.0000 1.0000
62.3700 1647.0000 1.0000
62.3800 1676.0000 1.0000
62.3900 1672.0000 1.0000
62.4000 1663.0000 1.0000
62.4100 1649.0000 1.0000
62.4200 1570.0000 1.0000
62.4300 1536.0000 1.0000
62.4400 1507.0000 1.0000
62.4500 1475.0000 1.0000
62.4600 1446.0000 1.0000
62.4700 1462.0000 1.0000
62.4800 1395.0000 1.0000
62.4900 1395.0000 1.0000
62.5000 1345.0000 1.0000
62.5100 1305.0000 1.0000
62.5200 1302.0000 1.0000
62.5300 1173.0000 1.0000
62.5400 1140.0000 1.0000
62.5500 1121.0000 1.0000
62.5600 1134.0000 1.0000
62.5700 1146.0000 1.0000
62.5800 1132.0000 1.0000
62.5900 1147.0000 1.0000
62.6000 1120.0000 1.0000
62.6100 1059.0000 1.0000
62.6200 1015.0000 1.0000
62.6300 1090.0000 1.0000
62.6400 1040.0000 1.0000
62.6500 1024.0000 1.0000
62.6600 961.0000 1.0000
62.6700 1012.0000 1.0000
62.6800 971.0000 1.0000
62.6900 966.0000 1.0000
62.7000 947.0000 1.0000
62.7100 942.0000 1.0000
62.7200 960.0000 1.0000
62.7300 1004.0000 1.0000
62.7400 946.0000 1.0000
62.7500 936.0000 1.0000
62.7600 914.0000 1.0000
62.7700 893.0000 1.0000
62.7800 930.0000 1.0000
62.7900 846.0000 1.0000
62.8000 849.0000 1.0000
62.8100 901.0000 1.0000
62.8200 874.0000 1.0000
62.8300 859.0000 1.0000
62.8400 863.0000 1.0000
62.8500 855.0000 1.0000
62.8600 857.0000 1.0000
62.8700 842.0000 1.0000
62.8800 815.0000 1.0000
62.8900 851.0000 1.0000
62.9000 853.0000 1.0000
62.9100 869.0000 1.0000
62.9200 915.0000 1.0000
62.9300 853.0000 1.0000
62.9400 826.0000 1.0000
62.9500 841.0000 1.0000
62.9600 797.0000 1.0000
62.9700 829.0000 1.0000
62.9800 809.0000 1.0000
62.9900 822.0000 1.0000
63.0000 802.0000 1.0000
63.0100 837.0000 1.0000
63.0200 826.0000 1.0000
63.0300 868.0000 1.0000
63.0400 857.0000 1.0000
63.0500 893.0000 1.0000
63.0600 890.0000 1.0000
63.0700 812.0000 1.0000
63.0800 877.0000 1.0000
63.0900 840.0000 1.0000
63.1000 791.0000 1.0000
63.1100 811.0000 1.0000
63.1200 798.0000 1.0000
63.1300 816.0000 1.0000
63.1400 829.0000 1.0000
63.1500 776.0000 1.0000
63.1600 823.0000 1.0000
63.1700 812.0000 1.0000
63.1800 851.0000 1.0000
63.1900 783.0000 1.0000
63.2000 814.0000 1.0000
63.2100 811.0000 1.0000
63.2200 816.0000 1.0000
63.2300 821.0000 1.0000
63.2400 781.0000 1.0000
63.2500 777.0000 1.0000
63.2600 810.0000 1.0000
63.2700 801.0000 1.0000
63.2800 759.0000 1.0000
63.2900 791.0000 1.0000
63.3000 800.0000 1.0000
63.3100 824.0000 1.0000
63.3200 766.0000 1.0000
63.3300 787.0000 1.0000
63.3400 805.0000 1.0000
63.3500 766.0000 1.0000
63.3600 764.0000 1.0000
63.3700 798.0000 1.0000
63.3800 783.0000 1.0000
63.3900 786.0000 1.0000
63.4000 758.0000 1.0000
63.4100 761.0000 1.0000
63.4200 806.0000 1.0000
63.4300 812.0000 1.0000
63.4400 820.0000 1.0000
63.4500 751.0000 1.0000
63.4600 791.0000 1.0000
63.4700 778.0000 1.0000
63.4800 753.0000 1.0000
63.4900 780.0000 1.0000
63.5000 741.0000 1.0000
63.5100 742.0000 1.0000
63.5200 766.0000 1.0000
63.5300 781.0000 1.0000
63.5400 805.0000 1.0000
63.5500 741.0000 1.0000
63.5600 732.0000 1.0000
63.5700 794.0000 1.0000
63.5800 756.0000 1.0000
63.5900 777.0000 1.0000
63.6000 790.0000 1.0000
63.6100 773.0000 1.0000
63.6200 793.0000 1.0000
63.6300 799.0000 1.0000
63.6400 802.0000 1.0000
63.6500 781.0000 1.0000
63.6600 753.0000 1.0000
63.6700 785.0000 1.0000
63.6800 824.0000 1.0000
63.6900 783.0000 1.0000
63.7000 801.0000 1.0000
63.7100 757.0000 1.0000
63.7200 758.0000 1.0000
63.7300 764.0000 1.0000
63.7400 799.0000 1.0000
63.7500 765.0000 1.0000
63.7600 820.0000 1.0000
63.7700 780.0000 1.0000
63.7800 754.0000 1.0000
63.7900 738.0000 1.0000
63.8000 766.0000 1.0000
63.8100 784.0000 1.0000
63.8200 758.0000 1.0000
63.8300 816.0000 1.0000
63.8400 807.0000 1.0000
63.8500 752.0000 1.0000
63.8600 763.0000 1.0000
63.8700 706.0000 1.0000
63.8800 785.0000 1.0000
63.8900 796.0000 1.0000
63.9000 797.0000 1.0000
63.9100 753.0000 1.0000
63.9200 780.0000 1.0000
63.9300 771.0000 1.0000
63.9400 769.0000 1.0000
63.9500 737.0000 1.0000
63.9600 772.0000 1.0000
63.9700 793.0000 1.0000
63.9800 738.0000 1.0000
63.9900 760.0000 1.0000
64.0000 777.0000 1.0000
64.0100 745.0000 1.0000
64.0200 781.0000 1.0000
64.0300 763.0000 1.0000
64.0400 757.0000 1.0000
64.0500 739.0000 1.0000
64.0600 770.0000 1.0000
64.0700 778.0000 1.0000
64.0800 767.0000 1.0000
64.0900 787.0000 1.0000
64.1000 784.0000 1.0000
64.1100 779.0000 1.0000
64.1200 775.0000 1.0000
64.1300 760.0000 1.0000
64.1400 824.0000 1.0000
64.1500 758.0000 1.0000
64.1600 788.0000 1.0000
64.1700 800.0000 1.0000
64.1800 787.0000 1.0000
64.1900 793.0000 1.0000
64.2000 802.0000 1.0000
64.2100 857.0000 1.0000
64.2200 814.0000 1.0000
64.2300 833.0000 1.0000
64.2400 787.0000 1.0000
64.2500 788.0000 1.0000
64.2600 795.0000 1.0000
64.2700 804.0000 1.0000
64.2800 785.0000 1.0000
64.2900 759.0000 1.0000
64.3000 841.0000 1.0000
64.3100 833.0000 1.0000
64.3200 808.0000 1.0000
64.3300 818.0000 1.0000
64.3400 854.0000 1.0000
64.3500 785.0000 1.0000
64.3600 841.0000 1.0000
64.3700 830.0000 1.0000
64.3800 878.0000 1.0000
64.3900 861.0000 1.0000
64.4000 895.0000 1.0000
64.4100 874.0000 1.0000
64.4200 876.0000 1.0000
64.4300 828.0000 1.0000
64.4400 848.0000 1.0000
64.4500 930.0000 1.0000
64.4600 903.0000 1.0000
64.4700 915.0000 1.0000
64.4800 899.0000 1.0000
64.4900 939.0000 1.0000
64.5000 935.0000 1.0000
64.5100 913.0000 1.0000
64.5200 947.0000 1.0000
64.5300 929.0000 1.0000
64.5400 951.0000 1.0000
64.5500 970.0000 1.0000
64.5600 941.0000 1.0000
64.5700 966.0000 1.0000
64.5800 1007.0000 1.0000
64.5900 1012.0000 1.0000
64.6000 1000.0000 1.0000
64.6100 1060.0000 1.0000
64.6200 1028.0000 1.0000
64.6300 1044.0000 1.0000
64.6400 1042.0000 1.0000
64.6500 1023.0000 1.0000
64.6600 1024.0000 1.0000
64.6700 1076.0000 1.0000
64.6800 1050.0000 1.0000
64.6900 1016.0000 1.0000
64.7000 1066.0000 1.0000
64.7100 1069.0000 1.0000
64.7200 987.0000 1.0000
64.7300 1039.0000 1.0000
64.7400 995.0000 1.0000
64.7500 1039.0000 1.0000
64.7600 973.0000 1.0000
64.7700 985.0000 1.0000
64.7800 1008.0000 1.0000
64.7900 987.0000 1.0000
64.8000 1043.0000 1.0000
64.8100 1000.0000 1.0000
64.8200 973.0000 1.0000
64.8300 936.0000 1.0000
64.8400 1028.0000 1.0000
64.8500 1001.0000 1.0000
64.8600 980.0000 1.0000
64.8700 977.0000 1.0000
64.8800 931.0000 1.0000
64.8900 949.0000 1.0000
64.9000 953.0000 1.0000
64.9100 912.0000 1.0000
64.9200 922.0000 1.0000
64.9300 973.0000 1.0000
64.9400 917.0000 1.0000
64.9500 916.0000 1.0000
64.9600 936.0000 1.0000
64.9700 891.0000 1.0000
64.9800 876.0000 1.0000
64.9900 897.0000 1.0000
65.0000 884.0000 1.0000
65.0100 922.0000 1.0000
65.0200 891.0000 1.0000
65.0300 808.0000 1.0000
65.0400 854.0000 1.0000
65.0500 884.0000 1.0000
65.0600 899.0000 1.0000
65.0700 888.0000 1.0000
65.0800 885.0000 1.0000
65.0900 874.0000 1.0000
65.1000 858.0000 1.0000
65.1100 855.0000 1.0000
65.1200 819.0000 1.0000
65.1300 841.0000 1.0000
65.1400 874.0000 1.0000
65.1500 830.0000 1.0000
65.1600 814.0000 1.0000
65.1700 820.0000 1.0000
65.1800 785.0000 1.0000
65.1900 785.0000 1.0000
65.2000 774.0000 1.0000
65.2100 821.0000 1.0000
65.2200 839.0000 1.0000
65.2300 818.0000 1.0000
65.2400 809.0000 1.0000
65.2500 822.0000 1.0000
65.2600 833.0000 1.0000
65.2700 770.0000 1.0000
65.2800 829.0000 1.0000
65.2900 776.0000 1.0000
65.3000 797.0000 1.0000
65.3100 815.0000 1.0000
65.3200 810.0000 1.0000
65.3300 778.0000 1.0000
65.3400 813.0000 1.0000
65.3500 788.0000 1.0000
65.3600 818.0000 1.0000
65.3700 783.0000 1.0000
65.3800 792.0000 1.0000
65.3900 804.0000 1.0000
65.4000 828.0000 1.0000
65.4100 818.0000 1.0000
65.4200 873.0000 1.0000
65.4300 831.0000 1.0000
65.4400 773.0000 1.0000
65.4500 803.0000 1.0000
65.4600 774.0000 1.0000
65.4700 767.0000 1.0000
65.4800 803.0000 1.0000
65.4900 828.0000 1.0000
65.5000 779.0000 1.0000
65.5100 820.0000 1.0000
65.5200 803.0000 1.0000
65.5300 819.0000 1.0000
65.5400 843.0000 1.0000
65.5500 839.0000 1.0000
65.5600 808.0000 1.0000
65.5700 839.0000 1.0000
65.5800 842.0000 1.0000
65.5900 825.0000 1.0000
65.6000 830.0000 1.0000
65.6100 813.0000 1.0000
65.6200 836.0000 1.0000
65.6300 853.0000 1.0000
65.6400 835.0000 1.0000
65.6500 838.0000 1.0000
65.6600 856.0000 1.0000
65.6700 843.0000 1.0000
65.6800 816.0000 1.0000
65.6900 856.0000 1.0000
65.7000 881.0000 1.0000
65.7100 841.0000 1.0000
65.7200 886.0000 1.0000
65.7300 881.0000 1.0000
65.7400 872.0000 1.0000
65.7500 921.0000 1.0000
65.7600 867.0000 1.0000
65.7700 829.0000 1.0000
65.7800 886.0000 1.0000
65.7900 889.0000 1.0000
65.8000 872.0000 1.0000
65.8100 963.0000 1.0000
65.8200 908.0000 1.0000
65.8300 925.0000 1.0000
65.8400 920.0000 1.0000
65.8500 968.0000 1.0000
65.8600 1005.0000 1.0000
65.8700 1017.0000 1.0000
65.8800 1027.0000 1.0000
65.8900 1038.0000 1.0000
65.9000 1047.0000 1.0000
65.9100 1059.0000 1.0000
65.9200 1050.0000 1.0000
65.9300 1110.0000 1.0000
65.9400 1069.0000 1.0000
65.9500 1126.0000 1.0000
65.9600 1137.0000 1.0000
65.9700 1214.0000 1.0000
65.9800 1228.0000 1.0000
65.9900 1248.0000 1.0000
66.0000 1299.0000 1.0000
66.0100 1341.0000 1.0000
66.0200 1360.0000 1.0000
66.0300 1379.0000 1.0000
66.0400 1444.0000 1.0000
66.0500 1510.0000 1.0000
66.0600 1634.0000 1.0000
66.0700 1769.0000 1.0000
66.0800 1721.0000 1.0000
66.0900 1833.0000 1.0000
66.1000 1966.0000 1.0000
66.1100 2058.0000 1.0000
66.1200 2159.0000 1.0000
66.1300 2266.0000 1.0000
66.1400 2342.0000 1.0000
66.1500 2515.0000 1.0000
66.1600 2563.0000 1.0000
66.1700 2692.0000 1.0000
66.1800 2775.0000 1.0000
66.1900 2852.0000 1.0000
66.2000 2846.0000 1.0000
66.2100 2843.0000 1.0000
66.2200 2881.0000 1.0000
66.2300 2798.0000 1.0000
66.2400 2831.0000 1.0000
66.2500 2683.0000 1.0000
66.2600 2779.0000 1.0000
66.2700 2619.0000 1.0000
66.2800 2586.0000 1.0000
66.2900 2593.0000 1.0000
66.3000 2512.0000 1.0000
66.3100 2554.0000 1.0000
66.3200 2457.0000 1.0000
66.3300 2510.0000 1.0000
66.3400 2506.0000 1.0000
66.3500 2384.0000 1.0000
66.3600 2435.0000 1.0000
66.3700 2319.0000 1.0000
66.3800 2267.0000 1.0000
66.3900 2225.0000 1.0000
66.4000 2205.0000 1.0000
66.4100 2031.0000 1.0000
66.4200 2104.0000 1.0000
66.4300 2009.0000 1.0000
66.4400 1886.0000 1.0000
66.4500 1837.0000 1.0000
66.4600 1779.0000 1.0000
66.4700 1725.0000 1.0000
66.4800 1663.0000 1.0000
66.4900 1519.0000 1.0000
66.5000 1551.0000 1.0000
66.5100 1432.0000 1.0000
66.5200 1473.0000 1.0000
66.5300 1403.0000 1.0000
66.5400 1363.0000 1.0000
66.5500 1382.0000 1.0000
66.5600 1253.0000 1.0000
66.5700 1211.0000 1.0000
66.5800 1162.0000 1.0000
66.5900 1186.0000 1.0000
66.6000 1159.0000 1.0000
66.6100 1141.0000 1.0000
66.6200 1116.0000 1.0000
66.6300 1048.0000 1.0000
66.6400 1013.0000 1.0000
66.6500 1012.0000 1.0000
66.6600 964.0000 1.0000
66.6700 1009.0000 1.0000
66.6800 1001.0000 1.0000
66.6900 980.0000 1.0000
66.7000 999.0000 1.0000
66.7100 998.0000 1.0000
66.7200 953.0000 1.0000
66.7300 907.0000 1.0000
66.7400 921.0000 1.0000
66.7500 930.0000 1.0000
66.7600 919.0000 1.0000
66.7700 889.0000 1.0000
66.7800 878.0000 1.0000
66.7900 849.0000 1.0000
66.8000 832.0000 1.0000
66.8100 843.0000 1.0000
66.8200 825.0000 1.0000
66.8300 814.0000 1.0000
66.8400 824.0000 1.0000
66.8500 844.0000 1.0000
66.8600 833.0000 1.0000
66.8700 819.0000 1.0000
66.8800 800.0000 1.0000
66.8900 761.0000 1.0000
66.9000 759.0000 1.0000
66.9100 811.0000 1.0000
66.9200 773.0000 1.0000
66.9300 821.0000 1.0000
66.9400 813.0000 1.0000
66.9500 779.0000 1.0000
66.9600 809.0000 1.0000
66.9700 804.0000 1.0000
66.9800 828.0000 1.0000
66.9900 850.0000 1.0000
67.0000 734.0000 1.0000
67.0100 748.0000 1.0000
67.0200 749.0000 1.0000
67.0300 750.0000 1.0000
67.0400 796.0000 1.0000
67.0500 797.0000 1.0000
67.0600 815.0000 1.0000
67.0700 766.0000 1.0000
67.0800 756.0000 1.0000
67.0900 831.0000 1.0000
67.1000 793.0000 1.0000
67.1100 763.0000 1.0000
67.1200 742.0000 1.0000
67.1300 775.0000 1.0000
67.1400 764.0000 1.0000
67.1500 725.0000 1.0000
67.1600 726.0000 1.0000
67.1700 728.0000 1.0000
67.1800 711.0000 1.0000
67.1900 756.0000 1.0000
67.2000 732.0000 1.0000
67.2100 755.0000 1.0000
67.2200 752.0000 1.0000
67.2300 756.0000 1.0000
67.2400 697.0000 1.0000
67.2500 769.0000 1.0000
67.2600 752.0000 1.0000
67.2700 749.0000 1.0000
67.2800 709.0000 1.0000
67.2900 721.0000 1.0000
67.3000 731.0000 1.0000
67.3100 716.0000 1.0000
67.3200 732.0000 1.0000
67.3300 659.0000 1.0000
67.3400 753.0000 1.0000
67.3500 708.0000 1.0000
67.3600 741.0000 1.0000
67.3700 759.0000 1.0000
67.3800 719.0000 1.0000
67.3900 698.0000 1.0000
67.4000 714.0000 1.0000
67.4100 725.0000 1.0000
67.4200 719.0000 1.0000
67.4300 708.0000 1.0000
67.4400 704.0000 1.0000
67.4500 688.0000 1.0000
67.4600 716.0000 1.0000
67.4700 702.0000 1.0000
67.4800 737.0000 1.0000
67.4900 720.0000 1.0000
67.5000 683.0000 1.0000
67.5100 752.0000 1.0000
67.5200 669.0000 1.0000
67.5300 714.0000 1.0000
67.5400 727.0000 1.0000
67.5500 705.0000 1.0000
67.5600 733.0000 1.0000
67.5700 741.0000 1.0000
67.5800 709.0000 1.0000
67.5900 702.0000 1.0000
67.6000 693.0000 1.0000
67.6100 717.0000 1.0000
67.6200 692.0000 1.0000
67.6300 695.0000 1.0000
67.6400 738.0000 1.0000
67.6500 723.0000 1.0000
67.6600 681.0000 1.0000
67.6700 722.0000 1.0000
67.6800 726.0000 1.0000
67.6900 728.0000 1.0000
67.7000 742.0000 1.0000
67.7100 704.0000 1.0000
67.7200 714.0000 1.0000
67.7300 720.0000 1.0000
67.7400 685.0000 1.0000
67.7500 703.0000 1.0000
67.7600 725.0000 1.0000
67.7700 701.0000 1.0000
67.7800 672.0000 1.0000
67.7900 671.0000 1.0000
67.8000 717.0000 1.0000
67.8100 707.0000 1.0000
67.8200 728.0000 1.0000
67.8300 725.0000 1.0000
67.8400 666.0000 1.0000
67.8500 686.0000 1.0000
67.8600 730.0000 1.0000
67.8700 729.0000 1.0000
67.8800 704.0000 1.0000
67.8900 682.0000 1.0000
67.9000 707.0000 1.0000
67.9100 704.0000 1.0000
67.9200 725.0000 1.0000
67.9300 712.0000 1.0000
67.9400 721.0000 1.0000
67.9500 668.0000 1.0000
67.9600 713.0000 1.0000
67.9700 716.0000 1.0000
67.9800 692.0000 1.0000
67.9900 704.0000 1.0000
68.0000 750.0000 1.0000
68.0100 652.0000 1.0000
68.0200 729.0000 1.0000
68.0300 714.0000 1.0000
68.0400 694.0000 1.0000
68.0500 666.0000 1.0000
68.0600 730.0000 1.0000
68.0700 700.0000 1.0000
68.0800 706.0000 1.0000
68.0900 674.0000 1.0000
68.1000 669.0000 1.0000
68.1100 682.0000 1.0000
68.1200 697.0000 1.0000
68.1300 722.0000 1.0000
68.1400 701.0000 1.0000
68.1500 707.0000 1.0000
68.1600 707.0000 1.0000
68.1700 690.0000 1.0000
68.1800 676.0000 1.0000
68.1900 712.0000 1.0000
68.2000 695.0000 1.0000
68.2100 700.0000 1.0000
68.2200 719.0000 1.0000
68.2300 739.0000 1.0000
68.2400 722.0000 1.0000
68.2500 711.0000 1.0000
68.2600 699.0000 1.0000
68.2700 666.0000 1.0000
68.2800 718.0000 1.0000
68.2900 691.0000 1.0000
68.3000 735.0000 1.0000
68.3100 709.0000 1.0000
68.3200 711.0000 1.0000
68.3300 696.0000 1.0000
68.3400 705.0000 1.0000
68.3500 693.0000 1.0000
68.3600 694.0000 1.0000
68.3700 708.0000 1.0000
68.3800 670.0000 1.0000
68.3900 688.0000 1.0000
68.4000 723.0000 1.0000
68.4100 667.0000 1.0000
68.4200 692.0000 1.0000
68.4300 709.0000 1.0000
68.4400 693.0000 1.0000
68.4500 705.0000 1.0000
68.4600 668.0000 1.0000
68.4700 692.0000 1.0000
68.4800 668.0000 1.0000
68.4900 645.0000 1.0000
68.5000 650.0000 1.0000
68.5100 684.0000 1.0000
68.5200 664.0000 1.0000
68.5300 691.0000 1.0000
68.5400 671.0000 1.0000
68.5500 676.0000 1.0000
68.5600 654.0000 1.0000
68.5700 705.0000 1.0000
68.5800 722.0000 1.0000
68.5900 678.0000 1.0000
68.6000 695.0000 1.0000
68.6100 688.0000 1.0000
68.6200 664.0000 1.0000
68.6300 677.0000 1.0000
68.6400 693.0000 1.0000
68.6500 716.0000 1.0000
68.6600 672.0000 1.0000
68.6700 686.0000 1.0000
68.6800 698.0000 1.0000
68.6900 689.0000 1.0000
68.7000 675.0000 1.0000
68.7100 687.0000 1.0000
68.7200 677.0000 1.0000
68.7300 669.0000 1.0000
68.7400 680.0000 1.0000
68.7500 663.0000 1.0000
68.7600 673.0000 1.0000
68.7700 720.0000 1.0000
68.7800 702.0000 1.0000
68.7900 653.0000 1.0000
68.8000 705.0000 1.0000
68.8100 659.0000 1.0000
68.8200 654.0000 1.0000
68.8300 655.0000 1.0000
68.8400 671.0000 1.0000
68.8500 670.0000 1.0000
68.8600 662.0000 1.0000
68.8700 643.0000 1.0000
68.8800 688.0000 1.0000
68.8900 717.0000 1.0000
68.9000 660.0000 1.0000
68.9100 680.0000 1.0000
68.9200 703.0000 1.0000
68.9300 673.0000 1.0000
68.9400 675.0000 1.0000
68.9500 666.0000 1.0000
68.9600 669.0000 1.0000
68.9700 709.0000 1.0000
68.9800 702.0000 1.0000
68.9900 672.0000 1.0000
69.0000 685.0000 1.0000
69.0100 667.0000 1.0000
69.0200 658.0000 1.0000
69.0300 687.0000 1.0000
69.0400 680.0000 1.0000
69.0500 677.0000 1.0000
69.0600 697.0000 1.0000
69.0700 686.0000 1.0000
69.0800 672.0000 1.0000
69.0900 680.0000 1.0000
69.1000 652.0000 1.0000
69.1100 689.0000 1.0000
69.1200 700.0000 1.0000
69.1300 674.0000 1.0000
69.1400 676.0000 1.0000
69.1500 687.0000 1.0000
69.1600 710.0000 1.0000
69.1700 692.0000 1.0000
69.1800 696.0000 1.0000
69.1900 696.0000 1.0000
69.2000 702.0000 1.0000
69.2100 723.0000 1.0000
69.2200 653.0000 1.0000
69.2300 672.0000 1.0000
69.2400 688.0000 1.0000
69.2500 662.0000 1.0000
69.2600 674.0000 1.0000
69.2700 686.0000 1.0000
69.2800 701.0000 1.0000
69.2900 684.0000 1.0000
69.3000 672.0000 1.0000
69.3100 671.0000 1.0000
69.3200 734.0000 1.0000
69.3300 675.0000 1.0000
69.3400 680.0000 1.0000
69.3500 671.0000 1.0000
69.3600 682.0000 1.0000
69.3700 659.0000 1.0000
69.3800 723.0000 1.0000
69.3900 675.0000 1.0000
69.4000 659.0000 1.0000
69.4100 669.0000 1.0000
69.4200 678.0000 1.0000
69.4300 707.0000 1.0000
69.4400 688.0000 1.0000
69.4500 710.0000 1.0000
69.4600 669.0000 1.0000
69.4700 700.0000 1.0000
69.4800 670.0000 1.0000
69.4900 678.0000 1.0000
69.5000 685.0000 1.0000
69.5100 665.0000 1.0000
69.5200 634.0000 1.0000
69.5300 675.0000 1.0000
69.5400 702.0000 1.0000
69.5500 687.0000 1.0000
69.5600 647.0000 1.0000
69.5700 662.0000 1.0000
69.5800 725.0000 1.0000
69.5900 700.0000 1.0000
69.6000 662.0000 1.0000
69.6100 699.0000 1.0000
69.6200 690.0000 1.0000
69.6300 697.0000 1.0000
69.6400 665.0000 1.0000
69.6500 695.0000 1.0000
69.6600 668.0000 1.0000
69.6700 681.0000 1.0000
69.6800 715.0000 1.0000
69.6900 698.0000 1.0000
69.7000 690.0000 1.0000
69.7100 653.0000 1.0000
69.7200 681.0000 1.0000
69.7300 664.0000 1.0000
69.7400 665.0000 1.0000
69.7500 648.0000 1.0000
69.7600 680.0000 1.0000
69.7700 660.0000 1.0000
69.7800 645.0000 1.0000
69.7900 655.0000 1.0000
69.8000 641.0000 1.0000
69.8100 717.0000 1.0000
69.8200 676.0000 1.0000
69.8300 648.0000 1.0000
69.8400 626.0000 1.0000
69.8500 702.0000 1.0000
69.8600 686.0000 1.0000
69.8700 681.0000 1.0000
69.8800 668.0000 1.0000
69.8900 690.0000 1.0000
69.9000 730.0000 1.0000
69.9100 655.0000 1.0000
69.9200 651.0000 1.0000
69.9300 657.0000 1.0000
69.9400 655.0000 1.0000
69.9500 714.0000 1.0000
69.9600 694.0000 1.0000
69.9700 653.0000 1.0000
69.9800 711.0000 1.0000
69.9900 661.0000 1.0000
70.0000 640.0000 1.0000
*RAS_INT_END
*RAS_TEMPERATURE_START
*RAS_TEMPERATURE_END
*RAS_DATA_END
