*RAS_DATA_START
*RAS_HEADER_START
*DISP_FMT_X "%.2f"
*DISP_FMT_Y "%.0f"
*DISP_FULLSCALE "15742.0000000000"
*DISP_LINE_COLOR "255.0000000000"
*DISP_LINE_STYLE "0.0000000000"
*DISP_LINE_WIDTH "0.2500000000"
*DISP_NOTE "測定データ-13"
*DISP_OFFSET_Y "0.0000000000"
*DISP_PEAKSEARCH_UNIT_Y "cps"
*DISP_RANGE_BOTTOM "0.0000000000"
*DISP_RANGE_LEFT "20.0000000000"
*DISP_RANGE_LOGCUTOFF "0.0100000000"
*DISP_RANGE_RIGHT "70.0000000000"
*DISP_RANGE_TOP "15742.0000000000"
*DISP_SCALE_MODE_Y "0.0000000000"
*DISP_TAB_NAME "2θ/θ"
*DISP_TITLE_Y "強度"
*DISP_UNIT_Y "cps"
*DISP_WINDOW_NAME "MSG_MACROENGINE"
*FILE_COMMENT " "
*FILE_MD5 ""
*FILE_MEMO " "
*FILE_OPERATOR "Administrator"
*FILE_SAMPLE " "
*FILE_TYPE "RAS_RAW"
*FILE_USERGROUP "システムマネージャ"
*FILE_VERSION "1.0000000000"
*HW_ATTACHMENT_ID "ATT0025"
*HW_ATTACHMENT_NAME "標準|Standard"
*HW_COUNTER_ID-0 "CUT0025"
*HW_COUNTER_ID-1 "CUT0020"
*HW_COUNTER_ID-2 "CUT0020"
*HW_COUNTER_ID-3 "CSL0021"
*HW_COUNTER_ID-4 "CMC0021"
*HW_COUNTER_NAME-0 "D/teX Ultra|D/teX Ultra"
*HW_COUNTER_NAME-1 "None|None"
*HW_COUNTER_NAME-2 "None|None"
*HW_COUNTER_NAME-3 "BBM|BBM"
*HW_COUNTER_NAME-4 "検出器モノクロメータ|Detector monochromator"
*HW_COUNTER_SELECT_NAME "D/teX Ultra|D/teX Ultra"
*HW_GONIOMETER_ID "GON0023"
*HW_GONIOMETER_NAME "SmartLab|SmartLab"
*HW_GONIOMETER_RADIUS-0 "90.0"
*HW_GONIOMETER_RADIUS-1 "114.0"
*HW_GONIOMETER_RADIUS-2 "190.0"
*HW_GONIOMETER_RADIUS-3 "300.0"
*HW_GONIOMETER_RADIUS-4 "187.0"
*HW_GONIOMETER_RADIUS-5 "300.0"
*HW_GONIOMETER_RADIUS-6 "113.0"
*HW_GONIOMETER_RADIUS-7 "331.0"
*HW_I_OPT_ID-0 "CBO0021"
*HW_I_OPT_ID-1 "ICR0023"
*HW_I_OPT_ID-2 "ISL0021"
*HW_I_OPT_ID-3 "ISO0021"
*HW_I_OPT_ID-4 "IAD0021"
*HW_I_OPT_ID-5 "IPR0001"
*HW_I_OPT_NAME-0 "CBOユニット|CBO unit"
*HW_I_OPT_NAME-1 "標準入射光学ユニット|Standard incident optical unit"
*HW_I_OPT_NAME-2 "標準入射スリットボックス|Standard incident slit box"
*HW_I_OPT_NAME-3 "入射平行スリット|Incident parallel slit"
*HW_I_OPT_NAME-4 "長手制限スリット|Length limiting slit"
*HW_I_OPT_NAME-5 "None|None"
*HW_R_ATTENUATER_AUTOMODE "0"
*HW_R_OPT_ID-0 "RSS0021"
*HW_R_OPT_ID-1 "RCR0023"
*HW_R_OPT_ID-2 "RSO0021"
*HW_R_OPT_ID-3 "RRS0021"
*HW_R_OPT_ID-4 "ATN0021"
*HW_R_OPT_ID-5 "RFL0021"
*HW_R_OPT_ID-6 "RAD0021"
*HW_R_OPT_NAME-0 "標準受光スリットボックス1|Standard receiving slit box # 1"
*HW_R_OPT_NAME-1 "標準受光光学ユニット1|Standard receiving unit # 1"
*HW_R_OPT_NAME-2 "標準受光光学ユニット2|Standard receiving optical unit # 2"
*HW_R_OPT_NAME-3 "標準受光スリットボックス2|Standard receiving slit box # 2"
*HW_R_OPT_NAME-4 "標準アッテネータ|Standard Attenuator"
*HW_R_OPT_NAME-5 "Cu Kβ|Cu K-beta"
*HW_R_OPT_NAME-6 "調整用受光スリット|Alignment receiving slit"
*HW_SAMPLE_HOLDER_ID "SMP0023"
*HW_SAMPLE_HOLDER_NAME "標準Zステージ|Standard Z stage"
*HW_XG_CURRENT_MAX "50"
*HW_XG_CURRENT_MIN "2"
*HW_XG_CURRENT_RESOLUTION "1"
*HW_XG_CURRENT_UNIT "mA"
*HW_XG_FOCUS "1mm x 10mm"
*HW_XG_FOCUS_TYPE "Normal"
*HW_XG_ID ""
*HW_XG_NAME "3kW 封入管(ID:1200)|3kW Sealed tube(ID:1200)"
*HW_XG_TARGET_ATOMIC_NUMBER "29.0000000000"
*HW_XG_TARGET_NAME "Cu"
*HW_XG_TYPE "Hermetic"
*HW_XG_VOLTAGE_MAX "60"
*HW_XG_VOLTAGE_MIN "20"
*HW_XG_VOLTAGE_RESOLUTION "1"
*HW_XG_VOLTAGE_UNIT "kV"
*HW_XG_WATT_MAX "1.500"
*HW_XG_WATT_UNIT "kW"
*HW_XG_WAVE_LENGTH_ALPHA1 "1.540593"
*HW_XG_WAVE_LENGTH_ALPHA2 "1.544414"
*HW_XG_WAVE_LENGTH_BETA "1.392250"
*MEAS_COND_AXIS_NAME-0 "2θ/θ"
*MEAS_COND_AXIS_NAME-1 "2θ"
*MEAS_COND_AXIS_NAME-2 "ω"
*MEAS_COND_AXIS_NAME-3 "Z"
*MEAS_COND_AXIS_NAME-4 "2θ/ω"
*MEAS_COND_AXIS_NAME-5 "θs"
*MEAS_COND_AXIS_NAME-6 "θd"
*MEAS_COND_AXIS_NAME-7 "Ts"
*MEAS_COND_AXIS_NAME-8 "CBO選択スリット"
*MEAS_COND_AXIS_NAME-9 "M"
*MEAS_COND_AXIS_NAME-10 "入射平行スリット"
*MEAS_COND_AXIS_NAME-11 "入射スリット"
*MEAS_COND_AXIS_NAME-12 ""
*MEAS_COND_AXIS_NAME-13 "Zs"
*MEAS_COND_AXIS_NAME-14 "入射光学素子"
*MEAS_COND_AXIS_NAME-15 "長手制限スリット"
*MEAS_COND_AXIS_NAME-16 "センタースリット"
*MEAS_COND_AXIS_NAME-17 "フィルター"
*MEAS_COND_AXIS_NAME-18 "受光スリット1"
*MEAS_COND_AXIS_NAME-19 "受光スリット2"
*MEAS_COND_AXIS_NAME-20 "受光光学素子"
*MEAS_COND_AXIS_NAME-21 "受光平行スリット"
*MEAS_COND_AXIS_NAME-22 "調整用受光スリット"
*MEAS_COND_AXIS_NAME-23 ""
*MEAS_COND_AXIS_NAME-24 ""
*MEAS_COND_AXIS_NAME-25 "Zd"
*MEAS_COND_AXIS_NAME-26 "アッテネータ"
*MEAS_COND_AXIS_NAME-27 "検出器モノクロメータ"
*MEAS_COND_AXIS_NAME-28 "モノクロメータスリット"
*MEAS_COND_AXIS_NAME-29 "プライマリビーム"
*MEAS_COND_AXIS_NAME-30 "PHA"
*MEAS_COND_AXIS_NAME_INTERNAL-0 "TwoThetaTheta"
*MEAS_COND_AXIS_NAME_INTERNAL-1 "TwoTheta"
*MEAS_COND_AXIS_NAME_INTERNAL-2 "Omega"
*MEAS_COND_AXIS_NAME_INTERNAL-3 "Z"
*MEAS_COND_AXIS_NAME_INTERNAL-4 "TwoThetaOmega"
*MEAS_COND_AXIS_NAME_INTERNAL-5 "ThetaS"
*MEAS_COND_AXIS_NAME_INTERNAL-6 "ThetaD"
*MEAS_COND_AXIS_NAME_INTERNAL-7 "Ts"
*MEAS_COND_AXIS_NAME_INTERNAL-8 "CBO"
*MEAS_COND_AXIS_NAME_INTERNAL-9 "CBO-M"
*MEAS_COND_AXIS_NAME_INTERNAL-10 "IncidentSollerSlit"
*MEAS_COND_AXIS_NAME_INTERNAL-11 "IncidentSlitBox"
*MEAS_COND_AXIS_NAME_INTERNAL-12 "IncidentSlitBox-_Axis"
*MEAS_COND_AXIS_NAME_INTERNAL-13 "Zs"
*MEAS_COND_AXIS_NAME_INTERNAL-14 "IncidentMonochromator"
*MEAS_COND_AXIS_NAME_INTERNAL-15 "IncidentAxdSlit"
*MEAS_COND_AXIS_NAME_INTERNAL-16 "CenterSlit"
*MEAS_COND_AXIS_NAME_INTERNAL-17 "Filter"
*MEAS_COND_AXIS_NAME_INTERNAL-18 "ReceivingSlitBox1"
*MEAS_COND_AXIS_NAME_INTERNAL-19 "ReceivingSlitBox2"
*MEAS_COND_AXIS_NAME_INTERNAL-20 "ReceivingOptics"
*MEAS_COND_AXIS_NAME_INTERNAL-21 "ReceivingSollerSlit"
*MEAS_COND_AXIS_NAME_INTERNAL-22 "ReceivingAxdSlit"
*MEAS_COND_AXIS_NAME_INTERNAL-23 "ReceivingSlitBox1-_Axis"
*MEAS_COND_AXIS_NAME_INTERNAL-24 "ReceivingSlitBox2-_Axis"
*MEAS_COND_AXIS_NAME_INTERNAL-25 "ReceivingSlitBox2-Zd"
*MEAS_COND_AXIS_NAME_INTERNAL-26 "Attenuator"
*MEAS_COND_AXIS_NAME_INTERNAL-27 "CounterMonochromator"
*MEAS_COND_AXIS_NAME_INTERNAL-28 "CounterSlit"
*MEAS_COND_AXIS_NAME_INTERNAL-29 "IncidentPrimary"
*MEAS_COND_AXIS_NAME_INTERNAL-30 "PHA"
*MEAS_COND_AXIS_NAME_MAGICNO-0 "83951616.0000000000"
*MEAS_COND_AXIS_NAME_MAGICNO-1 "268632064.0000000000"
*MEAS_COND_AXIS_NAME_MAGICNO-2 "268500992.0000000000"
*MEAS_COND_AXIS_NAME_MAGICNO-3 "285278208.0000000000"
*MEAS_COND_AXIS_NAME_MAGICNO-4 "83951616.0000000000"
*MEAS_COND_AXIS_NAME_MAGICNO-5 "131072.0000000000"
*MEAS_COND_AXIS_NAME_MAGICNO-6 "131072.0000000000"
*MEAS_COND_AXIS_NAME_MAGICNO-7 "318898176.0000000000"
*MEAS_COND_AXIS_NAME_MAGICNO-8 "20971521.0000000000"
*MEAS_COND_AXIS_NAME_MAGICNO-9 "285343744.0000000000"
*MEAS_COND_AXIS_NAME_MAGICNO-10 "20971521.0000000000"
*MEAS_COND_AXIS_NAME_MAGICNO-11 "22020097.0000000000"
*MEAS_COND_AXIS_NAME_MAGICNO-12 "25165824.0000000000"
*MEAS_COND_AXIS_NAME_MAGICNO-13 "318898176.0000000000"
*MEAS_COND_AXIS_NAME_MAGICNO-14 "1.0000000000"
*MEAS_COND_AXIS_NAME_MAGICNO-15 "20971521.0000000000"
*MEAS_COND_AXIS_NAME_MAGICNO-16 "20971521.0000000000"
*MEAS_COND_AXIS_NAME_MAGICNO-17 "20971521.0000000000"
*MEAS_COND_AXIS_NAME_MAGICNO-18 "23068673.0000000000"
*MEAS_COND_AXIS_NAME_MAGICNO-19 "23068673.0000000000"
*MEAS_COND_AXIS_NAME_MAGICNO-20 "20971521.0000000000"
*MEAS_COND_AXIS_NAME_MAGICNO-21 "20971521.0000000000"
*MEAS_COND_AXIS_NAME_MAGICNO-22 "20971521.0000000000"
*MEAS_COND_AXIS_NAME_MAGICNO-23 "25165824.0000000000"
*MEAS_COND_AXIS_NAME_MAGICNO-24 "25165824.0000000000"
*MEAS_COND_AXIS_NAME_MAGICNO-25 "285343744.0000000000"
*MEAS_COND_AXIS_NAME_MAGICNO-26 "17301505.0000000000"
*MEAS_COND_AXIS_NAME_MAGICNO-27 "20971521.0000000000"
*MEAS_COND_AXIS_NAME_MAGICNO-28 "20971521.0000000000"
*MEAS_COND_AXIS_NAME_MAGICNO-29 "20971521.0000000000"
*MEAS_COND_AXIS_NAME_MAGICNO-30 "0.0000000000"
*MEAS_COND_AXIS_OFFSET-0 "-"
*MEAS_COND_AXIS_OFFSET-1 "-0.1081000000"
*MEAS_COND_AXIS_OFFSET-2 "0.3758000000"
*MEAS_COND_AXIS_OFFSET-3 "-"
*MEAS_COND_AXIS_OFFSET-4 "-"
*MEAS_COND_AXIS_OFFSET-5 "0.3758000000"
*MEAS_COND_AXIS_OFFSET-6 "-0.4839000000"
*MEAS_COND_AXIS_OFFSET-7 "-"
*MEAS_COND_AXIS_OFFSET-8 "-"
*MEAS_COND_AXIS_OFFSET-9 "-"
*MEAS_COND_AXIS_OFFSET-10 "-"
*MEAS_COND_AXIS_OFFSET-11 "-"
*MEAS_COND_AXIS_OFFSET-12 "-"
*MEAS_COND_AXIS_OFFSET-13 "-"
*MEAS_COND_AXIS_OFFSET-14 "-"
*MEAS_COND_AXIS_OFFSET-15 "-"
*MEAS_COND_AXIS_OFFSET-16 "-"
*MEAS_COND_AXIS_OFFSET-17 "-"
*MEAS_COND_AXIS_OFFSET-18 "-"
*MEAS_COND_AXIS_OFFSET-19 "-"
*MEAS_COND_AXIS_OFFSET-20 "-"
*MEAS_COND_AXIS_OFFSET-21 "-"
*MEAS_COND_AXIS_OFFSET-22 "-"
*MEAS_COND_AXIS_OFFSET-23 "-"
*MEAS_COND_AXIS_OFFSET-24 "-"
*MEAS_COND_AXIS_OFFSET-25 "-"
*MEAS_COND_AXIS_OFFSET-26 "-"
*MEAS_COND_AXIS_OFFSET-27 "-"
*MEAS_COND_AXIS_OFFSET-28 "-"
*MEAS_COND_AXIS_OFFSET-29 "-"
*MEAS_COND_AXIS_OFFSET-30 "-"
*MEAS_COND_AXIS_POSITION-0 "0.0000000000"
*MEAS_COND_AXIS_POSITION-1 "0.0000000000"
*MEAS_COND_AXIS_POSITION-2 "0.0000000000"
*MEAS_COND_AXIS_POSITION-3 "-0.5500000000"
*MEAS_COND_AXIS_POSITION-4 "0.0000000000"
*MEAS_COND_AXIS_POSITION-5 "0.0000000000"
*MEAS_COND_AXIS_POSITION-6 "0.0000000000"
*MEAS_COND_AXIS_POSITION-7 "-0.4278800000"
*MEAS_COND_AXIS_POSITION-8 "BB"
*MEAS_COND_AXIS_POSITION-9 "0.0000000000"
*MEAS_COND_AXIS_POSITION-10 "Soller_slit_5.0deg"
*MEAS_COND_AXIS_POSITION-11 "2/3deg"
*MEAS_COND_AXIS_POSITION-12 "2.2088000000"
*MEAS_COND_AXIS_POSITION-13 "-0.4140600000"
*MEAS_COND_AXIS_POSITION-14 "0.0000000000"
*MEAS_COND_AXIS_POSITION-15 "10.0mm"
*MEAS_COND_AXIS_POSITION-16 "None"
*MEAS_COND_AXIS_POSITION-17 "Cu_K-beta"
*MEAS_COND_AXIS_POSITION-18 "13.000mm"
*MEAS_COND_AXIS_POSITION-19 "13.000mm"
*MEAS_COND_AXIS_POSITION-20 "No_unit"
*MEAS_COND_AXIS_POSITION-21 "Soller_slit_5.0deg"
*MEAS_COND_AXIS_POSITION-22 "None"
*MEAS_COND_AXIS_POSITION-23 "13.0000000000"
*MEAS_COND_AXIS_POSITION-24 "13.0000000000"
*MEAS_COND_AXIS_POSITION-25 "0.0109400000"
*MEAS_COND_AXIS_POSITION-26 "Open"
*MEAS_COND_AXIS_POSITION-27 "None"
*MEAS_COND_AXIS_POSITION-28 "None"
*MEAS_COND_AXIS_POSITION-29 "None"
*MEAS_COND_AXIS_POSITION-30 "38.0000000000"
*MEAS_COND_AXIS_UNIT-0 "deg"
*MEAS_COND_AXIS_UNIT-1 "deg"
*MEAS_COND_AXIS_UNIT-2 "deg"
*MEAS_COND_AXIS_UNIT-3 "mm"
*MEAS_COND_AXIS_UNIT-4 "deg"
*MEAS_COND_AXIS_UNIT-5 "deg"
*MEAS_COND_AXIS_UNIT-6 "deg"
*MEAS_COND_AXIS_UNIT-7 "mm"
*MEAS_COND_AXIS_UNIT-8 ""
*MEAS_COND_AXIS_UNIT-9 "pulse"
*MEAS_COND_AXIS_UNIT-10 ""
*MEAS_COND_AXIS_UNIT-11 ""
*MEAS_COND_AXIS_UNIT-12 "mm"
*MEAS_COND_AXIS_UNIT-13 "mm"
*MEAS_COND_AXIS_UNIT-14 ""
*MEAS_COND_AXIS_UNIT-15 ""
*MEAS_COND_AXIS_UNIT-16 ""
*MEAS_COND_AXIS_UNIT-17 ""
*MEAS_COND_AXIS_UNIT-18 ""
*MEAS_COND_AXIS_UNIT-19 ""
*MEAS_COND_AXIS_UNIT-20 ""
*MEAS_COND_AXIS_UNIT-21 ""
*MEAS_COND_AXIS_UNIT-22 ""
*MEAS_COND_AXIS_UNIT-23 "mm"
*MEAS_COND_AXIS_UNIT-24 "mm"
*MEAS_COND_AXIS_UNIT-25 "mm"
*MEAS_COND_AXIS_UNIT-26 ""
*MEAS_COND_AXIS_UNIT-27 ""
*MEAS_COND_AXIS_UNIT-28 ""
*MEAS_COND_AXIS_UNIT-29 ""
*MEAS_COND_AXIS_UNIT-30 "div"
*MEAS_COND_COUNTER_CNTLOSS_CORR "0.0000000000"
*MEAS_COND_COUNTER_PHABASE "38.0000000000"
*MEAS_COND_COUNTER_PHAWINDOW "16.0000000000"
*MEAS_COND_COUNTER_PHA_UNIT "div"
*MEAS_COND_COUNTER_TAUDIFF "30.0000000000"
*MEAS_COND_COUNTER_TAUINT "0.0000000000"
*MEAS_COND_IRRADIATION_MODE "OFF"
*MEAS_COND_IRRADIATION_WIDTH ""
*MEAS_COND_OPT_ATTR "集中法"
*MEAS_COND_OPT_NAME "@集中法"
*MEAS_COND_UNSYMMETRIC_MODE "OFF"
*MEAS_COND_XG_CURRENT "30.0000000000"
*MEAS_COND_XG_VOLTAGE "40.0000000000"
*MEAS_COND_XG_WAVE_TYPE "Ka"
*MEAS_DATA_COUNT "5001.0000000000"
*MEAS_SCAN_AXIS_X "2θ/θ"
*MEAS_SCAN_AXIS_X_INTERNAL "TwoThetaTheta"
*MEAS_SCAN_END_TIME "07/12/21 19:56:46"
*MEAS_SCAN_MODE "CONTINUOUS"
*MEAS_SCAN_MONITOR "0"
*MEAS_SCAN_RESOLUTION_X "0.0002"
*MEAS_SCAN_SPEED "1.0"
*MEAS_SCAN_SPEED_UNIT "deg/min"
*MEAS_SCAN_START "20.0000000000"
*MEAS_SCAN_START_TIME "07/12/21 19:03:53"
*MEAS_SCAN_STEP "0.0100000000"
*MEAS_SCAN_STOP "70.0000000000"
*MEAS_SCAN_UNIT_X "deg"
*MEAS_SCAN_UNIT_Y "counts"
*RAS_HEADER_END
*RAS_INT_START
20.0000 1704.0000 1.0000
20.0100 1728.0000 1.0000
20.0200 1706.0000 1.0000
20.0300 1669.0000 1.0000
20.0400 1678.0000 1.0000
20.0500 1743.0000 1.0000
20.0600 1722.0000 1.0000
20.0700 1750.0000 1.0000
20.0800 1788.0000 1.0000
20.0900 1707.0000 1.0000
20.1000 1686.0000 1.0000
20.1100 1688.0000 1.0000
20.1200 1741.0000 1.0000
20.1300 1725.0000 1.0000
20.1400 1689.0000 1.0000
20.1500 1741.0000 1.0000
20.1600 1772.0000 1.0000
20.1700 1763.0000 1.0000
20.1800 1794.0000 1.0000
20.1900 1763.0000 1.0000
20.2000 1694.0000 1.0000
20.2100 1693.0000 1.0000
20.2200 1727.0000 1.0000
20.2300 1719.0000 1.0000
20.2400 1706.0000 1.0000
20.2500 1757.0000 1.0000
20.2600 1738.0000 1.0000
20.2700 1696.0000 1.0000
20.2800 1752.0000 1.0000
20.2900 1748.0000 1.0000
20.3000 1691.0000 1.0000
20.3100 1761.0000 1.0000
20.3200 1701.0000 1.0000
20.3300 1721.0000 1.0000
20.3400 1714.0000 1.0000
20.3500 1734.0000 1.0000
20.3600 1723.0000 1.0000
20.3700 1728.0000 1.0000
20.3800 1785.0000 1.0000
20.3900 1744.0000 1.0000
20.4000 1772.0000 1.0000
20.4100 1649.0000 1.0000
20.4200 1748.0000 1.0000
20.4300 1807.0000 1.0000
20.4400 1806.0000 1.0000
20.4500 1730.0000 1.0000
20.4600 1682.0000 1.0000
20.4700 1817.0000 1.0000
20.4800 1750.0000 1.0000
20.4900 1706.0000 1.0000
20.5000 1740.0000 1.0000
20.5100 1796.0000 1.0000
20.5200 1670.0000 1.0000
20.5300 1710.0000 1.0000
20.5400 1748.0000 1.0000
20.5500 1765.0000 1.0000
20.5600 1750.0000 1.0000
20.5700 1759.0000 1.0000
20.5800 1749.0000 1.0000
20.5900 1881.0000 1.0000
20.6000 1714.0000 1.0000
20.6100 1700.0000 1.0000
20.6200 1753.0000 1.0000
20.6300 1769.0000 1.0000
20.6400 1730.0000 1.0000
20.6500 1777.0000 1.0000
20.6600 1673.0000 1.0000
20.6700 1735.0000 1.0000
20.6800 1724.0000 1.0000
20.6900 1763.0000 1.0000
20.7000 1773.0000 1.0000
20.7100 1750.0000 1.0000
20.7200 1758.0000 1.0000
20.7300 1688.0000 1.0000
20.7400 1834.0000 1.0000
20.7500 1791.0000 1.0000
20.7600 1787.0000 1.0000
20.7700 1703.0000 1.0000
20.7800 1781.0000 1.0000
20.7900 1717.0000 1.0000
20.8000 1771.0000 1.0000
20.8100 1689.0000 1.0000
20.8200 1737.0000 1.0000
20.8300 1817.0000 1.0000
20.8400 1808.0000 1.0000
20.8500 1735.0000 1.0000
20.8600 1792.0000 1.0000
20.8700 1678.0000 1.0000
20.8800 1737.0000 1.0000
20.8900 1726.0000 1.0000
20.9000 1693.0000 1.0000
20.9100 1725.0000 1.0000
20.9200 1757.0000 1.0000
20.9300 1695.0000 1.0000
20.9400 1689.0000 1.0000
20.9500 1783.0000 1.0000
20.9600 1768.0000 1.0000
20.9700 1851.0000 1.0000
20.9800 1738.0000 1.0000
20.9900 1724.0000 1.0000
21.0000 1761.0000 1.0000
21.0100 1697.0000 1.0000
21.0200 1780.0000 1.0000
21.0300 1797.0000 1.0000
21.0400 1741.0000 1.0000
21.0500 1796.0000 1.0000
21.0600 1748.0000 1.0000
21.0700 1680.0000 1.0000
21.0800 1741.0000 1.0000
21.0900 1781.0000 1.0000
21.1000 1703.0000 1.0000
21.1100 1721.0000 1.0000
21.1200 1702.0000 1.0000
21.1300 1757.0000 1.0000
21.1400 1741.0000 1.0000
21.1500 1715.0000 1.0000
21.1600 1678.0000 1.0000
21.1700 1706.0000 1.0000
21.1800 1676.0000 1.0000
21.1900 1691.0000 1.0000
21.2000 1803.0000 1.0000
21.2100 1749.0000 1.0000
21.2200 1724.0000 1.0000
21.2300 1753.0000 1.0000
21.2400 1810.0000 1.0000
21.2500 1764.0000 1.0000
21.2600 1752.0000 1.0000
21.2700 1737.0000 1.0000
21.2800 1730.0000 1.0000
21.2900 1694.0000 1.0000
21.3000 1673.0000 1.0000
21.3100 1762.0000 1.0000
21.3200 1720.0000 1.0000
21.3300 1738.0000 1.0000
21.3400 1782.0000 1.0000
21.3500 1716.0000 1.0000
21.3600 1711.0000 1.0000
21.3700 1716.0000 1.0000
21.3800 1752.0000 1.0000
21.3900 1714.0000 1.0000
21.4000 1772.0000 1.0000
21.4100 1775.0000 1.0000
21.4200 1743.0000 1.0000
21.4300 1694.0000 1.0000
21.4400 1697.0000 1.0000
21.4500 1730.0000 1.0000
21.4600 1781.0000 1.0000
21.4700 1681.0000 1.0000
21.4800 1735.0000 1.0000
21.4900 1749.0000 1.0000
21.5000 1761.0000 1.0000
21.5100 1745.0000 1.0000
21.5200 1811.0000 1.0000
21.5300 1710.0000 1.0000
21.5400 1752.0000 1.0000
21.5500 1721.0000 1.0000
21.5600 1762.0000 1.0000
21.5700 1731.0000 1.0000
21.5800 1735.0000 1.0000
21.5900 1825.0000 1.0000
21.6000 1782.0000 1.0000
21.6100 1687.0000 1.0000
21.6200 1695.0000 1.0000
21.6300 1720.0000 1.0000
21.6400 1731.0000 1.0000
21.6500 1787.0000 1.0000
21.6600 1708.0000 1.0000
21.6700 1795.0000 1.0000
21.6800 1802.0000 1.0000
21.6900 1738.0000 1.0000
21.7000 1739.0000 1.0000
21.7100 1689.0000 1.0000
21.7200 1668.0000 1.0000
21.7300 1728.0000 1.0000
21.7400 1747.0000 1.0000
21.7500 1794.0000 1.0000
21.7600 1691.0000 1.0000
21.7700 1769.0000 1.0000
21.7800 1801.0000 1.0000
21.7900 1776.0000 1.0000
21.8000 1770.0000 1.0000
21.8100 1739.0000 1.0000
21.8200 1764.0000 1.0000
21.8300 1793.0000 1.0000
21.8400 1772.0000 1.0000
21.8500 1692.0000 1.0000
21.8600 1703.0000 1.0000
21.8700 1726.0000 1.0000
21.8800 1736.0000 1.0000
21.8900 1758.0000 1.0000
21.9000 1750.0000 1.0000
21.9100 1731.0000 1.0000
21.9200 1737.0000 1.0000
21.9300 1726.0000 1.0000
21.9400 1768.0000 1.0000
21.9500 1770.0000 1.0000
21.9600 1721.0000 1.0000
21.9700 1725.0000 1.0000
21.9800 1743.0000 1.0000
21.9900 1771.0000 1.0000
22.0000 1745.0000 1.0000
22.0100 1760.0000 1.0000
22.0200 1845.0000 1.0000
22.0300 1813.0000 1.0000
22.0400 1750.0000 1.0000
22.0500 1786.0000 1.0000
22.0600 1800.0000 1.0000
22.0700 1788.0000 1.0000
22.0800 1775.0000 1.0000
22.0900 1793.0000 1.0000
22.1000 1779.0000 1.0000
22.1100 1735.0000 1.0000
22.1200 1748.0000 1.0000
22.1300 1793.0000 1.0000
22.1400 1720.0000 1.0000
22.1500 1773.0000 1.0000
22.1600 1724.0000 1.0000
22.1700 1713.0000 1.0000
22.1800 1718.0000 1.0000
22.1900 1743.0000 1.0000
22.2000 1734.0000 1.0000
22.2100 1834.0000 1.0000
22.2200 1765.0000 1.0000
22.2300 1833.0000 1.0000
22.2400 1818.0000 1.0000
22.2500 1729.0000 1.0000
22.2600 1743.0000 1.0000
22.2700 1784.0000 1.0000
22.2800 1803.0000 1.0000
22.2900 1722.0000 1.0000
22.3000 1817.0000 1.0000
22.3100 1724.0000 1.0000
22.3200 1750.0000 1.0000
22.3300 1753.0000 1.0000
22.3400 1763.0000 1.0000
22.3500 1759.0000 1.0000
22.3600 1804.0000 1.0000
22.3700 1775.0000 1.0000
22.3800 1728.0000 1.0000
22.3900 1760.0000 1.0000
22.4000 1738.0000 1.0000
22.4100 1807.0000 1.0000
22.4200 1820.0000 1.0000
22.4300 1823.0000 1.0000
22.4400 1815.0000 1.0000
22.4500 1758.0000 1.0000
22.4600 1727.0000 1.0000
22.4700 1729.0000 1.0000
22.4800 1785.0000 1.0000
22.4900 1805.0000 1.0000
22.5000 1714.0000 1.0000
22.5100 1766.0000 1.0000
22.5200 1753.0000 1.0000
22.5300 1757.0000 1.0000
22.5400 1837.0000 1.0000
22.5500 1806.0000 1.0000
22.5600 1803.0000 1.0000
22.5700 1759.0000 1.0000
22.5800 1785.0000 1.0000
22.5900 1753.0000 1.0000
22.6000 1804.0000 1.0000
22.6100 1781.0000 1.0000
22.6200 1836.0000 1.0000
22.6300 1782.0000 1.0000
22.6400 1752.0000 1.0000
22.6500 1726.0000 1.0000
22.6600 1775.0000 1.0000
22.6700 1797.0000 1.0000
22.6800 1824.0000 1.0000
22.6900 1764.0000 1.0000
22.7000 1770.0000 1.0000
22.7100 1789.0000 1.0000
22.7200 1787.0000 1.0000
22.7300 1803.0000 1.0000
22.7400 1765.0000 1.0000
22.7500 1821.0000 1.0000
22.7600 1781.0000 1.0000
22.7700 1720.0000 1.0000
22.7800 1691.0000 1.0000
22.7900 1771.0000 1.0000
22.8000 1798.0000 1.0000
22.8100 1838.0000 1.0000
22.8200 1857.0000 1.0000
22.8300 1719.0000 1.0000
22.8400 1759.0000 1.0000
22.8500 1856.0000 1.0000
22.8600 1769.0000 1.0000
22.8700 1764.0000 1.0000
22.8800 1757.0000 1.0000
22.8900 1865.0000 1.0000
22.9000 1785.0000 1.0000
22.9100 1740.0000 1.0000
22.9200 1735.0000 1.0000
22.9300 1773.0000 1.0000
22.9400 1802.0000 1.0000
22.9500 1718.0000 1.0000
22.9600 1763.0000 1.0000
22.9700 1736.0000 1.0000
22.9800 1736.0000 1.0000
22.9900 1785.0000 1.0000
23.0000 1752.0000 1.0000
23.0100 1821.0000 1.0000
23.0200 1828.0000 1.0000
23.0300 1840.0000 1.0000
23.0400 1793.0000 1.0000
23.0500 1808.0000 1.0000
23.0600 1809.0000 1.0000
23.0700 1805.0000 1.0000
23.0800 1845.0000 1.0000
23.0900 1809.0000 1.0000
23.1000 1835.0000 1.0000
23.1100 1789.0000 1.0000
23.1200 1715.0000 1.0000
23.1300 1758.0000 1.0000
23.1400 1776.0000 1.0000
23.1500 1719.0000 1.0000
23.1600 1701.0000 1.0000
23.1700 1749.0000 1.0000
23.1800 1777.0000 1.0000
23.1900 1794.0000 1.0000
23.2000 1779.0000 1.0000
23.2100 1756.0000 1.0000
23.2200 1762.0000 1.0000
23.2300 1806.0000 1.0000
23.2400 1828.0000 1.0000
23.2500 1760.0000 1.0000
23.2600 1753.0000 1.0000
23.2700 1808.0000 1.0000
23.2800 1773.0000 1.0000
23.2900 1834.0000 1.0000
23.3000 1818.0000 1.0000
23.3100 1783.0000 1.0000
23.3200 1821.0000 1.0000
23.3300 1891.0000 1.0000
23.3400 1862.0000 1.0000
23.3500 1772.0000 1.0000
23.3600 1788.0000 1.0000
23.3700 1741.0000 1.0000
23.3800 1791.0000 1.0000
23.3900 1801.0000 1.0000
23.4000 1774.0000 1.0000
23.4100 1836.0000 1.0000
23.4200 1817.0000 1.0000
23.4300 1880.0000 1.0000
23.4400 1809.0000 1.0000
23.4500 1829.0000 1.0000
23.4600 1771.0000 1.0000
23.4700 1741.0000 1.0000
23.4800 1789.0000 1.0000
23.4900 1833.0000 1.0000
23.5000 1790.0000 1.0000
23.5100 1788.0000 1.0000
23.5200 1774.0000 1.0000
23.5300 1727.0000 1.0000
23.5400 1763.0000 1.0000
23.5500 1801.0000 1.0000
23.5600 1847.0000 1.0000
23.5700 1808.0000 1.0000
23.5800 1786.0000 1.0000
23.5900 1779.0000 1.0000
23.6000 1786.0000 1.0000
23.6100 1817.0000 1.0000
23.6200 1852.0000 1.0000
23.6300 1821.0000 1.0000
23.6400 1856.0000 1.0000
23.6500 1745.0000 1.0000
23.6600 1774.0000 1.0000
23.6700 1783.0000 1.0000
23.6800 1767.0000 1.0000
23.6900 1810.0000 1.0000
23.7000 1836.0000 1.0000
23.7100 1789.0000 1.0000
23.7200 1856.0000 1.0000
23.7300 1814.0000 1.0000
23.7400 1802.0000 1.0000
23.7500 1816.0000 1.0000
23.7600 1792.0000 1.0000
23.7700 1805.0000 1.0000
23.7800 1794.0000 1.0000
23.7900 1777.0000 1.0000
23.8000 1772.0000 1.0000
23.8100 1822.0000 1.0000
23.8200 1803.0000 1.0000
23.8300 1777.0000 1.0000
23.8400 1754.0000 1.0000
23.8500 1753.0000 1.0000
23.8600 1816.0000 1.0000
23.8700 1849.0000 1.0000
23.8800 1841.0000 1.0000
23.8900 1782.0000 1.0000
23.9000 1755.0000 1.0000
23.9100 1830.0000 1.0000
23.9200 1767.0000 1.0000
23.9300 1685.0000 1.0000
23.9400 1817.0000 1.0000
23.9500 1759.0000 1.0000
23.9600 1807.0000 1.0000
23.9700 1792.0000 1.0000
23.9800 1807.0000 1.0000
23.9900 1822.0000 1.0000
24.0000 1731.0000 1.0000
24.0100 1787.0000 1.0000
24.0200 1783.0000 1.0000
24.0300 1815.0000 1.0000
24.0400 1817.0000 1.0000
24.0500 1820.0000 1.0000
24.0600 1822.0000 1.0000
24.0700 1819.0000 1.0000
24.0800 1806.0000 1.0000
24.0900 1741.0000 1.0000
24.1000 1771.0000 1.0000
24.1100 1781.0000 1.0000
24.1200 1841.0000 1.0000
24.1300 1804.0000 1.0000
24.1400 1772.0000 1.0000
24.1500 1769.0000 1.0000
24.1600 1804.0000 1.0000
24.1700 1768.0000 1.0000
24.1800 1796.0000 1.0000
24.1900 1828.0000 1.0000
24.2000 1822.0000 1.0000
24.2100 1861.0000 1.0000
24.2200 1845.0000 1.0000
24.2300 1830.0000 1.0000
24.2400 1754.0000 1.0000
24.2500 1805.0000 1.0000
24.2600 1848.0000 1.0000
24.2700 1744.0000 1.0000
24.2800 1818.0000 1.0000
24.2900 1832.0000 1.0000
24.3000 1827.0000 1.0000
24.3100 1774.0000 1.0000
24.3200 1843.0000 1.0000
24.3300 1850.0000 1.0000
24.3400 1819.0000 1.0000
24.3500 1832.0000 1.0000
24.3600 1782.0000 1.0000
24.3700 1790.0000 1.0000
24.3800 1830.0000 1.0000
24.3900 1862.0000 1.0000
24.4000 1869.0000 1.0000
24.4100 1847.0000 1.0000
24.4200 1816.0000 1.0000
24.4300 1820.0000 1.0000
24.4400 1816.0000 1.0000
24.4500 1849.0000 1.0000
24.4600 1830.0000 1.0000
24.4700 1771.0000 1.0000
24.4800 1809.0000 1.0000
24.4900 1859.0000 1.0000
24.5000 1838.0000 1.0000
24.5100 1848.0000 1.0000
24.5200 1882.0000 1.0000
24.5300 1945.0000 1.0000
24.5400 1799.0000 1.0000
24.5500 1858.0000 1.0000
24.5600 1895.0000 1.0000
24.5700 1830.0000 1.0000
24.5800 1803.0000 1.0000
24.5900 1752.0000 1.0000
24.6000 1871.0000 1.0000
24.6100 1859.0000 1.0000
24.6200 1856.0000 1.0000
24.6300 1943.0000 1.0000
24.6400 1913.0000 1.0000
24.6500 1853.0000 1.0000
24.6600 1835.0000 1.0000
24.6700 1878.0000 1.0000
24.6800 1888.0000 1.0000
24.6900 1861.0000 1.0000
24.7000 1847.0000 1.0000
24.7100 1817.0000 1.0000
24.7200 1855.0000 1.0000
24.7300 1939.0000 1.0000
24.7400 1922.0000 1.0000
24.7500 1824.0000 1.0000
24.7600 1871.0000 1.0000
24.7700 1806.0000 1.0000
24.7800 1770.0000 1.0000
24.7900 1817.0000 1.0000
24.8000 1787.0000 1.0000
24.8100 1899.0000 1.0000
24.8200 1920.0000 1.0000
24.8300 1856.0000 1.0000
24.8400 1877.0000 1.0000
24.8500 1881.0000 1.0000
24.8600 1855.0000 1.0000
24.8700 1874.0000 1.0000
24.8800 1837.0000 1.0000
24.8900 1816.0000 1.0000
24.9000 1871.0000 1.0000
24.9100 1863.0000 1.0000
24.9200 1873.0000 1.0000
24.9300 1808.0000 1.0000
24.9400 1822.0000 1.0000
24.9500 1935.0000 1.0000
24.9600 1861.0000 1.0000
24.9700 1875.0000 1.0000
24.9800 1873.0000 1.0000
24.9900 1871.0000 1.0000
25.0000 1855.0000 1.0000
25.0100 1931.0000 1.0000
25.0200 1915.0000 1.0000
25.0300 1894.0000 1.0000
25.0400 1891.0000 1.0000
25.0500 1861.0000 1.0000
25.0600 1965.0000 1.0000
25.0700 1938.0000 1.0000
25.0800 1889.0000 1.0000
25.0900 1873.0000 1.0000
25.1000 1911.0000 1.0000
25.1100 1935.0000 1.0000
25.1200 1831.0000 1.0000
25.1300 1903.0000 1.0000
25.1400 1942.0000 1.0000
25.1500 1901.0000 1.0000
25.1600 1877.0000 1.0000
25.1700 1966.0000 1.0000
25.1800 1872.0000 1.0000
25.1900 1894.0000 1.0000
25.2000 1929.0000 1.0000
25.2100 1870.0000 1.0000
25.2200 1909.0000 1.0000
25.2300 1911.0000 1.0000
25.2400 1912.0000 1.0000
25.2500 1853.0000 1.0000
25.2600 1894.0000 1.0000
25.2700 1882.0000 1.0000
25.2800 1918.0000 1.0000
25.2900 1906.0000 1.0000
25.3000 1892.0000 1.0000
25.3100 1829.0000 1.0000
25.3200 1810.0000 1.0000
25.3300 1863.0000 1.0000
25.3400 1886.0000 1.0000
25.3500 1852.0000 1.0000
25.3600 1863.0000 1.0000
25.3700 1872.0000 1.0000
25.3800 1875.0000 1.0000
25.3900 1939.0000 1.0000
25.4000 1955.0000 1.0000
25.4100 1845.0000 1.0000
25.4200 1840.0000 1.0000
25.4300 1851.0000 1.0000
25.4400 1859.0000 1.0000
25.4500 1928.0000 1.0000
25.4600 1875.0000 1.0000
25.4700 1902.0000 1.0000
25.4800 1825.0000 1.0000
25.4900 1899.0000 1.0000
25.5000 1913.0000 1.0000
25.5100 1921.0000 1.0000
25.5200 1911.0000 1.0000
25.5300 1892.0000 1.0000
25.5400 1840.0000 1.0000
25.5500 1872.0000 1.0000
25.5600 1895.0000 1.0000
25.5700 1853.0000 1.0000
25.5800 1948.0000 1.0000
25.5900 1875.0000 1.0000
25.6000 1837.0000 1.0000
25.6100 1886.0000 1.0000
25.6200 1933.0000 1.0000
25.6300 1870.0000 1.0000
25.6400 1820.0000 1.0000
25.6500 1843.0000 1.0000
25.6600 1886.0000 1.0000
25.6700 1830.0000 1.0000
25.6800 1809.0000 1.0000
25.6900 1877.0000 1.0000
25.7000 1914.0000 1.0000
25.7100 1850.0000 1.0000
25.7200 1984.0000 1.0000
25.7300 1899.0000 1.0000
25.7400 1853.0000 1.0000
25.7500 1851.0000 1.0000
25.7600 1817.0000 1.0000
25.7700 1773.0000 1.0000
25.7800 1853.0000 1.0000
25.7900 1840.0000 1.0000
25.8000 1903.0000 1.0000
25.8100 1877.0000 1.0000
25.8200 1835.0000 1.0000
25.8300 1772.0000 1.0000
25.8400 1837.0000 1.0000
25.8500 1839.0000 1.0000
25.8600 1840.0000 1.0000
25.8700 1927.0000 1.0000
25.8800 1832.0000 1.0000
25.8900 1840.0000 1.0000
25.9000 1855.0000 1.0000
25.9100 1874.0000 1.0000
25.9200 1976.0000 1.0000
25.9300 1924.0000 1.0000
25.9400 1943.0000 1.0000
25.9500 1897.0000 1.0000
25.9600 1856.0000 1.0000
25.9700 1823.0000 1.0000
25.9800 1940.0000 1.0000
25.9900 1851.0000 1.0000
26.0000 1857.0000 1.0000
26.0100 1940.0000 1.0000
26.0200 1837.0000 1.0000
26.0300 1798.0000 1.0000
26.0400 1886.0000 1.0000
26.0500 1868.0000 1.0000
26.0600 1788.0000 1.0000
26.0700 1860.0000 1.0000
26.0800 1871.0000 1.0000
26.0900 1837.0000 1.0000
26.1000 1893.0000 1.0000
26.1100 1922.0000 1.0000
26.1200 1904.0000 1.0000
26.1300 1938.0000 1.0000
26.1400 1936.0000 1.0000
26.1500 1922.0000 1.0000
26.1600 1896.0000 1.0000
26.1700 1856.0000 1.0000
26.1800 1817.0000 1.0000
26.1900 1879.0000 1.0000
26.2000 1901.0000 1.0000
26.2100 1909.0000 1.0000
26.2200 1884.0000 1.0000
26.2300 1857.0000 1.0000
26.2400 1908.0000 1.0000
26.2500 1970.0000 1.0000
26.2600 1912.0000 1.0000
26.2700 1898.0000 1.0000
26.2800 1806.0000 1.0000
26.2900 1913.0000 1.0000
26.3000 1924.0000 1.0000
26.3100 1943.0000 1.0000
26.3200 1930.0000 1.0000
26.3300 1884.0000 1.0000
26.3400 1852.0000 1.0000
26.3500 1876.0000 1.0000
26.3600 1855.0000 1.0000
26.3700 1862.0000 1.0000
26.3800 1956.0000 1.0000
26.3900 1947.0000 1.0000
26.4000 1912.0000 1.0000
26.4100 1927.0000 1.0000
26.4200 1909.0000 1.0000
26.4300 1908.0000 1.0000
26.4400 1963.0000 1.0000
26.4500 1926.0000 1.0000
26.4600 1950.0000 1.0000
26.4700 1923.0000 1.0000
26.4800 1966.0000 1.0000
26.4900 1940.0000 1.0000
26.5000 1935.0000 1.0000
26.5100 1967.0000 1.0000
26.5200 1963.0000 1.0000
26.5300 2038.0000 1.0000
26.5400 1964.0000 1.0000
26.5500 1989.0000 1.0000
26.5600 2060.0000 1.0000
26.5700 1912.0000 1.0000
26.5800 1956.0000 1.0000
26.5900 1989.0000 1.0000
26.6000 2056.0000 1.0000
26.6100 1967.0000 1.0000
26.6200 1927.0000 1.0000
26.6300 2028.0000 1.0000
26.6400 2026.0000 1.0000
26.6500 1965.0000 1.0000
26.6600 1972.0000 1.0000
26.6700 1985.0000 1.0000
26.6800 1974.0000 1.0000
26.6900 1990.0000 1.0000
26.7000 2018.0000 1.0000
26.7100 1983.0000 1.0000
26.7200 2030.0000 1.0000
26.7300 2090.0000 1.0000
26.7400 2054.0000 1.0000
26.7500 2049.0000 1.0000
26.7600 2056.0000 1.0000
26.7700 2100.0000 1.0000
26.7800 2027.0000 1.0000
26.7900 2105.0000 1.0000
26.8000 2118.0000 1.0000
26.8100 2086.0000 1.0000
26.8200 2116.0000 1.0000
26.8300 2123.0000 1.0000
26.8400 2191.0000 1.0000
26.8500 2147.0000 1.0000
26.8600 2155.0000 1.0000
26.8700 2161.0000 1.0000
26.8800 2196.0000 1.0000
26.8900 2251.0000 1.0000
26.9000 2248.0000 1.0000
26.9100 2304.0000 1.0000
26.9200 2394.0000 1.0000
26.9300 2427.0000 1.0000
26.9400 2398.0000 1.0000
26.9500 2442.0000 1.0000
26.9600 2413.0000 1.0000
26.9700 2485.0000 1.0000
26.9800 2573.0000 1.0000
26.9900 2678.0000 1.0000
27.0000 2545.0000 1.0000
27.0100 2726.0000 1.0000
27.0200 2781.0000 1.0000
27.0300 2747.0000 1.0000
27.0400 2849.0000 1.0000
27.0500 2948.0000 1.0000
27.0600 2982.0000 1.0000
27.0700 3090.0000 1.0000
27.0800 3273.0000 1.0000
27.0900 3363.0000 1.0000
27.1000 3463.0000 1.0000
27.1100 3526.0000 1.0000
27.1200 3576.0000 1.0000
27.1300 3801.0000 1.0000
27.1400 3959.0000 1.0000
27.1500 4223.0000 1.0000
27.1600 4498.0000 1.0000
27.1700 4685.0000 1.0000
27.1800 4952.0000 1.0000
27.1900 5326.0000 1.0000
27.2000 5520.0000 1.0000
27.2100 5831.0000 1.0000
27.2200 5997.0000 1.0000
27.2300 6236.0000 1.0000
27.2400 6619.0000 1.0000
27.2500 6706.0000 1.0000
27.2600 6972.0000 1.0000
27.2700 7129.0000 1.0000
27.2800 7213.0000 1.0000
27.2900 7069.0000 1.0000
27.3000 6915.0000 1.0000
27.3100 6955.0000 1.0000
27.3200 6639.0000 1.0000
27.3300 6383.0000 1.0000
27.3400 6182.0000 1.0000
27.3500 5934.0000 1.0000
27.3600 5649.0000 1.0000
27.3700 5435.0000 1.0000
27.3800 5118.0000 1.0000
27.3900 4813.0000 1.0000
27.4000 4528.0000 1.0000
27.4100 4345.0000 1.0000
27.4200 4228.0000 1.0000
27.4300 4016.0000 1.0000
27.4400 3705.0000 1.0000
27.4500 3603.0000 1.0000
27.4600 3490.0000 1.0000
27.4700 3308.0000 1.0000
27.4800 3267.0000 1.0000
27.4900 3129.0000 1.0000
27.5000 2964.0000 1.0000
27.5100 2917.0000 1.0000
27.5200 2840.0000 1.0000
27.5300 2835.0000 1.0000
27.5400 2703.0000 1.0000
27.5500 2595.0000 1.0000
27.5600 2573.0000 1.0000
27.5700 2519.0000 1.0000
27.5800 2548.0000 1.0000
27.5900 2429.0000 1.0000
27.6000 2429.0000 1.0000
27.6100 2402.0000 1.0000
27.6200 2333.0000 1.0000
27.6300 2251.0000 1.0000
27.6400 2278.0000 1.0000
27.6500 2240.0000 1.0000
27.6600 2192.0000 1.0000
27.6700 2210.0000 1.0000
27.6800 2196.0000 1.0000
27.6900 2124.0000 1.0000
27.7000 2175.0000 1.0000
27.7100 2163.0000 1.0000
27.7200 2176.0000 1.0000
27.7300 2120.0000 1.0000
27.7400 2032.0000 1.0000
27.7500 2034.0000 1.0000
27.7600 2079.0000 1.0000
27.7700 2094.0000 1.0000
27.7800 2036.0000 1.0000
27.7900 2063.0000 1.0000
27.8000 1966.0000 1.0000
27.8100 1987.0000 1.0000
27.8200 2007.0000 1.0000
27.8300 1986.0000 1.0000
27.8400 1995.0000 1.0000
27.8500 1939.0000 1.0000
27.8600 1946.0000 1.0000
27.8700 1962.0000 1.0000
27.8800 1918.0000 1.0000
27.8900 1883.0000 1.0000
27.9000 1969.0000 1.0000
27.9100 1945.0000 1.0000
27.9200 1943.0000 1.0000
27.9300 1917.0000 1.0000
27.9400 1927.0000 1.0000
27.9500 1847.0000 1.0000
27.9600 1857.0000 1.0000
27.9700 1883.0000 1.0000
27.9800 1916.0000 1.0000
27.9900 1902.0000 1.0000
28.0000 1874.0000 1.0000
28.0100 1814.0000 1.0000
28.0200 1856.0000 1.0000
28.0300 1842.0000 1.0000
28.0400 1845.0000 1.0000
28.0500 1874.0000 1.0000
28.0600 1908.0000 1.0000
28.0700 1899.0000 1.0000
28.0800 1824.0000 1.0000
28.0900 1814.0000 1.0000
28.1000 1856.0000 1.0000
28.1100 1822.0000 1.0000
28.1200 1819.0000 1.0000
28.1300 1854.0000 1.0000
28.1400 1840.0000 1.0000
28.1500 1849.0000 1.0000
28.1600 1833.0000 1.0000
28.1700 1874.0000 1.0000
28.1800 1866.0000 1.0000
28.1900 1767.0000 1.0000
28.2000 1865.0000 1.0000
28.2100 1847.0000 1.0000
28.2200 1818.0000 1.0000
28.2300 1833.0000 1.0000
28.2400 1774.0000 1.0000
28.2500 1787.0000 1.0000
28.2600 1805.0000 1.0000
28.2700 1826.0000 1.0000
28.2800 1804.0000 1.0000
28.2900 1810.0000 1.0000
28.3000 1759.0000 1.0000
28.3100 1823.0000 1.0000
28.3200 1874.0000 1.0000
28.3300 1776.0000 1.0000
28.3400 1794.0000 1.0000
28.3500 1788.0000 1.0000
28.3600 1858.0000 1.0000
28.3700 1832.0000 1.0000
28.3800 1821.0000 1.0000
28.3900 1820.0000 1.0000
28.4000 1803.0000 1.0000
28.4100 1777.0000 1.0000
28.4200 1762.0000 1.0000
28.4300 1808.0000 1.0000
28.4400 1746.0000 1.0000
28.4500 1804.0000 1.0000
28.4600 1767.0000 1.0000
28.4700 1765.0000 1.0000
28.4800 1795.0000 1.0000
28.4900 1773.0000 1.0000
28.5000 1739.0000 1.0000
28.5100 1806.0000 1.0000
28.5200 1727.0000 1.0000
28.5300 1687.0000 1.0000
28.5400 1752.0000 1.0000
28.5500 1709.0000 1.0000
28.5600 1775.0000 1.0000
28.5700 1755.0000 1.0000
28.5800 1761.0000 1.0000
28.5900 1729.0000 1.0000
28.6000 1754.0000 1.0000
28.6100 1733.0000 1.0000
28.6200 1652.0000 1.0000
28.6300 1727.0000 1.0000
28.6400 1740.0000 1.0000
28.6500 1762.0000 1.0000
28.6600 1757.0000 1.0000
28.6700 1770.0000 1.0000
28.6800 1745.0000 1.0000
28.6900 1779.0000 1.0000
28.7000 1833.0000 1.0000
28.7100 1764.0000 1.0000
28.7200 1725.0000 1.0000
28.7300 1765.0000 1.0000
28.7400 1737.0000 1.0000
28.7500 1727.0000 1.0000
28.7600 1679.0000 1.0000
28.7700 1750.0000 1.0000
28.7800 1752.0000 1.0000
28.7900 1726.0000 1.0000
28.8000 1739.0000 1.0000
28.8100 1685.0000 1.0000
28.8200 1742.0000 1.0000
28.8300 1682.0000 1.0000
28.8400 1688.0000 1.0000
28.8500 1708.0000 1.0000
28.8600 1755.0000 1.0000
28.8700 1707.0000 1.0000
28.8800 1709.0000 1.0000
28.8900 1802.0000 1.0000
28.9000 1692.0000 1.0000
28.9100 1723.0000 1.0000
28.9200 1698.0000 1.0000
28.9300 1630.0000 1.0000
28.9400 1699.0000 1.0000
28.9500 1704.0000 1.0000
28.9600 1715.0000 1.0000
28.9700 1676.0000 1.0000
28.9800 1744.0000 1.0000
28.9900 1807.0000 1.0000
29.0000 1736.0000 1.0000
29.0100 1725.0000 1.0000
29.0200 1741.0000 1.0000
29.0300 1697.0000 1.0000
29.0400 1714.0000 1.0000
29.0500 1743.0000 1.0000
29.0600 1671.0000 1.0000
29.0700 1725.0000 1.0000
29.0800 1695.0000 1.0000
29.0900 1718.0000 1.0000
29.1000 1655.0000 1.0000
29.1100 1697.0000 1.0000
29.1200 1654.0000 1.0000
29.1300 1643.0000 1.0000
29.1400 1641.0000 1.0000
29.1500 1710.0000 1.0000
29.1600 1663.0000 1.0000
29.1700 1687.0000 1.0000
29.1800 1750.0000 1.0000
29.1900 1732.0000 1.0000
29.2000 1690.0000 1.0000
29.2100 1658.0000 1.0000
29.2200 1663.0000 1.0000
29.2300 1682.0000 1.0000
29.2400 1695.0000 1.0000
29.2500 1697.0000 1.0000
29.2600 1739.0000 1.0000
29.2700 1713.0000 1.0000
29.2800 1701.0000 1.0000
29.2900 1729.0000 1.0000
29.3000 1659.0000 1.0000
29.3100 1659.0000 1.0000
29.3200 1671.0000 1.0000
29.3300 1729.0000 1.0000
29.3400 1707.0000 1.0000
29.3500 1701.0000 1.0000
29.3600 1724.0000 1.0000
29.3700 1684.0000 1.0000
29.3800 1673.0000 1.0000
29.3900 1610.0000 1.0000
29.4000 1703.0000 1.0000
29.4100 1798.0000 1.0000
29.4200 1745.0000 1.0000
29.4300 1628.0000 1.0000
29.4400 1619.0000 1.0000
29.4500 1678.0000 1.0000
29.4600 1631.0000 1.0000
29.4700 1682.0000 1.0000
29.4800 1679.0000 1.0000
29.4900 1654.0000 1.0000
29.5000 1651.0000 1.0000
29.5100 1660.0000 1.0000
29.5200 1711.0000 1.0000
29.5300 1653.0000 1.0000
29.5400 1639.0000 1.0000
29.5500 1698.0000 1.0000
29.5600 1611.0000 1.0000
29.5700 1626.0000 1.0000
29.5800 1681.0000 1.0000
29.5900 1663.0000 1.0000
29.6000 1677.0000 1.0000
29.6100 1647.0000 1.0000
29.6200 1700.0000 1.0000
29.6300 1659.0000 1.0000
29.6400 1659.0000 1.0000
29.6500 1678.0000 1.0000
29.6600 1664.0000 1.0000
29.6700 1617.0000 1.0000
29.6800 1636.0000 1.0000
29.6900 1640.0000 1.0000
29.7000 1664.0000 1.0000
29.7100 1617.0000 1.0000
29.7200 1675.0000 1.0000
29.7300 1652.0000 1.0000
29.7400 1640.0000 1.0000
29.7500 1663.0000 1.0000
29.7600 1680.0000 1.0000
29.7700 1652.0000 1.0000
29.7800 1671.0000 1.0000
29.7900 1642.0000 1.0000
29.8000 1685.0000 1.0000
29.8100 1645.0000 1.0000
29.8200 1651.0000 1.0000
29.8300 1593.0000 1.0000
29.8400 1600.0000 1.0000
29.8500 1644.0000 1.0000
29.8600 1599.0000 1.0000
29.8700 1677.0000 1.0000
29.8800 1683.0000 1.0000
29.8900 1653.0000 1.0000
29.9000 1652.0000 1.0000
29.9100 1560.0000 1.0000
29.9200 1633.0000 1.0000
29.9300 1557.0000 1.0000
29.9400 1600.0000 1.0000
29.9500 1566.0000 1.0000
29.9600 1653.0000 1.0000
29.9700 1596.0000 1.0000
29.9800 1597.0000 1.0000
29.9900 1612.0000 1.0000
30.0000 1633.0000 1.0000
30.0100 1617.0000 1.0000
30.0200 1616.0000 1.0000
30.0300 1643.0000 1.0000
30.0400 1691.0000 1.0000
30.0500 1677.0000 1.0000
30.0600 1639.0000 1.0000
30.0700 1667.0000 1.0000
30.0800 1653.0000 1.0000
30.0900 1584.0000 1.0000
30.1000 1660.0000 1.0000
30.1100 1610.0000 1.0000
30.1200 1590.0000 1.0000
30.1300 1593.0000 1.0000
30.1400 1539.0000 1.0000
30.1500 1603.0000 1.0000
30.1600 1584.0000 1.0000
30.1700 1588.0000 1.0000
30.1800 1659.0000 1.0000
30.1900 1641.0000 1.0000
30.2000 1648.0000 1.0000
30.2100 1573.0000 1.0000
30.2200 1567.0000 1.0000
30.2300 1604.0000 1.0000
30.2400 1555.0000 1.0000
30.2500 1625.0000 1.0000
30.2600 1604.0000 1.0000
30.2700 1609.0000 1.0000
30.2800 1613.0000 1.0000
30.2900 1640.0000 1.0000
30.3000 1610.0000 1.0000
30.3100 1589.0000 1.0000
30.3200 1629.0000 1.0000
30.3300 1631.0000 1.0000
30.3400 1613.0000 1.0000
30.3500 1594.0000 1.0000
30.3600 1616.0000 1.0000
30.3700 1629.0000 1.0000
30.3800 1633.0000 1.0000
30.3900 1549.0000 1.0000
30.4000 1555.0000 1.0000
30.4100 1644.0000 1.0000
30.4200 1628.0000 1.0000
30.4300 1646.0000 1.0000
30.4400 1575.0000 1.0000
30.4500 1572.0000 1.0000
30.4600 1644.0000 1.0000
30.4700 1638.0000 1.0000
30.4800 1620.0000 1.0000
30.4900 1554.0000 1.0000
30.5000 1543.0000 1.0000
30.5100 1576.0000 1.0000
30.5200 1605.0000 1.0000
30.5300 1625.0000 1.0000
30.5400 1616.0000 1.0000
30.5500 1583.0000 1.0000
30.5600 1608.0000 1.0000
30.5700 1586.0000 1.0000
30.5800 1550.0000 1.0000
30.5900 1671.0000 1.0000
30.6000 1629.0000 1.0000
30.6100 1599.0000 1.0000
30.6200 1626.0000 1.0000
30.6300 1533.0000 1.0000
30.6400 1591.0000 1.0000
30.6500 1625.0000 1.0000
30.6600 1523.0000 1.0000
30.6700 1584.0000 1.0000
30.6800 1583.0000 1.0000
30.6900 1509.0000 1.0000
30.7000 1590.0000 1.0000
30.7100 1582.0000 1.0000
30.7200 1602.0000 1.0000
30.7300 1648.0000 1.0000
30.7400 1538.0000 1.0000
30.7500 1601.0000 1.0000
30.7600 1619.0000 1.0000
30.7700 1605.0000 1.0000
30.7800 1632.0000 1.0000
30.7900 1606.0000 1.0000
30.8000 1587.0000 1.0000
30.8100 1653.0000 1.0000
30.8200 1592.0000 1.0000
30.8300 1594.0000 1.0000
30.8400 1583.0000 1.0000
30.8500 1578.0000 1.0000
30.8600 1612.0000 1.0000
30.8700 1544.0000 1.0000
30.8800 1582.0000 1.0000
30.8900 1640.0000 1.0000
30.9000 1623.0000 1.0000
30.9100 1621.0000 1.0000
30.9200 1569.0000 1.0000
30.9300 1628.0000 1.0000
30.9400 1655.0000 1.0000
30.9500 1602.0000 1.0000
30.9600 1591.0000 1.0000
30.9700 1592.0000 1.0000
30.9800 1549.0000 1.0000
30.9900 1624.0000 1.0000
31.0000 1630.0000 1.0000
31.0100 1595.0000 1.0000
31.0200 1611.0000 1.0000
31.0300 1592.0000 1.0000
31.0400 1555.0000 1.0000
31.0500 1568.0000 1.0000
31.0600 1567.0000 1.0000
31.0700 1554.0000 1.0000
31.0800 1605.0000 1.0000
31.0900 1584.0000 1.0000
31.1000 1605.0000 1.0000
31.1100 1583.0000 1.0000
31.1200 1601.0000 1.0000
31.1300 1564.0000 1.0000
31.1400 1556.0000 1.0000
31.1500 1511.0000 1.0000
31.1600 1546.0000 1.0000
31.1700 1518.0000 1.0000
31.1800 1512.0000 1.0000
31.1900 1587.0000 1.0000
31.2000 1592.0000 1.0000
31.2100 1557.0000 1.0000
31.2200 1542.0000 1.0000
31.2300 1559.0000 1.0000
31.2400 1534.0000 1.0000
31.2500 1558.0000 1.0000
31.2600 1579.0000 1.0000
31.2700 1562.0000 1.0000
31.2800 1562.0000 1.0000
31.2900 1590.0000 1.0000
31.3000 1543.0000 1.0000
31.3100 1532.0000 1.0000
31.3200 1495.0000 1.0000
31.3300 1540.0000 1.0000
31.3400 1546.0000 1.0000
31.3500 1567.0000 1.0000
31.3600 1514.0000 1.0000
31.3700 1574.0000 1.0000
31.3800 1570.0000 1.0000
31.3900 1574.0000 1.0000
31.4000 1572.0000 1.0000
31.4100 1517.0000 1.0000
31.4200 1452.0000 1.0000
31.4300 1495.0000 1.0000
31.4400 1500.0000 1.0000
31.4500 1484.0000 1.0000
31.4600 1521.0000 1.0000
31.4700 1546.0000 1.0000
31.4800 1500.0000 1.0000
31.4900 1538.0000 1.0000
31.5000 1455.0000 1.0000
31.5100 1554.0000 1.0000
31.5200 1525.0000 1.0000
31.5300 1547.0000 1.0000
31.5400 1515.0000 1.0000
31.5500 1527.0000 1.0000
31.5600 1512.0000 1.0000
31.5700 1587.0000 1.0000
31.5800 1535.0000 1.0000
31.5900 1527.0000 1.0000
31.6000 1487.0000 1.0000
31.6100 1537.0000 1.0000
31.6200 1504.0000 1.0000
31.6300 1499.0000 1.0000
31.6400 1521.0000 1.0000
31.6500 1492.0000 1.0000
31.6600 1484.0000 1.0000
31.6700 1526.0000 1.0000
31.6800 1506.0000 1.0000
31.6900 1473.0000 1.0000
31.7000 1471.0000 1.0000
31.7100 1511.0000 1.0000
31.7200 1537.0000 1.0000
31.7300 1509.0000 1.0000
31.7400 1500.0000 1.0000
31.7500 1526.0000 1.0000
31.7600 1522.0000 1.0000
31.7700 1540.0000 1.0000
31.7800 1542.0000 1.0000
31.7900 1533.0000 1.0000
31.8000 1543.0000 1.0000
31.8100 1549.0000 1.0000
31.8200 1589.0000 1.0000
31.8300 1546.0000 1.0000
31.8400 1523.0000 1.0000
31.8500 1521.0000 1.0000
31.8600 1550.0000 1.0000
31.8700 1491.0000 1.0000
31.8800 1522.0000 1.0000
31.8900 1597.0000 1.0000
31.9000 1587.0000 1.0000
31.9100 1571.0000 1.0000
31.9200 1567.0000 1.0000
31.9300 1498.0000 1.0000
31.9400 1478.0000 1.0000
31.9500 1484.0000 1.0000
31.9600 1563.0000 1.0000
31.9700 1563.0000 1.0000
31.9800 1593.0000 1.0000
31.9900 1552.0000 1.0000
32.0000 1537.0000 1.0000
32.0100 1504.0000 1.0000
32.0200 1594.0000 1.0000
32.0300 1554.0000 1.0000
32.0400 1562.0000 1.0000
32.0500 1563.0000 1.0000
32.0600 1590.0000 1.0000
32.0700 1553.0000 1.0000
32.0800 1564.0000 1.0000
32.0900 1513.0000 1.0000
32.1000 1546.0000 1.0000
32.1100 1581.0000 1.0000
32.1200 1516.0000 1.0000
32.1300 1514.0000 1.0000
32.1400 1526.0000 1.0000
32.1500 1517.0000 1.0000
32.1600 1479.0000 1.0000
32.1700 1487.0000 1.0000
32.1800 1534.0000 1.0000
32.1900 1574.0000 1.0000
32.2000 1516.0000 1.0000
32.2100 1522.0000 1.0000
32.2200 1484.0000 1.0000
32.2300 1484.0000 1.0000
32.2400 1508.0000 1.0000
32.2500 1545.0000 1.0000
32.2600 1501.0000 1.0000
32.2700 1493.0000 1.0000
32.2800 1532.0000 1.0000
32.2900 1507.0000 1.0000
32.3000 1574.0000 1.0000
32.3100 1544.0000 1.0000
32.3200 1487.0000 1.0000
32.3300 1496.0000 1.0000
32.3400 1485.0000 1.0000
32.3500 1490.0000 1.0000
32.3600 1497.0000 1.0000
32.3700 1556.0000 1.0000
32.3800 1497.0000 1.0000
32.3900 1521.0000 1.0000
32.4000 1530.0000 1.0000
32.4100 1484.0000 1.0000
32.4200 1483.0000 1.0000
32.4300 1431.0000 1.0000
32.4400 1524.0000 1.0000
32.4500 1461.0000 1.0000
32.4600 1441.0000 1.0000
32.4700 1507.0000 1.0000
32.4800 1516.0000 1.0000
32.4900 1543.0000 1.0000
32.5000 1502.0000 1.0000
32.5100 1497.0000 1.0000
32.5200 1454.0000 1.0000
32.5300 1425.0000 1.0000
32.5400 1429.0000 1.0000
32.5500 1531.0000 1.0000
32.5600 1524.0000 1.0000
32.5700 1442.0000 1.0000
32.5800 1481.0000 1.0000
32.5900 1475.0000 1.0000
32.6000 1444.0000 1.0000
32.6100 1517.0000 1.0000
32.6200 1527.0000 1.0000
32.6300 1456.0000 1.0000
32.6400 1514.0000 1.0000
32.6500 1520.0000 1.0000
32.6600 1455.0000 1.0000
32.6700 1495.0000 1.0000
32.6800 1425.0000 1.0000
32.6900 1464.0000 1.0000
32.7000 1483.0000 1.0000
32.7100 1473.0000 1.0000
32.7200 1468.0000 1.0000
32.7300 1464.0000 1.0000
32.7400 1455.0000 1.0000
32.7500 1500.0000 1.0000
32.7600 1449.0000 1.0000
32.7700 1447.0000 1.0000
32.7800 1441.0000 1.0000
32.7900 1451.0000 1.0000
32.8000 1477.0000 1.0000
32.8100 1447.0000 1.0000
32.8200 1437.0000 1.0000
32.8300 1468.0000 1.0000
32.8400 1504.0000 1.0000
32.8500 1507.0000 1.0000
32.8600 1473.0000 1.0000
32.8700 1449.0000 1.0000
32.8800 1433.0000 1.0000
32.8900 1461.0000 1.0000
32.9000 1445.0000 1.0000
32.9100 1415.0000 1.0000
32.9200 1492.0000 1.0000
32.9300 1439.0000 1.0000
32.9400 1441.0000 1.0000
32.9500 1484.0000 1.0000
32.9600 1437.0000 1.0000
32.9700 1459.0000 1.0000
32.9800 1435.0000 1.0000
32.9900 1460.0000 1.0000
33.0000 1469.0000 1.0000
33.0100 1493.0000 1.0000
33.0200 1419.0000 1.0000
33.0300 1455.0000 1.0000
33.0400 1409.0000 1.0000
33.0500 1513.0000 1.0000
33.0600 1544.0000 1.0000
33.0700 1493.0000 1.0000
33.0800 1448.0000 1.0000
33.0900 1447.0000 1.0000
33.1000 1436.0000 1.0000
33.1100 1407.0000 1.0000
33.1200 1477.0000 1.0000
33.1300 1422.0000 1.0000
33.1400 1416.0000 1.0000
33.1500 1447.0000 1.0000
33.1600 1457.0000 1.0000
33.1700 1380.0000 1.0000
33.1800 1448.0000 1.0000
33.1900 1428.0000 1.0000
33.2000 1492.0000 1.0000
33.2100 1436.0000 1.0000
33.2200 1455.0000 1.0000
33.2300 1469.0000 1.0000
33.2400 1384.0000 1.0000
33.2500 1438.0000 1.0000
33.2600 1453.0000 1.0000
33.2700 1437.0000 1.0000
33.2800 1455.0000 1.0000
33.2900 1390.0000 1.0000
33.3000 1410.0000 1.0000
33.3100 1438.0000 1.0000
33.3200 1446.0000 1.0000
33.3300 1444.0000 1.0000
33.3400 1466.0000 1.0000
33.3500 1404.0000 1.0000
33.3600 1418.0000 1.0000
33.3700 1445.0000 1.0000
33.3800 1436.0000 1.0000
33.3900 1447.0000 1.0000
33.4000 1433.0000 1.0000
33.4100 1411.0000 1.0000
33.4200 1436.0000 1.0000
33.4300 1472.0000 1.0000
33.4400 1438.0000 1.0000
33.4500 1410.0000 1.0000
33.4600 1427.0000 1.0000
33.4700 1458.0000 1.0000
33.4800 1448.0000 1.0000
33.4900 1494.0000 1.0000
33.5000 1514.0000 1.0000
33.5100 1403.0000 1.0000
33.5200 1409.0000 1.0000
33.5300 1450.0000 1.0000
33.5400 1447.0000 1.0000
33.5500 1405.0000 1.0000
33.5600 1486.0000 1.0000
33.5700 1449.0000 1.0000
33.5800 1458.0000 1.0000
33.5900 1471.0000 1.0000
33.6000 1473.0000 1.0000
33.6100 1452.0000 1.0000
33.6200 1456.0000 1.0000
33.6300 1447.0000 1.0000
33.6400 1478.0000 1.0000
33.6500 1474.0000 1.0000
33.6600 1501.0000 1.0000
33.6700 1450.0000 1.0000
33.6800 1491.0000 1.0000
33.6900 1446.0000 1.0000
33.7000 1430.0000 1.0000
33.7100 1457.0000 1.0000
33.7200 1488.0000 1.0000
33.7300 1489.0000 1.0000
33.7400 1524.0000 1.0000
33.7500 1511.0000 1.0000
33.7600 1474.0000 1.0000
33.7700 1497.0000 1.0000
33.7800 1550.0000 1.0000
33.7900 1443.0000 1.0000
33.8000 1474.0000 1.0000
33.8100 1507.0000 1.0000
33.8200 1559.0000 1.0000
33.8300 1550.0000 1.0000
33.8400 1521.0000 1.0000
33.8500 1540.0000 1.0000
33.8600 1620.0000 1.0000
33.8700 1540.0000 1.0000
33.8800 1499.0000 1.0000
33.8900 1529.0000 1.0000
33.9000 1564.0000 1.0000
33.9100 1489.0000 1.0000
33.9200 1497.0000 1.0000
33.9300 1500.0000 1.0000
33.9400 1533.0000 1.0000
33.9500 1526.0000 1.0000
33.9600 1535.0000 1.0000
33.9700 1561.0000 1.0000
33.9800 1591.0000 1.0000
33.9900 1573.0000 1.0000
34.0000 1636.0000 1.0000
34.0100 1620.0000 1.0000
34.0200 1589.0000 1.0000
34.0300 1591.0000 1.0000
34.0400 1517.0000 1.0000
34.0500 1593.0000 1.0000
34.0600 1505.0000 1.0000
34.0700 1594.0000 1.0000
34.0800 1584.0000 1.0000
34.0900 1584.0000 1.0000
34.1000 1577.0000 1.0000
34.1100 1666.0000 1.0000
34.1200 1600.0000 1.0000
34.1300 1630.0000 1.0000
34.1400 1595.0000 1.0000
34.1500 1621.0000 1.0000
34.1600 1664.0000 1.0000
34.1700 1660.0000 1.0000
34.1800 1666.0000 1.0000
34.1900 1732.0000 1.0000
34.2000 1797.0000 1.0000
34.2100 1745.0000 1.0000
34.2200 1670.0000 1.0000
34.2300 1820.0000 1.0000
34.2400 1851.0000 1.0000
34.2500 1786.0000 1.0000
34.2600 1791.0000 1.0000
34.2700 1809.0000 1.0000
34.2800 1914.0000 1.0000
34.2900 1917.0000 1.0000
34.3000 1989.0000 1.0000
34.3100 1993.0000 1.0000
34.3200 2068.0000 1.0000
34.3300 2116.0000 1.0000
34.3400 2212.0000 1.0000
34.3500 2267.0000 1.0000
34.3600 2291.0000 1.0000
34.3700 2380.0000 1.0000
34.3800 2436.0000 1.0000
34.3900 2553.0000 1.0000
34.4000 2725.0000 1.0000
34.4100 2749.0000 1.0000
34.4200 2809.0000 1.0000
34.4300 2940.0000 1.0000
34.4400 2992.0000 1.0000
34.4500 3033.0000 1.0000
34.4600 3054.0000 1.0000
34.4700 3096.0000 1.0000
34.4800 3077.0000 1.0000
34.4900 3100.0000 1.0000
34.5000 3071.0000 1.0000
34.5100 3103.0000 1.0000
34.5200 2947.0000 1.0000
34.5300 2838.0000 1.0000
34.5400 2836.0000 1.0000
34.5500 2777.0000 1.0000
34.5600 2630.0000 1.0000
34.5700 2542.0000 1.0000
34.5800 2480.0000 1.0000
34.5900 2481.0000 1.0000
34.6000 2439.0000 1.0000
34.6100 2329.0000 1.0000
34.6200 2238.0000 1.0000
34.6300 2219.0000 1.0000
34.6400 2128.0000 1.0000
34.6500 2034.0000 1.0000
34.6600 1931.0000 1.0000
34.6700 1972.0000 1.0000
34.6800 1967.0000 1.0000
34.6900 1905.0000 1.0000
34.7000 1803.0000 1.0000
34.7100 1802.0000 1.0000
34.7200 1768.0000 1.0000
34.7300 1748.0000 1.0000
34.7400 1721.0000 1.0000
34.7500 1742.0000 1.0000
34.7600 1732.0000 1.0000
34.7700 1675.0000 1.0000
34.7800 1654.0000 1.0000
34.7900 1635.0000 1.0000
34.8000 1654.0000 1.0000
34.8100 1648.0000 1.0000
34.8200 1572.0000 1.0000
34.8300 1584.0000 1.0000
34.8400 1532.0000 1.0000
34.8500 1600.0000 1.0000
34.8600 1547.0000 1.0000
34.8700 1509.0000 1.0000
34.8800 1496.0000 1.0000
34.8900 1516.0000 1.0000
34.9000 1463.0000 1.0000
34.9100 1497.0000 1.0000
34.9200 1421.0000 1.0000
34.9300 1462.0000 1.0000
34.9400 1439.0000 1.0000
34.9500 1449.0000 1.0000
34.9600 1369.0000 1.0000
34.9700 1391.0000 1.0000
34.9800 1396.0000 1.0000
34.9900 1440.0000 1.0000
35.0000 1352.0000 1.0000
35.0100 1340.0000 1.0000
35.0200 1383.0000 1.0000
35.0300 1414.0000 1.0000
35.0400 1353.0000 1.0000
35.0500 1395.0000 1.0000
35.0600 1305.0000 1.0000
35.0700 1309.0000 1.0000
35.0800 1309.0000 1.0000
35.0900 1331.0000 1.0000
35.1000 1327.0000 1.0000
35.1100 1362.0000 1.0000
35.1200 1335.0000 1.0000
35.1300 1303.0000 1.0000
35.1400 1415.0000 1.0000
35.1500 1381.0000 1.0000
35.1600 1325.0000 1.0000
35.1700 1361.0000 1.0000
35.1800 1336.0000 1.0000
35.1900 1329.0000 1.0000
35.2000 1288.0000 1.0000
35.2100 1295.0000 1.0000
35.2200 1283.0000 1.0000
35.2300 1302.0000 1.0000
35.2400 1327.0000 1.0000
35.2500 1289.0000 1.0000
35.2600 1384.0000 1.0000
35.2700 1291.0000 1.0000
35.2800 1294.0000 1.0000
35.2900 1250.0000 1.0000
35.3000 1320.0000 1.0000
35.3100 1290.0000 1.0000
35.3200 1296.0000 1.0000
35.3300 1297.0000 1.0000
35.3400 1298.0000 1.0000
35.3500 1349.0000 1.0000
35.3600 1299.0000 1.0000
35.3700 1317.0000 1.0000
35.3800 1300.0000 1.0000
35.3900 1310.0000 1.0000
35.4000 1284.0000 1.0000
35.4100 1300.0000 1.0000
35.4200 1299.0000 1.0000
35.4300 1287.0000 1.0000
35.4400 1265.0000 1.0000
35.4500 1302.0000 1.0000
35.4600 1265.0000 1.0000
35.4700 1329.0000 1.0000
35.4800 1341.0000 1.0000
35.4900 1337.0000 1.0000
35.5000 1366.0000 1.0000
35.5100 1296.0000 1.0000
35.5200 1294.0000 1.0000
35.5300 1254.0000 1.0000
35.5400 1269.0000 1.0000
35.5500 1239.0000 1.0000
35.5600 1254.0000 1.0000
35.5700 1284.0000 1.0000
35.5800 1299.0000 1.0000
35.5900 1313.0000 1.0000
35.6000 1272.0000 1.0000
35.6100 1216.0000 1.0000
35.6200 1315.0000 1.0000
35.6300 1223.0000 1.0000
35.6400 1246.0000 1.0000
35.6500 1262.0000 1.0000
35.6600 1245.0000 1.0000
35.6700 1298.0000 1.0000
35.6800 1272.0000 1.0000
35.6900 1217.0000 1.0000
35.7000 1253.0000 1.0000
35.7100 1309.0000 1.0000
35.7200 1322.0000 1.0000
35.7300 1273.0000 1.0000
35.7400 1292.0000 1.0000
35.7500 1221.0000 1.0000
35.7600 1256.0000 1.0000
35.7700 1262.0000 1.0000
35.7800 1259.0000 1.0000
35.7900 1224.0000 1.0000
35.8000 1288.0000 1.0000
35.8100 1235.0000 1.0000
35.8200 1259.0000 1.0000
35.8300 1290.0000 1.0000
35.8400 1242.0000 1.0000
35.8500 1268.0000 1.0000
35.8600 1251.0000 1.0000
35.8700 1297.0000 1.0000
35.8800 1311.0000 1.0000
35.8900 1276.0000 1.0000
35.9000 1286.0000 1.0000
35.9100 1278.0000 1.0000
35.9200 1264.0000 1.0000
35.9300 1312.0000 1.0000
35.9400 1292.0000 1.0000
35.9500 1344.0000 1.0000
35.9600 1297.0000 1.0000
35.9700 1281.0000 1.0000
35.9800 1311.0000 1.0000
35.9900 1309.0000 1.0000
36.0000 1321.0000 1.0000
36.0100 1328.0000 1.0000
36.0200 1328.0000 1.0000
36.0300 1324.0000 1.0000
36.0400 1350.0000 1.0000
36.0500 1381.0000 1.0000
36.0600 1365.0000 1.0000
36.0700 1364.0000 1.0000
36.0800 1335.0000 1.0000
36.0900 1390.0000 1.0000
36.1000 1413.0000 1.0000
36.1100 1396.0000 1.0000
36.1200 1414.0000 1.0000
36.1300 1370.0000 1.0000
36.1400 1435.0000 1.0000
36.1500 1493.0000 1.0000
36.1600 1464.0000 1.0000
36.1700 1495.0000 1.0000
36.1800 1552.0000 1.0000
36.1900 1562.0000 1.0000
36.2000 1578.0000 1.0000
36.2100 1571.0000 1.0000
36.2200 1580.0000 1.0000
36.2300 1662.0000 1.0000
36.2400 1715.0000 1.0000
36.2500 1761.0000 1.0000
36.2600 1778.0000 1.0000
36.2700 1740.0000 1.0000
36.2800 1749.0000 1.0000
36.2900 1862.0000 1.0000
36.3000 1910.0000 1.0000
36.3100 1898.0000 1.0000
36.3200 1947.0000 1.0000
36.3300 1957.0000 1.0000
36.3400 2004.0000 1.0000
36.3500 2100.0000 1.0000
36.3600 2104.0000 1.0000
36.3700 2093.0000 1.0000
36.3800 2153.0000 1.0000
36.3900 2158.0000 1.0000
36.4000 2063.0000 1.0000
36.4100 2077.0000 1.0000
36.4200 2141.0000 1.0000
36.4300 2097.0000 1.0000
36.4400 2046.0000 1.0000
36.4500 2105.0000 1.0000
36.4600 1981.0000 1.0000
36.4700 1950.0000 1.0000
36.4800 1948.0000 1.0000
36.4900 1906.0000 1.0000
36.5000 1896.0000 1.0000
36.5100 1797.0000 1.0000
36.5200 1736.0000 1.0000
36.5300 1735.0000 1.0000
36.5400 1715.0000 1.0000
36.5500 1731.0000 1.0000
36.5600 1714.0000 1.0000
36.5700 1578.0000 1.0000
36.5800 1525.0000 1.0000
36.5900 1577.0000 1.0000
36.6000 1526.0000 1.0000
36.6100 1524.0000 1.0000
36.6200 1447.0000 1.0000
36.6300 1458.0000 1.0000
36.6400 1417.0000 1.0000
36.6500 1365.0000 1.0000
36.6600 1443.0000 1.0000
36.6700 1296.0000 1.0000
36.6800 1317.0000 1.0000
36.6900 1344.0000 1.0000
36.7000 1356.0000 1.0000
36.7100 1256.0000 1.0000
36.7200 1275.0000 1.0000
36.7300 1214.0000 1.0000
36.7400 1307.0000 1.0000
36.7500 1272.0000 1.0000
36.7600 1265.0000 1.0000
36.7700 1265.0000 1.0000
36.7800 1272.0000 1.0000
36.7900 1256.0000 1.0000
36.8000 1252.0000 1.0000
36.8100 1296.0000 1.0000
36.8200 1219.0000 1.0000
36.8300 1193.0000 1.0000
36.8400 1174.0000 1.0000
36.8500 1186.0000 1.0000
36.8600 1188.0000 1.0000
36.8700 1178.0000 1.0000
36.8800 1241.0000 1.0000
36.8900 1206.0000 1.0000
36.9000 1198.0000 1.0000
36.9100 1163.0000 1.0000
36.9200 1205.0000 1.0000
36.9300 1157.0000 1.0000
36.9400 1208.0000 1.0000
36.9500 1145.0000 1.0000
36.9600 1160.0000 1.0000
36.9700 1179.0000 1.0000
36.9800 1153.0000 1.0000
36.9900 1210.0000 1.0000
37.0000 1172.0000 1.0000
37.0100 1197.0000 1.0000
37.0200 1187.0000 1.0000
37.0300 1195.0000 1.0000
37.0400 1184.0000 1.0000
37.0500 1173.0000 1.0000
37.0600 1192.0000 1.0000
37.0700 1162.0000 1.0000
37.0800 1159.0000 1.0000
37.0900 1204.0000 1.0000
37.1000 1178.0000 1.0000
37.1100 1178.0000 1.0000
37.1200 1238.0000 1.0000
37.1300 1155.0000 1.0000
37.1400 1131.0000 1.0000
37.1500 1115.0000 1.0000
37.1600 1163.0000 1.0000
37.1700 1205.0000 1.0000
37.1800 1169.0000 1.0000
37.1900 1150.0000 1.0000
37.2000 1156.0000 1.0000
37.2100 1120.0000 1.0000
37.2200 1149.0000 1.0000
37.2300 1163.0000 1.0000
37.2400 1187.0000 1.0000
37.2500 1184.0000 1.0000
37.2600 1177.0000 1.0000
37.2700 1198.0000 1.0000
37.2800 1220.0000 1.0000
37.2900 1099.0000 1.0000
37.3000 1233.0000 1.0000
37.3100 1132.0000 1.0000
37.3200 1170.0000 1.0000
37.3300 1187.0000 1.0000
37.3400 1127.0000 1.0000
37.3500 1175.0000 1.0000
37.3600 1162.0000 1.0000
37.3700 1135.0000 1.0000
37.3800 1209.0000 1.0000
37.3900 1174.0000 1.0000
37.4000 1183.0000 1.0000
37.4100 1166.0000 1.0000
37.4200 1233.0000 1.0000
37.4300 1109.0000 1.0000
37.4400 1155.0000 1.0000
37.4500 1180.0000 1.0000
37.4600 1196.0000 1.0000
37.4700 1143.0000 1.0000
37.4800 1151.0000 1.0000
37.4900 1157.0000 1.0000
37.5000 1148.0000 1.0000
37.5100 1208.0000 1.0000
37.5200 1232.0000 1.0000
37.5300 1208.0000 1.0000
37.5400 1161.0000 1.0000
37.5500 1164.0000 1.0000
37.5600 1151.0000 1.0000
37.5700 1187.0000 1.0000
37.5800 1115.0000 1.0000
37.5900 1105.0000 1.0000
37.6000 1175.0000 1.0000
37.6100 1150.0000 1.0000
37.6200 1170.0000 1.0000
37.6300 1202.0000 1.0000
37.6400 1172.0000 1.0000
37.6500 1200.0000 1.0000
37.6600 1204.0000 1.0000
37.6700 1171.0000 1.0000
37.6800 1138.0000 1.0000
37.6900 1159.0000 1.0000
37.7000 1176.0000 1.0000
37.7100 1199.0000 1.0000
37.7200 1154.0000 1.0000
37.7300 1172.0000 1.0000
37.7400 1131.0000 1.0000
37.7500 1142.0000 1.0000
37.7600 1145.0000 1.0000
37.7700 1177.0000 1.0000
37.7800 1210.0000 1.0000
37.7900 1171.0000 1.0000
37.8000 1175.0000 1.0000
37.8100 1161.0000 1.0000
37.8200 1204.0000 1.0000
37.8300 1206.0000 1.0000
37.8400 1154.0000 1.0000
37.8500 1171.0000 1.0000
37.8600 1167.0000 1.0000
37.8700 1188.0000 1.0000
37.8800 1207.0000 1.0000
37.8900 1170.0000 1.0000
37.9000 1136.0000 1.0000
37.9100 1251.0000 1.0000
37.9200 1226.0000 1.0000
37.9300 1186.0000 1.0000
37.9400 1186.0000 1.0000
37.9500 1204.0000 1.0000
37.9600 1203.0000 1.0000
37.9700 1233.0000 1.0000
37.9800 1266.0000 1.0000
37.9900 1248.0000 1.0000
38.0000 1303.0000 1.0000
38.0100 1222.0000 1.0000
38.0200 1296.0000 1.0000
38.0300 1275.0000 1.0000
38.0400 1266.0000 1.0000
38.0500 1313.0000 1.0000
38.0600 1346.0000 1.0000
38.0700 1318.0000 1.0000
38.0800 1343.0000 1.0000
38.0900 1415.0000 1.0000
38.1000 1399.0000 1.0000
38.1100 1378.0000 1.0000
38.1200 1368.0000 1.0000
38.1300 1428.0000 1.0000
38.1400 1452.0000 1.0000
38.1500 1512.0000 1.0000
38.1600 1574.0000 1.0000
38.1700 1567.0000 1.0000
38.1800 1593.0000 1.0000
38.1900 1736.0000 1.0000
38.2000 1680.0000 1.0000
38.2100 1772.0000 1.0000
38.2200 1813.0000 1.0000
38.2300 1852.0000 1.0000
38.2400 1869.0000 1.0000
38.2500 2002.0000 1.0000
38.2600 2046.0000 1.0000
38.2700 2117.0000 1.0000
38.2800 2184.0000 1.0000
38.2900 2312.0000 1.0000
38.3000 2492.0000 1.0000
38.3100 2542.0000 1.0000
38.3200 2655.0000 1.0000
38.3300 2810.0000 1.0000
38.3400 2991.0000 1.0000
38.3500 3106.0000 1.0000
38.3600 3296.0000 1.0000
38.3700 3531.0000 1.0000
38.3800 3805.0000 1.0000
38.3900 4091.0000 1.0000
38.4000 4407.0000 1.0000
38.4100 4894.0000 1.0000
38.4200 4915.0000 1.0000
38.4300 5407.0000 1.0000
38.4400 5762.0000 1.0000
38.4500 6225.0000 1.0000
38.4600 6673.0000 1.0000
38.4700 6984.0000 1.0000
38.4800 7179.0000 1.0000
38.4900 7419.0000 1.0000
38.5000 7626.0000 1.0000
38.5100 7631.0000 1.0000
38.5200 7787.0000 1.0000
38.5300 7871.0000 1.0000
38.5400 7649.0000 1.0000
38.5500 7649.0000 1.0000
38.5600 7364.0000 1.0000
38.5700 7318.0000 1.0000
38.5800 7024.0000 1.0000
38.5900 6769.0000 1.0000
38.6000 6515.0000 1.0000
38.6100 6101.0000 1.0000
38.6200 5890.0000 1.0000
38.6300 5486.0000 1.0000
38.6400 5204.0000 1.0000
38.6500 5027.0000 1.0000
38.6600 4716.0000 1.0000
38.6700 4335.0000 1.0000
38.6800 4015.0000 1.0000
38.6900 3880.0000 1.0000
38.7000 3574.0000 1.0000
38.7100 3261.0000 1.0000
38.7200 3080.0000 1.0000
38.7300 2886.0000 1.0000
38.7400 2783.0000 1.0000
38.7500 2546.0000 1.0000
38.7600 2497.0000 1.0000
38.7700 2316.0000 1.0000
38.7800 2146.0000 1.0000
38.7900 2176.0000 1.0000
38.8000 2032.0000 1.0000
38.8100 1861.0000 1.0000
38.8200 1913.0000 1.0000
38.8300 1787.0000 1.0000
38.8400 1695.0000 1.0000
38.8500 1628.0000 1.0000
38.8600 1593.0000 1.0000
38.8700 1564.0000 1.0000
38.8800 1481.0000 1.0000
38.8900 1487.0000 1.0000
38.9000 1432.0000 1.0000
38.9100 1366.0000 1.0000
38.9200 1428.0000 1.0000
38.9300 1357.0000 1.0000
38.9400 1312.0000 1.0000
38.9500 1368.0000 1.0000
38.9600 1278.0000 1.0000
38.9700 1242.0000 1.0000
38.9800 1274.0000 1.0000
38.9900 1262.0000 1.0000
39.0000 1267.0000 1.0000
39.0100 1208.0000 1.0000
39.0200 1213.0000 1.0000
39.0300 1192.0000 1.0000
39.0400 1158.0000 1.0000
39.0500 1195.0000 1.0000
39.0600 1160.0000 1.0000
39.0700 1181.0000 1.0000
39.0800 1144.0000 1.0000
39.0900 1200.0000 1.0000
39.1000 1170.0000 1.0000
39.1100 1137.0000 1.0000
39.1200 1147.0000 1.0000
39.1300 1161.0000 1.0000
39.1400 1111.0000 1.0000
39.1500 1115.0000 1.0000
39.1600 1113.0000 1.0000
39.1700 1077.0000 1.0000
39.1800 1086.0000 1.0000
39.1900 1133.0000 1.0000
39.2000 1127.0000 1.0000
39.2100 1056.0000 1.0000
39.2200 1102.0000 1.0000
39.2300 1145.0000 1.0000
39.2400 1085.0000 1.0000
39.2500 1065.0000 1.0000
39.2600 1060.0000 1.0000
39.2700 1106.0000 1.0000
39.2800 1050.0000 1.0000
39.2900 1054.0000 1.0000
39.3000 1075.0000 1.0000
39.3100 1064.0000 1.0000
39.3200 1083.0000 1.0000
39.3300 1047.0000 1.0000
39.3400 1087.0000 1.0000
39.3500 1088.0000 1.0000
39.3600 1041.0000 1.0000
39.3700 1088.0000 1.0000
39.3800 1091.0000 1.0000
39.3900 1082.0000 1.0000
39.4000 1062.0000 1.0000
39.4100 1050.0000 1.0000
39.4200 1076.0000 1.0000
39.4300 1060.0000 1.0000
39.4400 1083.0000 1.0000
39.4500 1067.0000 1.0000
39.4600 1025.0000 1.0000
39.4700 1084.0000 1.0000
39.4800 1049.0000 1.0000
39.4900 1045.0000 1.0000
39.5000 1041.0000 1.0000
39.5100 1105.0000 1.0000
39.5200 1083.0000 1.0000
39.5300 1123.0000 1.0000
39.5400 1112.0000 1.0000
39.5500 1079.0000 1.0000
39.5600 1097.0000 1.0000
39.5700 1110.0000 1.0000
39.5800 1080.0000 1.0000
39.5900 1098.0000 1.0000
39.6000 1086.0000 1.0000
39.6100 1104.0000 1.0000
39.6200 1053.0000 1.0000
39.6300 1089.0000 1.0000
39.6400 1091.0000 1.0000
39.6500 1043.0000 1.0000
39.6600 1073.0000 1.0000
39.6700 1074.0000 1.0000
39.6800 1003.0000 1.0000
39.6900 1074.0000 1.0000
39.7000 1097.0000 1.0000
39.7100 1043.0000 1.0000
39.7200 1057.0000 1.0000
39.7300 1056.0000 1.0000
39.7400 1029.0000 1.0000
39.7500 1063.0000 1.0000
39.7600 1047.0000 1.0000
39.7700 1022.0000 1.0000
39.7800 982.0000 1.0000
39.7900 1053.0000 1.0000
39.8000 1042.0000 1.0000
39.8100 970.0000 1.0000
39.8200 1037.0000 1.0000
39.8300 1058.0000 1.0000
39.8400 1076.0000 1.0000
39.8500 1025.0000 1.0000
39.8600 1015.0000 1.0000
39.8700 1010.0000 1.0000
39.8800 1006.0000 1.0000
39.8900 1016.0000 1.0000
39.9000 1015.0000 1.0000
39.9100 981.0000 1.0000
39.9200 1043.0000 1.0000
39.9300 1007.0000 1.0000
39.9400 1013.0000 1.0000
39.9500 989.0000 1.0000
39.9600 1001.0000 1.0000
39.9700 965.0000 1.0000
39.9800 989.0000 1.0000
39.9900 999.0000 1.0000
40.0000 987.0000 1.0000
40.0100 1029.0000 1.0000
40.0200 1053.0000 1.0000
40.0300 1021.0000 1.0000
40.0400 941.0000 1.0000
40.0500 967.0000 1.0000
40.0600 949.0000 1.0000
40.0700 985.0000 1.0000
40.0800 934.0000 1.0000
40.0900 1015.0000 1.0000
40.1000 971.0000 1.0000
40.1100 965.0000 1.0000
40.1200 967.0000 1.0000
40.1300 978.0000 1.0000
40.1400 1016.0000 1.0000
40.1500 997.0000 1.0000
40.1600 992.0000 1.0000
40.1700 1008.0000 1.0000
40.1800 1007.0000 1.0000
40.1900 1002.0000 1.0000
40.2000 1019.0000 1.0000
40.2100 1002.0000 1.0000
40.2200 996.0000 1.0000
40.2300 942.0000 1.0000
40.2400 951.0000 1.0000
40.2500 933.0000 1.0000
40.2600 978.0000 1.0000
40.2700 977.0000 1.0000
40.2800 989.0000 1.0000
40.2900 994.0000 1.0000
40.3000 957.0000 1.0000
40.3100 1014.0000 1.0000
40.3200 998.0000 1.0000
40.3300 1044.0000 1.0000
40.3400 997.0000 1.0000
40.3500 951.0000 1.0000
40.3600 951.0000 1.0000
40.3700 993.0000 1.0000
40.3800 1011.0000 1.0000
40.3900 924.0000 1.0000
40.4000 995.0000 1.0000
40.4100 989.0000 1.0000
40.4200 974.0000 1.0000
40.4300 1007.0000 1.0000
40.4400 953.0000 1.0000
40.4500 990.0000 1.0000
40.4600 974.0000 1.0000
40.4700 952.0000 1.0000
40.4800 946.0000 1.0000
40.4900 959.0000 1.0000
40.5000 960.0000 1.0000
40.5100 970.0000 1.0000
40.5200 948.0000 1.0000
40.5300 953.0000 1.0000
40.5400 998.0000 1.0000
40.5500 929.0000 1.0000
40.5600 959.0000 1.0000
40.5700 944.0000 1.0000
40.5800 984.0000 1.0000
40.5900 1008.0000 1.0000
40.6000 951.0000 1.0000
40.6100 965.0000 1.0000
40.6200 929.0000 1.0000
40.6300 915.0000 1.0000
40.6400 977.0000 1.0000
40.6500 924.0000 1.0000
40.6600 953.0000 1.0000
40.6700 977.0000 1.0000
40.6800 1017.0000 1.0000
40.6900 958.0000 1.0000
40.7000 984.0000 1.0000
40.7100 947.0000 1.0000
40.7200 970.0000 1.0000
40.7300 954.0000 1.0000
40.7400 957.0000 1.0000
40.7500 962.0000 1.0000
40.7600 926.0000 1.0000
40.7700 996.0000 1.0000
40.7800 951.0000 1.0000
40.7900 963.0000 1.0000
40.8000 1001.0000 1.0000
40.8100 964.0000 1.0000
40.8200 928.0000 1.0000
40.8300 962.0000 1.0000
40.8400 991.0000 1.0000
40.8500 947.0000 1.0000
40.8600 949.0000 1.0000
40.8700 1000.0000 1.0000
40.8800 963.0000 1.0000
40.8900 923.0000 1.0000
40.9000 924.0000 1.0000
40.9100 975.0000 1.0000
40.9200 970.0000 1.0000
40.9300 996.0000 1.0000
40.9400 932.0000 1.0000
40.9500 977.0000 1.0000
40.9600 966.0000 1.0000
40.9700 956.0000 1.0000
40.9800 963.0000 1.0000
40.9900 966.0000 1.0000
41.0000 955.0000 1.0000
41.0100 977.0000 1.0000
41.0200 956.0000 1.0000
41.0300 953.0000 1.0000
41.0400 973.0000 1.0000
41.0500 977.0000 1.0000
41.0600 942.0000 1.0000
41.0700 923.0000 1.0000
41.0800 936.0000 1.0000
41.0900 948.0000 1.0000
41.1000 988.0000 1.0000
41.1100 974.0000 1.0000
41.1200 933.0000 1.0000
41.1300 917.0000 1.0000
41.1400 945.0000 1.0000
41.1500 953.0000 1.0000
41.1600 941.0000 1.0000
41.1700 913.0000 1.0000
41.1800 958.0000 1.0000
41.1900 927.0000 1.0000
41.2000 947.0000 1.0000
41.2100 966.0000 1.0000
41.2200 957.0000 1.0000
41.2300 893.0000 1.0000
41.2400 922.0000 1.0000
41.2500 960.0000 1.0000
41.2600 890.0000 1.0000
41.2700 958.0000 1.0000
41.2800 943.0000 1.0000
41.2900 925.0000 1.0000
41.3000 986.0000 1.0000
41.3100 956.0000 1.0000
41.3200 961.0000 1.0000
41.3300 909.0000 1.0000
41.3400 951.0000 1.0000
41.3500 996.0000 1.0000
41.3600 981.0000 1.0000
41.3700 927.0000 1.0000
41.3800 941.0000 1.0000
41.3900 939.0000 1.0000
41.4000 929.0000 1.0000
41.4100 992.0000 1.0000
41.4200 952.0000 1.0000
41.4300 929.0000 1.0000
41.4400 964.0000 1.0000
41.4500 930.0000 1.0000
41.4600 957.0000 1.0000
41.4700 950.0000 1.0000
41.4800 987.0000 1.0000
41.4900 961.0000 1.0000
41.5000 945.0000 1.0000
41.5100 930.0000 1.0000
41.5200 1014.0000 1.0000
41.5300 1006.0000 1.0000
41.5400 936.0000 1.0000
41.5500 996.0000 1.0000
41.5600 924.0000 1.0000
41.5700 938.0000 1.0000
41.5800 911.0000 1.0000
41.5900 969.0000 1.0000
41.6000 926.0000 1.0000
41.6100 965.0000 1.0000
41.6200 935.0000 1.0000
41.6300 945.0000 1.0000
41.6400 1005.0000 1.0000
41.6500 902.0000 1.0000
41.6600 912.0000 1.0000
41.6700 925.0000 1.0000
41.6800 864.0000 1.0000
41.6900 951.0000 1.0000
41.7000 958.0000 1.0000
41.7100 953.0000 1.0000
41.7200 941.0000 1.0000
41.7300 982.0000 1.0000
41.7400 939.0000 1.0000
41.7500 905.0000 1.0000
41.7600 935.0000 1.0000
41.7700 901.0000 1.0000
41.7800 916.0000 1.0000
41.7900 958.0000 1.0000
41.8000 951.0000 1.0000
41.8100 986.0000 1.0000
41.8200 915.0000 1.0000
41.8300 922.0000 1.0000
41.8400 957.0000 1.0000
41.8500 928.0000 1.0000
41.8600 952.0000 1.0000
41.8700 977.0000 1.0000
41.8800 958.0000 1.0000
41.8900 902.0000 1.0000
41.9000 979.0000 1.0000
41.9100 923.0000 1.0000
41.9200 966.0000 1.0000
41.9300 954.0000 1.0000
41.9400 924.0000 1.0000
41.9500 928.0000 1.0000
41.9600 945.0000 1.0000
41.9700 950.0000 1.0000
41.9800 924.0000 1.0000
41.9900 978.0000 1.0000
42.0000 993.0000 1.0000
42.0100 908.0000 1.0000
42.0200 959.0000 1.0000
42.0300 909.0000 1.0000
42.0400 905.0000 1.0000
42.0500 940.0000 1.0000
42.0600 945.0000 1.0000
42.0700 934.0000 1.0000
42.0800 882.0000 1.0000
42.0900 947.0000 1.0000
42.1000 928.0000 1.0000
42.1100 942.0000 1.0000
42.1200 925.0000 1.0000
42.1300 959.0000 1.0000
42.1400 934.0000 1.0000
42.1500 907.0000 1.0000
42.1600 924.0000 1.0000
42.1700 910.0000 1.0000
42.1800 896.0000 1.0000
42.1900 916.0000 1.0000
42.2000 893.0000 1.0000
42.2100 885.0000 1.0000
42.2200 903.0000 1.0000
42.2300 912.0000 1.0000
42.2400 964.0000 1.0000
42.2500 889.0000 1.0000
42.2600 925.0000 1.0000
42.2700 943.0000 1.0000
42.2800 939.0000 1.0000
42.2900 909.0000 1.0000
42.3000 916.0000 1.0000
42.3100 953.0000 1.0000
42.3200 929.0000 1.0000
42.3300 973.0000 1.0000
42.3400 888.0000 1.0000
42.3500 908.0000 1.0000
42.3600 915.0000 1.0000
42.3700 972.0000 1.0000
42.3800 946.0000 1.0000
42.3900 892.0000 1.0000
42.4000 896.0000 1.0000
42.4100 865.0000 1.0000
42.4200 926.0000 1.0000
42.4300 877.0000 1.0000
42.4400 966.0000 1.0000
42.4500 887.0000 1.0000
42.4600 909.0000 1.0000
42.4700 915.0000 1.0000
42.4800 889.0000 1.0000
42.4900 889.0000 1.0000
42.5000 888.0000 1.0000
42.5100 934.0000 1.0000
42.5200 974.0000 1.0000
42.5300 958.0000 1.0000
42.5400 975.0000 1.0000
42.5500 907.0000 1.0000
42.5600 888.0000 1.0000
42.5700 948.0000 1.0000
42.5800 960.0000 1.0000
42.5900 937.0000 1.0000
42.6000 918.0000 1.0000
42.6100 942.0000 1.0000
42.6200 934.0000 1.0000
42.6300 897.0000 1.0000
42.6400 888.0000 1.0000
42.6500 929.0000 1.0000
42.6600 910.0000 1.0000
42.6700 947.0000 1.0000
42.6800 928.0000 1.0000
42.6900 926.0000 1.0000
42.7000 976.0000 1.0000
42.7100 921.0000 1.0000
42.7200 941.0000 1.0000
42.7300 936.0000 1.0000
42.7400 937.0000 1.0000
42.7500 933.0000 1.0000
42.7600 952.0000 1.0000
42.7700 896.0000 1.0000
42.7800 946.0000 1.0000
42.7900 908.0000 1.0000
42.8000 957.0000 1.0000
42.8100 929.0000 1.0000
42.8200 952.0000 1.0000
42.8300 896.0000 1.0000
42.8400 961.0000 1.0000
42.8500 952.0000 1.0000
42.8600 921.0000 1.0000
42.8700 949.0000 1.0000
42.8800 901.0000 1.0000
42.8900 908.0000 1.0000
42.9000 954.0000 1.0000
42.9100 839.0000 1.0000
42.9200 906.0000 1.0000
42.9300 969.0000 1.0000
42.9400 932.0000 1.0000
42.9500 956.0000 1.0000
42.9600 987.0000 1.0000
42.9700 964.0000 1.0000
42.9800 957.0000 1.0000
42.9900 958.0000 1.0000
43.0000 920.0000 1.0000
43.0100 991.0000 1.0000
43.0200 934.0000 1.0000
43.0300 914.0000 1.0000
43.0400 957.0000 1.0000
43.0500 935.0000 1.0000
43.0600 942.0000 1.0000
43.0700 976.0000 1.0000
43.0800 959.0000 1.0000
43.0900 970.0000 1.0000
43.1000 940.0000 1.0000
43.1100 978.0000 1.0000
43.1200 1002.0000 1.0000
43.1300 994.0000 1.0000
43.1400 951.0000 1.0000
43.1500 994.0000 1.0000
43.1600 985.0000 1.0000
43.1700 1029.0000 1.0000
43.1800 1036.0000 1.0000
43.1900 1007.0000 1.0000
43.2000 999.0000 1.0000
43.2100 955.0000 1.0000
43.2200 961.0000 1.0000
43.2300 1039.0000 1.0000
43.2400 1031.0000 1.0000
43.2500 1033.0000 1.0000
43.2600 957.0000 1.0000
43.2700 1029.0000 1.0000
43.2800 980.0000 1.0000
43.2900 993.0000 1.0000
43.3000 1043.0000 1.0000
43.3100 964.0000 1.0000
43.3200 1007.0000 1.0000
43.3300 1020.0000 1.0000
43.3400 1002.0000 1.0000
43.3500 1043.0000 1.0000
43.3600 991.0000 1.0000
43.3700 993.0000 1.0000
43.3800 1013.0000 1.0000
43.3900 925.0000 1.0000
43.4000 917.0000 1.0000
43.4100 967.0000 1.0000
43.4200 969.0000 1.0000
43.4300 909.0000 1.0000
43.4400 902.0000 1.0000
43.4500 953.0000 1.0000
43.4600 958.0000 1.0000
43.4700 928.0000 1.0000
43.4800 959.0000 1.0000
43.4900 960.0000 1.0000
43.5000 949.0000 1.0000
43.5100 962.0000 1.0000
43.5200 848.0000 1.0000
43.5300 902.0000 1.0000
43.5400 908.0000 1.0000
43.5500 921.0000 1.0000
43.5600 944.0000 1.0000
43.5700 905.0000 1.0000
43.5800 914.0000 1.0000
43.5900 889.0000 1.0000
43.6000 945.0000 1.0000
43.6100 959.0000 1.0000
43.6200 913.0000 1.0000
43.6300 895.0000 1.0000
43.6400 912.0000 1.0000
43.6500 842.0000 1.0000
43.6600 913.0000 1.0000
43.6700 905.0000 1.0000
43.6800 894.0000 1.0000
43.6900 920.0000 1.0000
43.7000 909.0000 1.0000
43.7100 936.0000 1.0000
43.7200 902.0000 1.0000
43.7300 905.0000 1.0000
43.7400 917.0000 1.0000
43.7500 880.0000 1.0000
43.7600 941.0000 1.0000
43.7700 873.0000 1.0000
43.7800 907.0000 1.0000
43.7900 844.0000 1.0000
43.8000 893.0000 1.0000
43.8100 920.0000 1.0000
43.8200 901.0000 1.0000
43.8300 887.0000 1.0000
43.8400 898.0000 1.0000
43.8500 914.0000 1.0000
43.8600 864.0000 1.0000
43.8700 944.0000 1.0000
43.8800 911.0000 1.0000
43.8900 894.0000 1.0000
43.9000 876.0000 1.0000
43.9100 899.0000 1.0000
43.9200 913.0000 1.0000
43.9300 884.0000 1.0000
43.9400 894.0000 1.0000
43.9500 906.0000 1.0000
43.9600 939.0000 1.0000
43.9700 861.0000 1.0000
43.9800 928.0000 1.0000
43.9900 900.0000 1.0000
44.0000 913.0000 1.0000
44.0100 899.0000 1.0000
44.0200 890.0000 1.0000
44.0300 908.0000 1.0000
44.0400 896.0000 1.0000
44.0500 913.0000 1.0000
44.0600 941.0000 1.0000
44.0700 877.0000 1.0000
44.0800 922.0000 1.0000
44.0900 926.0000 1.0000
44.1000 899.0000 1.0000
44.1100 874.0000 1.0000
44.1200 900.0000 1.0000
44.1300 926.0000 1.0000
44.1400 949.0000 1.0000
44.1500 859.0000 1.0000
44.1600 899.0000 1.0000
44.1700 894.0000 1.0000
44.1800 890.0000 1.0000
44.1900 900.0000 1.0000
44.2000 876.0000 1.0000
44.2100 868.0000 1.0000
44.2200 873.0000 1.0000
44.2300 919.0000 1.0000
44.2400 861.0000 1.0000
44.2500 899.0000 1.0000
44.2600 892.0000 1.0000
44.2700 924.0000 1.0000
44.2800 896.0000 1.0000
44.2900 942.0000 1.0000
44.3000 895.0000 1.0000
44.3100 930.0000 1.0000
44.3200 861.0000 1.0000
44.3300 855.0000 1.0000
44.3400 946.0000 1.0000
44.3500 905.0000 1.0000
44.3600 930.0000 1.0000
44.3700 910.0000 1.0000
44.3800 881.0000 1.0000
44.3900 874.0000 1.0000
44.4000 878.0000 1.0000
44.4100 899.0000 1.0000
44.4200 875.0000 1.0000
44.4300 927.0000 1.0000
44.4400 890.0000 1.0000
44.4500 913.0000 1.0000
44.4600 915.0000 1.0000
44.4700 888.0000 1.0000
44.4800 870.0000 1.0000
44.4900 868.0000 1.0000
44.5000 895.0000 1.0000
44.5100 853.0000 1.0000
44.5200 849.0000 1.0000
44.5300 858.0000 1.0000
44.5400 894.0000 1.0000
44.5500 886.0000 1.0000
44.5600 880.0000 1.0000
44.5700 888.0000 1.0000
44.5800 905.0000 1.0000
44.5900 871.0000 1.0000
44.6000 883.0000 1.0000
44.6100 920.0000 1.0000
44.6200 891.0000 1.0000
44.6300 850.0000 1.0000
44.6400 884.0000 1.0000
44.6500 862.0000 1.0000
44.6600 882.0000 1.0000
44.6700 887.0000 1.0000
44.6800 869.0000 1.0000
44.6900 909.0000 1.0000
44.7000 892.0000 1.0000
44.7100 841.0000 1.0000
44.7200 856.0000 1.0000
44.7300 859.0000 1.0000
44.7400 893.0000 1.0000
44.7500 911.0000 1.0000
44.7600 885.0000 1.0000
44.7700 879.0000 1.0000
44.7800 896.0000 1.0000
44.7900 850.0000 1.0000
44.8000 843.0000 1.0000
44.8100 894.0000 1.0000
44.8200 863.0000 1.0000
44.8300 906.0000 1.0000
44.8400 884.0000 1.0000
44.8500 880.0000 1.0000
44.8600 844.0000 1.0000
44.8700 822.0000 1.0000
44.8800 880.0000 1.0000
44.8900 831.0000 1.0000
44.9000 823.0000 1.0000
44.9100 889.0000 1.0000
44.9200 836.0000 1.0000
44.9300 844.0000 1.0000
44.9400 910.0000 1.0000
44.9500 897.0000 1.0000
44.9600 854.0000 1.0000
44.9700 866.0000 1.0000
44.9800 897.0000 1.0000
44.9900 877.0000 1.0000
45.0000 882.0000 1.0000
45.0100 872.0000 1.0000
45.0200 846.0000 1.0000
45.0300 837.0000 1.0000
45.0400 854.0000 1.0000
45.0500 843.0000 1.0000
45.0600 855.0000 1.0000
45.0700 889.0000 1.0000
45.0800 830.0000 1.0000
45.0900 921.0000 1.0000
45.1000 913.0000 1.0000
45.1100 857.0000 1.0000
45.1200 897.0000 1.0000
45.1300 860.0000 1.0000
45.1400 869.0000 1.0000
45.1500 893.0000 1.0000
45.1600 886.0000 1.0000
45.1700 832.0000 1.0000
45.1800 841.0000 1.0000
45.1900 900.0000 1.0000
45.2000 853.0000 1.0000
45.2100 909.0000 1.0000
45.2200 856.0000 1.0000
45.2300 828.0000 1.0000
45.2400 847.0000 1.0000
45.2500 862.0000 1.0000
45.2600 831.0000 1.0000
45.2700 852.0000 1.0000
45.2800 884.0000 1.0000
45.2900 874.0000 1.0000
45.3000 891.0000 1.0000
45.3100 889.0000 1.0000
45.3200 907.0000 1.0000
45.3300 877.0000 1.0000
45.3400 859.0000 1.0000
45.3500 860.0000 1.0000
45.3600 823.0000 1.0000
45.3700 846.0000 1.0000
45.3800 896.0000 1.0000
45.3900 855.0000 1.0000
45.4000 859.0000 1.0000
45.4100 818.0000 1.0000
45.4200 831.0000 1.0000
45.4300 863.0000 1.0000
45.4400 844.0000 1.0000
45.4500 898.0000 1.0000
45.4600 825.0000 1.0000
45.4700 862.0000 1.0000
45.4800 865.0000 1.0000
45.4900 877.0000 1.0000
45.5000 832.0000 1.0000
45.5100 887.0000 1.0000
45.5200 876.0000 1.0000
45.5300 867.0000 1.0000
45.5400 837.0000 1.0000
45.5500 827.0000 1.0000
45.5600 834.0000 1.0000
45.5700 834.0000 1.0000
45.5800 846.0000 1.0000
45.5900 891.0000 1.0000
45.6000 867.0000 1.0000
45.6100 857.0000 1.0000
45.6200 872.0000 1.0000
45.6300 855.0000 1.0000
45.6400 849.0000 1.0000
45.6500 843.0000 1.0000
45.6600 847.0000 1.0000
45.6700 853.0000 1.0000
45.6800 847.0000 1.0000
45.6900 876.0000 1.0000
45.7000 871.0000 1.0000
45.7100 893.0000 1.0000
45.7200 846.0000 1.0000
45.7300 853.0000 1.0000
45.7400 870.0000 1.0000
45.7500 852.0000 1.0000
45.7600 861.0000 1.0000
45.7700 823.0000 1.0000
45.7800 847.0000 1.0000
45.7900 826.0000 1.0000
45.8000 854.0000 1.0000
45.8100 844.0000 1.0000
45.8200 905.0000 1.0000
45.8300 819.0000 1.0000
45.8400 853.0000 1.0000
45.8500 835.0000 1.0000
45.8600 850.0000 1.0000
45.8700 847.0000 1.0000
45.8800 891.0000 1.0000
45.8900 881.0000 1.0000
45.9000 832.0000 1.0000
45.9100 869.0000 1.0000
45.9200 848.0000 1.0000
45.9300 890.0000 1.0000
45.9400 854.0000 1.0000
45.9500 862.0000 1.0000
45.9600 850.0000 1.0000
45.9700 861.0000 1.0000
45.9800 848.0000 1.0000
45.9900 846.0000 1.0000
46.0000 890.0000 1.0000
46.0100 859.0000 1.0000
46.0200 813.0000 1.0000
46.0300 840.0000 1.0000
46.0400 827.0000 1.0000
46.0500 852.0000 1.0000
46.0600 827.0000 1.0000
46.0700 825.0000 1.0000
46.0800 861.0000 1.0000
46.0900 795.0000 1.0000
46.1000 868.0000 1.0000
46.1100 890.0000 1.0000
46.1200 856.0000 1.0000
46.1300 871.0000 1.0000
46.1400 833.0000 1.0000
46.1500 889.0000 1.0000
46.1600 854.0000 1.0000
46.1700 829.0000 1.0000
46.1800 854.0000 1.0000
46.1900 844.0000 1.0000
46.2000 854.0000 1.0000
46.2100 825.0000 1.0000
46.2200 829.0000 1.0000
46.2300 826.0000 1.0000
46.2400 853.0000 1.0000
46.2500 848.0000 1.0000
46.2600 832.0000 1.0000
46.2700 862.0000 1.0000
46.2800 849.0000 1.0000
46.2900 849.0000 1.0000
46.3000 854.0000 1.0000
46.3100 845.0000 1.0000
46.3200 859.0000 1.0000
46.3300 868.0000 1.0000
46.3400 852.0000 1.0000
46.3500 862.0000 1.0000
46.3600 850.0000 1.0000
46.3700 805.0000 1.0000
46.3800 870.0000 1.0000
46.3900 855.0000 1.0000
46.4000 848.0000 1.0000
46.4100 780.0000 1.0000
46.4200 864.0000 1.0000
46.4300 863.0000 1.0000
46.4400 882.0000 1.0000
46.4500 858.0000 1.0000
46.4600 889.0000 1.0000
46.4700 854.0000 1.0000
46.4800 848.0000 1.0000
46.4900 846.0000 1.0000
46.5000 838.0000 1.0000
46.5100 872.0000 1.0000
46.5200 834.0000 1.0000
46.5300 823.0000 1.0000
46.5400 868.0000 1.0000
46.5500 871.0000 1.0000
46.5600 864.0000 1.0000
46.5700 830.0000 1.0000
46.5800 803.0000 1.0000
46.5900 857.0000 1.0000
46.6000 852.0000 1.0000
46.6100 811.0000 1.0000
46.6200 821.0000 1.0000
46.6300 868.0000 1.0000
46.6400 828.0000 1.0000
46.6500 828.0000 1.0000
46.6600 823.0000 1.0000
46.6700 840.0000 1.0000
46.6800 876.0000 1.0000
46.6900 843.0000 1.0000
46.7000 832.0000 1.0000
46.7100 824.0000 1.0000
46.7200 849.0000 1.0000
46.7300 808.0000 1.0000
46.7400 787.0000 1.0000
46.7500 801.0000 1.0000
46.7600 826.0000 1.0000
46.7700 827.0000 1.0000
46.7800 824.0000 1.0000
46.7900 863.0000 1.0000
46.8000 809.0000 1.0000
46.8100 861.0000 1.0000
46.8200 865.0000 1.0000
46.8300 877.0000 1.0000
46.8400 829.0000 1.0000
46.8500 841.0000 1.0000
46.8600 829.0000 1.0000
46.8700 800.0000 1.0000
46.8800 860.0000 1.0000
46.8900 857.0000 1.0000
46.9000 854.0000 1.0000
46.9100 836.0000 1.0000
46.9200 854.0000 1.0000
46.9300 819.0000 1.0000
46.9400 857.0000 1.0000
46.9500 866.0000 1.0000
46.9600 858.0000 1.0000
46.9700 868.0000 1.0000
46.9800 830.0000 1.0000
46.9900 877.0000 1.0000
47.0000 880.0000 1.0000
47.0100 842.0000 1.0000
47.0200 862.0000 1.0000
47.0300 888.0000 1.0000
47.0400 892.0000 1.0000
47.0500 870.0000 1.0000
47.0600 881.0000 1.0000
47.0700 862.0000 1.0000
47.0800 840.0000 1.0000
47.0900 843.0000 1.0000
47.1000 821.0000 1.0000
47.1100 819.0000 1.0000
47.1200 818.0000 1.0000
47.1300 836.0000 1.0000
47.1400 861.0000 1.0000
47.1500 853.0000 1.0000
47.1600 840.0000 1.0000
47.1700 883.0000 1.0000
47.1800 813.0000 1.0000
47.1900 813.0000 1.0000
47.2000 815.0000 1.0000
47.2100 817.0000 1.0000
47.2200 795.0000 1.0000
47.2300 837.0000 1.0000
47.2400 832.0000 1.0000
47.2500 801.0000 1.0000
47.2600 852.0000 1.0000
47.2700 847.0000 1.0000
47.2800 834.0000 1.0000
47.2900 850.0000 1.0000
47.3000 821.0000 1.0000
47.3100 807.0000 1.0000
47.3200 821.0000 1.0000
47.3300 798.0000 1.0000
47.3400 842.0000 1.0000
47.3500 816.0000 1.0000
47.3600 761.0000 1.0000
47.3700 771.0000 1.0000
47.3800 811.0000 1.0000
47.3900 837.0000 1.0000
47.4000 835.0000 1.0000
47.4100 815.0000 1.0000
47.4200 828.0000 1.0000
47.4300 816.0000 1.0000
47.4400 834.0000 1.0000
47.4500 864.0000 1.0000
47.4600 824.0000 1.0000
47.4700 797.0000 1.0000
47.4800 823.0000 1.0000
47.4900 820.0000 1.0000
47.5000 792.0000 1.0000
47.5100 795.0000 1.0000
47.5200 804.0000 1.0000
47.5300 818.0000 1.0000
47.5400 832.0000 1.0000
47.5500 791.0000 1.0000
47.5600 842.0000 1.0000
47.5700 832.0000 1.0000
47.5800 810.0000 1.0000
47.5900 791.0000 1.0000
47.6000 829.0000 1.0000
47.6100 819.0000 1.0000
47.6200 804.0000 1.0000
47.6300 806.0000 1.0000
47.6400 822.0000 1.0000
47.6500 810.0000 1.0000
47.6600 817.0000 1.0000
47.6700 804.0000 1.0000
47.6800 766.0000 1.0000
47.6900 829.0000 1.0000
47.7000 854.0000 1.0000
47.7100 788.0000 1.0000
47.7200 772.0000 1.0000
47.7300 796.0000 1.0000
47.7400 867.0000 1.0000
47.7500 800.0000 1.0000
47.7600 795.0000 1.0000
47.7700 800.0000 1.0000
47.7800 790.0000 1.0000
47.7900 879.0000 1.0000
47.8000 825.0000 1.0000
47.8100 783.0000 1.0000
47.8200 806.0000 1.0000
47.8300 808.0000 1.0000
47.8400 851.0000 1.0000
47.8500 816.0000 1.0000
47.8600 826.0000 1.0000
47.8700 836.0000 1.0000
47.8800 786.0000 1.0000
47.8900 848.0000 1.0000
47.9000 832.0000 1.0000
47.9100 804.0000 1.0000
47.9200 797.0000 1.0000
47.9300 768.0000 1.0000
47.9400 778.0000 1.0000
47.9500 799.0000 1.0000
47.9600 767.0000 1.0000
47.9700 788.0000 1.0000
47.9800 782.0000 1.0000
47.9900 821.0000 1.0000
48.0000 829.0000 1.0000
48.0100 788.0000 1.0000
48.0200 773.0000 1.0000
48.0300 810.0000 1.0000
48.0400 820.0000 1.0000
48.0500 760.0000 1.0000
48.0600 774.0000 1.0000
48.0700 797.0000 1.0000
48.0800 797.0000 1.0000
48.0900 828.0000 1.0000
48.1000 791.0000 1.0000
48.1100 809.0000 1.0000
48.1200 818.0000 1.0000
48.1300 823.0000 1.0000
48.1400 801.0000 1.0000
48.1500 805.0000 1.0000
48.1600 783.0000 1.0000
48.1700 754.0000 1.0000
48.1800 809.0000 1.0000
48.1900 769.0000 1.0000
48.2000 806.0000 1.0000
48.2100 818.0000 1.0000
48.2200 788.0000 1.0000
48.2300 837.0000 1.0000
48.2400 807.0000 1.0000
48.2500 804.0000 1.0000
48.2600 799.0000 1.0000
48.2700 786.0000 1.0000
48.2800 771.0000 1.0000
48.2900 771.0000 1.0000
48.3000 756.0000 1.0000
48.3100 807.0000 1.0000
48.3200 803.0000 1.0000
48.3300 823.0000 1.0000
48.3400 820.0000 1.0000
48.3500 785.0000 1.0000
48.3600 801.0000 1.0000
48.3700 838.0000 1.0000
48.3800 830.0000 1.0000
48.3900 831.0000 1.0000
48.4000 782.0000 1.0000
48.4100 799.0000 1.0000
48.4200 816.0000 1.0000
48.4300 866.0000 1.0000
48.4400 845.0000 1.0000
48.4500 840.0000 1.0000
48.4600 818.0000 1.0000
48.4700 818.0000 1.0000
48.4800 818.0000 1.0000
48.4900 854.0000 1.0000
48.5000 830.0000 1.0000
48.5100 827.0000 1.0000
48.5200 844.0000 1.0000
48.5300 794.0000 1.0000
48.5400 783.0000 1.0000
48.5500 814.0000 1.0000
48.5600 780.0000 1.0000
48.5700 783.0000 1.0000
48.5800 773.0000 1.0000
48.5900 801.0000 1.0000
48.6000 803.0000 1.0000
48.6100 780.0000 1.0000
48.6200 797.0000 1.0000
48.6300 795.0000 1.0000
48.6400 795.0000 1.0000
48.6500 818.0000 1.0000
48.6600 802.0000 1.0000
48.6700 795.0000 1.0000
48.6800 781.0000 1.0000
48.6900 792.0000 1.0000
48.7000 787.0000 1.0000
48.7100 790.0000 1.0000
48.7200 825.0000 1.0000
48.7300 826.0000 1.0000
48.7400 817.0000 1.0000
48.7500 822.0000 1.0000
48.7600 796.0000 1.0000
48.7700 777.0000 1.0000
48.7800 810.0000 1.0000
48.7900 771.0000 1.0000
48.8000 791.0000 1.0000
48.8100 775.0000 1.0000
48.8200 809.0000 1.0000
48.8300 810.0000 1.0000
48.8400 800.0000 1.0000
48.8500 794.0000 1.0000
48.8600 753.0000 1.0000
48.8700 777.0000 1.0000
48.8800 786.0000 1.0000
48.8900 795.0000 1.0000
48.9000 777.0000 1.0000
48.9100 792.0000 1.0000
48.9200 757.0000 1.0000
48.9300 799.0000 1.0000
48.9400 791.0000 1.0000
48.9500 775.0000 1.0000
48.9600 803.0000 1.0000
48.9700 845.0000 1.0000
48.9800 830.0000 1.0000
48.9900 775.0000 1.0000
49.0000 802.0000 1.0000
49.0100 781.0000 1.0000
49.0200 806.0000 1.0000
49.0300 807.0000 1.0000
49.0400 755.0000 1.0000
49.0500 759.0000 1.0000
49.0600 806.0000 1.0000
49.0700 883.0000 1.0000
49.0800 799.0000 1.0000
49.0900 811.0000 1.0000
49.1000 821.0000 1.0000
49.1100 763.0000 1.0000
49.1200 767.0000 1.0000
49.1300 831.0000 1.0000
49.1400 782.0000 1.0000
49.1500 742.0000 1.0000
49.1600 818.0000 1.0000
49.1700 811.0000 1.0000
49.1800 779.0000 1.0000
49.1900 773.0000 1.0000
49.2000 766.0000 1.0000
49.2100 789.0000 1.0000
49.2200 774.0000 1.0000
49.2300 794.0000 1.0000
49.2400 776.0000 1.0000
49.2500 770.0000 1.0000
49.2600 776.0000 1.0000
49.2700 771.0000 1.0000
49.2800 819.0000 1.0000
49.2900 831.0000 1.0000
49.3000 788.0000 1.0000
49.3100 780.0000 1.0000
49.3200 762.0000 1.0000
49.3300 737.0000 1.0000
49.3400 761.0000 1.0000
49.3500 798.0000 1.0000
49.3600 769.0000 1.0000
49.3700 769.0000 1.0000
49.3800 762.0000 1.0000
49.3900 775.0000 1.0000
49.4000 746.0000 1.0000
49.4100 773.0000 1.0000
49.4200 787.0000 1.0000
49.4300 759.0000 1.0000
49.4400 765.0000 1.0000
49.4500 809.0000 1.0000
49.4600 807.0000 1.0000
49.4700 752.0000 1.0000
49.4800 768.0000 1.0000
49.4900 774.0000 1.0000
49.5000 776.0000 1.0000
49.5100 774.0000 1.0000
49.5200 760.0000 1.0000
49.5300 760.0000 1.0000
49.5400 791.0000 1.0000
49.5500 778.0000 1.0000
49.5600 768.0000 1.0000
49.5700 771.0000 1.0000
49.5800 780.0000 1.0000
49.5900 794.0000 1.0000
49.6000 800.0000 1.0000
49.6100 812.0000 1.0000
49.6200 792.0000 1.0000
49.6300 742.0000 1.0000
49.6400 782.0000 1.0000
49.6500 784.0000 1.0000
49.6600 782.0000 1.0000
49.6700 829.0000 1.0000
49.6800 742.0000 1.0000
49.6900 739.0000 1.0000
49.7000 817.0000 1.0000
49.7100 764.0000 1.0000
49.7200 751.0000 1.0000
49.7300 773.0000 1.0000
49.7400 771.0000 1.0000
49.7500 814.0000 1.0000
49.7600 802.0000 1.0000
49.7700 788.0000 1.0000
49.7800 807.0000 1.0000
49.7900 790.0000 1.0000
49.8000 805.0000 1.0000
49.8100 793.0000 1.0000
49.8200 761.0000 1.0000
49.8300 782.0000 1.0000
49.8400 762.0000 1.0000
49.8500 742.0000 1.0000
49.8600 845.0000 1.0000
49.8700 772.0000 1.0000
49.8800 768.0000 1.0000
49.8900 803.0000 1.0000
49.9000 737.0000 1.0000
49.9100 730.0000 1.0000
49.9200 816.0000 1.0000
49.9300 767.0000 1.0000
49.9400 759.0000 1.0000
49.9500 766.0000 1.0000
49.9600 803.0000 1.0000
49.9700 805.0000 1.0000
49.9800 798.0000 1.0000
49.9900 784.0000 1.0000
50.0000 816.0000 1.0000
50.0100 786.0000 1.0000
50.0200 781.0000 1.0000
50.0300 765.0000 1.0000
50.0400 829.0000 1.0000
50.0500 751.0000 1.0000
50.0600 789.0000 1.0000
50.0700 794.0000 1.0000
50.0800 797.0000 1.0000
50.0900 774.0000 1.0000
50.1000 800.0000 1.0000
50.1100 782.0000 1.0000
50.1200 742.0000 1.0000
50.1300 804.0000 1.0000
50.1400 830.0000 1.0000
50.1500 788.0000 1.0000
50.1600 820.0000 1.0000
50.1700 814.0000 1.0000
50.1800 766.0000 1.0000
50.1900 819.0000 1.0000
50.2000 806.0000 1.0000
50.2100 840.0000 1.0000
50.2200 833.0000 1.0000
50.2300 799.0000 1.0000
50.2400 778.0000 1.0000
50.2500 792.0000 1.0000
50.2600 780.0000 1.0000
50.2700 831.0000 1.0000
50.2800 829.0000 1.0000
50.2900 774.0000 1.0000
50.3000 800.0000 1.0000
50.3100 759.0000 1.0000
50.3200 816.0000 1.0000
50.3300 832.0000 1.0000
50.3400 790.0000 1.0000
50.3500 797.0000 1.0000
50.3600 822.0000 1.0000
50.3700 797.0000 1.0000
50.3800 822.0000 1.0000
50.3900 792.0000 1.0000
50.4000 802.0000 1.0000
50.4100 819.0000 1.0000
50.4200 817.0000 1.0000
50.4300 804.0000 1.0000
50.4400 790.0000 1.0000
50.4500 793.0000 1.0000
50.4600 786.0000 1.0000
50.4700 791.0000 1.0000
50.4800 808.0000 1.0000
50.4900 824.0000 1.0000
50.5000 771.0000 1.0000
50.5100 812.0000 1.0000
50.5200 808.0000 1.0000
50.5300 744.0000 1.0000
50.5400 772.0000 1.0000
50.5500 808.0000 1.0000
50.5600 780.0000 1.0000
50.5700 810.0000 1.0000
50.5800 817.0000 1.0000
50.5900 815.0000 1.0000
50.6000 817.0000 1.0000
50.6100 831.0000 1.0000
50.6200 813.0000 1.0000
50.6300 769.0000 1.0000
50.6400 846.0000 1.0000
50.6500 816.0000 1.0000
50.6600 798.0000 1.0000
50.6700 835.0000 1.0000
50.6800 771.0000 1.0000
50.6900 898.0000 1.0000
50.7000 828.0000 1.0000
50.7100 806.0000 1.0000
50.7200 749.0000 1.0000
50.7300 799.0000 1.0000
50.7400 786.0000 1.0000
50.7500 807.0000 1.0000
50.7600 861.0000 1.0000
50.7700 799.0000 1.0000
50.7800 797.0000 1.0000
50.7900 835.0000 1.0000
50.8000 860.0000 1.0000
50.8100 765.0000 1.0000
50.8200 785.0000 1.0000
50.8300 812.0000 1.0000
50.8400 823.0000 1.0000
50.8500 803.0000 1.0000
50.8600 787.0000 1.0000
50.8700 834.0000 1.0000
50.8800 834.0000 1.0000
50.8900 771.0000 1.0000
50.9000 826.0000 1.0000
50.9100 794.0000 1.0000
50.9200 778.0000 1.0000
50.9300 792.0000 1.0000
50.9400 757.0000 1.0000
50.9500 830.0000 1.0000
50.9600 788.0000 1.0000
50.9700 781.0000 1.0000
50.9800 765.0000 1.0000
50.9900 760.0000 1.0000
51.0000 767.0000 1.0000
51.0100 822.0000 1.0000
51.0200 784.0000 1.0000
51.0300 737.0000 1.0000
51.0400 786.0000 1.0000
51.0500 790.0000 1.0000
51.0600 808.0000 1.0000
51.0700 769.0000 1.0000
51.0800 762.0000 1.0000
51.0900 770.0000 1.0000
51.1000 735.0000 1.0000
51.1100 751.0000 1.0000
51.1200 777.0000 1.0000
51.1300 811.0000 1.0000
51.1400 835.0000 1.0000
51.1500 839.0000 1.0000
51.1600 784.0000 1.0000
51.1700 847.0000 1.0000
51.1800 755.0000 1.0000
51.1900 796.0000 1.0000
51.2000 800.0000 1.0000
51.2100 820.0000 1.0000
51.2200 797.0000 1.0000
51.2300 811.0000 1.0000
51.2400 818.0000 1.0000
51.2500 800.0000 1.0000
51.2600 785.0000 1.0000
51.2700 764.0000 1.0000
51.2800 778.0000 1.0000
51.2900 821.0000 1.0000
51.3000 789.0000 1.0000
51.3100 759.0000 1.0000
51.3200 787.0000 1.0000
51.3300 820.0000 1.0000
51.3400 800.0000 1.0000
51.3500 793.0000 1.0000
51.3600 816.0000 1.0000
51.3700 817.0000 1.0000
51.3800 818.0000 1.0000
51.3900 791.0000 1.0000
51.4000 826.0000 1.0000
51.4100 844.0000 1.0000
51.4200 775.0000 1.0000
51.4300 777.0000 1.0000
51.4400 770.0000 1.0000
51.4500 772.0000 1.0000
51.4600 787.0000 1.0000
51.4700 800.0000 1.0000
51.4800 783.0000 1.0000
51.4900 831.0000 1.0000
51.5000 798.0000 1.0000
51.5100 791.0000 1.0000
51.5200 806.0000 1.0000
51.5300 840.0000 1.0000
51.5400 848.0000 1.0000
51.5500 843.0000 1.0000
51.5600 839.0000 1.0000
51.5700 838.0000 1.0000
51.5800 830.0000 1.0000
51.5900 842.0000 1.0000
51.6000 819.0000 1.0000
51.6100 840.0000 1.0000
51.6200 848.0000 1.0000
51.6300 879.0000 1.0000
51.6400 855.0000 1.0000
51.6500 834.0000 1.0000
51.6600 850.0000 1.0000
51.6700 790.0000 1.0000
51.6800 860.0000 1.0000
51.6900 894.0000 1.0000
51.7000 786.0000 1.0000
51.7100 840.0000 1.0000
51.7200 851.0000 1.0000
51.7300 847.0000 1.0000
51.7400 800.0000 1.0000
51.7500 833.0000 1.0000
51.7600 834.0000 1.0000
51.7700 873.0000 1.0000
51.7800 836.0000 1.0000
51.7900 873.0000 1.0000
51.8000 905.0000 1.0000
51.8100 924.0000 1.0000
51.8200 911.0000 1.0000
51.8300 910.0000 1.0000
51.8400 915.0000 1.0000
51.8500 902.0000 1.0000
51.8600 938.0000 1.0000
51.8700 962.0000 1.0000
51.8800 990.0000 1.0000
51.8900 984.0000 1.0000
51.9000 986.0000 1.0000
51.9100 1019.0000 1.0000
51.9200 1083.0000 1.0000
51.9300 1034.0000 1.0000
51.9400 1071.0000 1.0000
51.9500 1146.0000 1.0000
51.9600 1127.0000 1.0000
51.9700 1193.0000 1.0000
51.9800 1223.0000 1.0000
51.9900 1267.0000 1.0000
52.0000 1241.0000 1.0000
52.0100 1370.0000 1.0000
52.0200 1434.0000 1.0000
52.0300 1480.0000 1.0000
52.0400 1500.0000 1.0000
52.0500 1542.0000 1.0000
52.0600 1635.0000 1.0000
52.0700 1719.0000 1.0000
52.0800 1752.0000 1.0000
52.0900 1909.0000 1.0000
52.1000 2080.0000 1.0000
52.1100 2140.0000 1.0000
52.1200 2331.0000 1.0000
52.1300 2499.0000 1.0000
52.1400 2697.0000 1.0000
52.1500 2920.0000 1.0000
52.1600 3153.0000 1.0000
52.1700 3375.0000 1.0000
52.1800 3648.0000 1.0000
52.1900 4017.0000 1.0000
52.2000 4370.0000 1.0000
52.2100 4711.0000 1.0000
52.2200 4803.0000 1.0000
52.2300 4865.0000 1.0000
52.2400 5040.0000 1.0000
52.2500 5226.0000 1.0000
52.2600 5111.0000 1.0000
52.2700 4943.0000 1.0000
52.2800 4791.0000 1.0000
52.2900 4686.0000 1.0000
52.3000 4655.0000 1.0000
52.3100 4527.0000 1.0000
52.3200 4332.0000 1.0000
52.3300 4098.0000 1.0000
52.3400 4032.0000 1.0000
52.3500 4138.0000 1.0000
52.3600 4032.0000 1.0000
52.3700 3857.0000 1.0000
52.3800 3749.0000 1.0000
52.3900 3635.0000 1.0000
52.4000 3411.0000 1.0000
52.4100 3325.0000 1.0000
52.4200 3095.0000 1.0000
52.4300 2913.0000 1.0000
52.4400 2678.0000 1.0000
52.4500 2531.0000 1.0000
52.4600 2348.0000 1.0000
52.4700 2197.0000 1.0000
52.4800 2035.0000 1.0000
52.4900 1953.0000 1.0000
52.5000 1840.0000 1.0000
52.5100 1737.0000 1.0000
52.5200 1657.0000 1.0000
52.5300 1588.0000 1.0000
52.5400 1492.0000 1.0000
52.5500 1491.0000 1.0000
52.5600 1471.0000 1.0000
52.5700 1326.0000 1.0000
52.5800 1300.0000 1.0000
52.5900 1221.0000 1.0000
52.6000 1196.0000 1.0000
52.6100 1184.0000 1.0000
52.6200 1189.0000 1.0000
52.6300 1154.0000 1.0000
52.6400 1129.0000 1.0000
52.6500 1137.0000 1.0000
52.6600 1081.0000 1.0000
52.6700 1096.0000 1.0000
52.6800 1007.0000 1.0000
52.6900 1001.0000 1.0000
52.7000 954.0000 1.0000
52.7100 971.0000 1.0000
52.7200 979.0000 1.0000
52.7300 985.0000 1.0000
52.7400 955.0000 1.0000
52.7500 968.0000 1.0000
52.7600 954.0000 1.0000
52.7700 911.0000 1.0000
52.7800 907.0000 1.0000
52.7900 929.0000 1.0000
52.8000 925.0000 1.0000
52.8100 908.0000 1.0000
52.8200 882.0000 1.0000
52.8300 855.0000 1.0000
52.8400 915.0000 1.0000
52.8500 874.0000 1.0000
52.8600 848.0000 1.0000
52.8700 889.0000 1.0000
52.8800 845.0000 1.0000
52.8900 876.0000 1.0000
52.9000 867.0000 1.0000
52.9100 844.0000 1.0000
52.9200 847.0000 1.0000
52.9300 865.0000 1.0000
52.9400 804.0000 1.0000
52.9500 809.0000 1.0000
52.9600 873.0000 1.0000
52.9700 860.0000 1.0000
52.9800 895.0000 1.0000
52.9900 831.0000 1.0000
53.0000 828.0000 1.0000
53.0100 794.0000 1.0000
53.0200 799.0000 1.0000
53.0300 786.0000 1.0000
53.0400 818.0000 1.0000
53.0500 798.0000 1.0000
53.0600 837.0000 1.0000
53.0700 824.0000 1.0000
53.0800 837.0000 1.0000
53.0900 739.0000 1.0000
53.1000 785.0000 1.0000
53.1100 742.0000 1.0000
53.1200 825.0000 1.0000
53.1300 826.0000 1.0000
53.1400 753.0000 1.0000
53.1500 803.0000 1.0000
53.1600 782.0000 1.0000
53.1700 810.0000 1.0000
53.1800 786.0000 1.0000
53.1900 766.0000 1.0000
53.2000 785.0000 1.0000
53.2100 761.0000 1.0000
53.2200 763.0000 1.0000
53.2300 800.0000 1.0000
53.2400 767.0000 1.0000
53.2500 790.0000 1.0000
53.2600 756.0000 1.0000
53.2700 768.0000 1.0000
53.2800 803.0000 1.0000
53.2900 780.0000 1.0000
53.3000 756.0000 1.0000
53.3100 763.0000 1.0000
53.3200 795.0000 1.0000
53.3300 753.0000 1.0000
53.3400 803.0000 1.0000
53.3500 805.0000 1.0000
53.3600 814.0000 1.0000
53.3700 793.0000 1.0000
53.3800 771.0000 1.0000
53.3900 770.0000 1.0000
53.4000 755.0000 1.0000
53.4100 759.0000 1.0000
53.4200 753.0000 1.0000
53.4300 786.0000 1.0000
53.4400 783.0000 1.0000
53.4500 784.0000 1.0000
53.4600 758.0000 1.0000
53.4700 766.0000 1.0000
53.4800 758.0000 1.0000
53.4900 842.0000 1.0000
53.5000 803.0000 1.0000
53.5100 795.0000 1.0000
53.5200 754.0000 1.0000
53.5300 726.0000 1.0000
53.5400 741.0000 1.0000
53.5500 785.0000 1.0000
53.5600 778.0000 1.0000
53.5700 793.0000 1.0000
53.5800 781.0000 1.0000
53.5900 794.0000 1.0000
53.6000 743.0000 1.0000
53.6100 791.0000 1.0000
53.6200 769.0000 1.0000
53.6300 784.0000 1.0000
53.6400 784.0000 1.0000
53.6500 810.0000 1.0000
53.6600 823.0000 1.0000
53.6700 806.0000 1.0000
53.6800 816.0000 1.0000
53.6900 766.0000 1.0000
53.7000 763.0000 1.0000
53.7100 776.0000 1.0000
53.7200 752.0000 1.0000
53.7300 769.0000 1.0000
53.7400 769.0000 1.0000
53.7500 759.0000 1.0000
53.7600 809.0000 1.0000
53.7700 788.0000 1.0000
53.7800 746.0000 1.0000
53.7900 733.0000 1.0000
53.8000 728.0000 1.0000
53.8100 755.0000 1.0000
53.8200 751.0000 1.0000
53.8300 715.0000 1.0000
53.8400 739.0000 1.0000
53.8500 752.0000 1.0000
53.8600 836.0000 1.0000
53.8700 757.0000 1.0000
53.8800 737.0000 1.0000
53.8900 753.0000 1.0000
53.9000 798.0000 1.0000
53.9100 766.0000 1.0000
53.9200 794.0000 1.0000
53.9300 796.0000 1.0000
53.9400 758.0000 1.0000
53.9500 794.0000 1.0000
53.9600 760.0000 1.0000
53.9700 749.0000 1.0000
53.9800 767.0000 1.0000
53.9900 742.0000 1.0000
54.0000 698.0000 1.0000
54.0100 747.0000 1.0000
54.0200 751.0000 1.0000
54.0300 795.0000 1.0000
54.0400 784.0000 1.0000
54.0500 788.0000 1.0000
54.0600 781.0000 1.0000
54.0700 782.0000 1.0000
54.0800 773.0000 1.0000
54.0900 758.0000 1.0000
54.1000 778.0000 1.0000
54.1100 768.0000 1.0000
54.1200 768.0000 1.0000
54.1300 776.0000 1.0000
54.1400 782.0000 1.0000
54.1500 774.0000 1.0000
54.1600 777.0000 1.0000
54.1700 789.0000 1.0000
54.1800 780.0000 1.0000
54.1900 771.0000 1.0000
54.2000 754.0000 1.0000
54.2100 714.0000 1.0000
54.2200 754.0000 1.0000
54.2300 764.0000 1.0000
54.2400 709.0000 1.0000
54.2500 735.0000 1.0000
54.2600 707.0000 1.0000
54.2700 753.0000 1.0000
54.2800 803.0000 1.0000
54.2900 774.0000 1.0000
54.3000 785.0000 1.0000
54.3100 777.0000 1.0000
54.3200 737.0000 1.0000
54.3300 784.0000 1.0000
54.3400 752.0000 1.0000
54.3500 737.0000 1.0000
54.3600 770.0000 1.0000
54.3700 744.0000 1.0000
54.3800 783.0000 1.0000
54.3900 748.0000 1.0000
54.4000 746.0000 1.0000
54.4100 771.0000 1.0000
54.4200 815.0000 1.0000
54.4300 782.0000 1.0000
54.4400 798.0000 1.0000
54.4500 834.0000 1.0000
54.4600 813.0000 1.0000
54.4700 755.0000 1.0000
54.4800 742.0000 1.0000
54.4900 766.0000 1.0000
54.5000 762.0000 1.0000
54.5100 762.0000 1.0000
54.5200 755.0000 1.0000
54.5300 797.0000 1.0000
54.5400 778.0000 1.0000
54.5500 754.0000 1.0000
54.5600 818.0000 1.0000
54.5700 804.0000 1.0000
54.5800 787.0000 1.0000
54.5900 796.0000 1.0000
54.6000 733.0000 1.0000
54.6100 773.0000 1.0000
54.6200 776.0000 1.0000
54.6300 791.0000 1.0000
54.6400 800.0000 1.0000
54.6500 770.0000 1.0000
54.6600 808.0000 1.0000
54.6700 785.0000 1.0000
54.6800 791.0000 1.0000
54.6900 775.0000 1.0000
54.7000 786.0000 1.0000
54.7100 815.0000 1.0000
54.7200 759.0000 1.0000
54.7300 800.0000 1.0000
54.7400 804.0000 1.0000
54.7500 825.0000 1.0000
54.7600 826.0000 1.0000
54.7700 797.0000 1.0000
54.7800 793.0000 1.0000
54.7900 807.0000 1.0000
54.8000 770.0000 1.0000
54.8100 808.0000 1.0000
54.8200 782.0000 1.0000
54.8300 803.0000 1.0000
54.8400 814.0000 1.0000
54.8500 815.0000 1.0000
54.8600 795.0000 1.0000
54.8700 883.0000 1.0000
54.8800 838.0000 1.0000
54.8900 784.0000 1.0000
54.9000 802.0000 1.0000
54.9100 793.0000 1.0000
54.9200 824.0000 1.0000
54.9300 836.0000 1.0000
54.9400 829.0000 1.0000
54.9500 821.0000 1.0000
54.9600 815.0000 1.0000
54.9700 849.0000 1.0000
54.9800 840.0000 1.0000
54.9900 844.0000 1.0000
55.0000 870.0000 1.0000
55.0100 867.0000 1.0000
55.0200 873.0000 1.0000
55.0300 880.0000 1.0000
55.0400 854.0000 1.0000
55.0500 885.0000 1.0000
55.0600 890.0000 1.0000
55.0700 912.0000 1.0000
55.0800 903.0000 1.0000
55.0900 939.0000 1.0000
55.1000 903.0000 1.0000
55.1100 930.0000 1.0000
55.1200 918.0000 1.0000
55.1300 936.0000 1.0000
55.1400 965.0000 1.0000
55.1500 973.0000 1.0000
55.1600 1007.0000 1.0000
55.1700 1057.0000 1.0000
55.1800 1057.0000 1.0000
55.1900 1118.0000 1.0000
55.2000 1077.0000 1.0000
55.2100 1109.0000 1.0000
55.2200 1132.0000 1.0000
55.2300 1120.0000 1.0000
55.2400 1112.0000 1.0000
55.2500 1095.0000 1.0000
55.2600 1132.0000 1.0000
55.2700 1147.0000 1.0000
55.2800 1198.0000 1.0000
55.2900 1204.0000 1.0000
55.3000 1152.0000 1.0000
55.3100 1206.0000 1.0000
55.3200 1154.0000 1.0000
55.3300 1121.0000 1.0000
55.3400 1135.0000 1.0000
55.3500 1142.0000 1.0000
55.3600 1057.0000 1.0000
55.3700 1129.0000 1.0000
55.3800 1087.0000 1.0000
55.3900 1124.0000 1.0000
55.4000 1121.0000 1.0000
55.4100 1065.0000 1.0000
55.4200 1015.0000 1.0000
55.4300 1068.0000 1.0000
55.4400 1020.0000 1.0000
55.4500 1009.0000 1.0000
55.4600 973.0000 1.0000
55.4700 977.0000 1.0000
55.4800 966.0000 1.0000
55.4900 912.0000 1.0000
55.5000 915.0000 1.0000
55.5100 974.0000 1.0000
55.5200 959.0000 1.0000
55.5300 921.0000 1.0000
55.5400 866.0000 1.0000
55.5500 891.0000 1.0000
55.5600 899.0000 1.0000
55.5700 869.0000 1.0000
55.5800 842.0000 1.0000
55.5900 869.0000 1.0000
55.6000 881.0000 1.0000
55.6100 792.0000 1.0000
55.6200 825.0000 1.0000
55.6300 822.0000 1.0000
55.6400 839.0000 1.0000
55.6500 793.0000 1.0000
55.6600 844.0000 1.0000
55.6700 801.0000 1.0000
55.6800 802.0000 1.0000
55.6900 848.0000 1.0000
55.7000 775.0000 1.0000
55.7100 792.0000 1.0000
55.7200 791.0000 1.0000
55.7300 781.0000 1.0000
55.7400 807.0000 1.0000
55.7500 764.0000 1.0000
55.7600 759.0000 1.0000
55.7700 792.0000 1.0000
55.7800 756.0000 1.0000
55.7900 767.0000 1.0000
55.8000 788.0000 1.0000
55.8100 757.0000 1.0000
55.8200 802.0000 1.0000
55.8300 745.0000 1.0000
55.8400 730.0000 1.0000
55.8500 778.0000 1.0000
55.8600 765.0000 1.0000
55.8700 772.0000 1.0000
55.8800 801.0000 1.0000
55.8900 746.0000 1.0000
55.9000 733.0000 1.0000
55.9100 793.0000 1.0000
55.9200 760.0000 1.0000
55.9300 726.0000 1.0000
55.9400 763.0000 1.0000
55.9500 785.0000 1.0000
55.9600 760.0000 1.0000
55.9700 766.0000 1.0000
55.9800 755.0000 1.0000
55.9900 744.0000 1.0000
56.0000 749.0000 1.0000
56.0100 768.0000 1.0000
56.0200 737.0000 1.0000
56.0300 763.0000 1.0000
56.0400 744.0000 1.0000
56.0500 735.0000 1.0000
56.0600 764.0000 1.0000
56.0700 742.0000 1.0000
56.0800 759.0000 1.0000
56.0900 801.0000 1.0000
56.1000 751.0000 1.0000
56.1100 705.0000 1.0000
56.1200 748.0000 1.0000
56.1300 686.0000 1.0000
56.1400 725.0000 1.0000
56.1500 765.0000 1.0000
56.1600 731.0000 1.0000
56.1700 785.0000 1.0000
56.1800 754.0000 1.0000
56.1900 744.0000 1.0000
56.2000 752.0000 1.0000
56.2100 744.0000 1.0000
56.2200 673.0000 1.0000
56.2300 718.0000 1.0000
56.2400 705.0000 1.0000
56.2500 711.0000 1.0000
56.2600 724.0000 1.0000
56.2700 688.0000 1.0000
56.2800 741.0000 1.0000
56.2900 726.0000 1.0000
56.3000 753.0000 1.0000
56.3100 740.0000 1.0000
56.3200 716.0000 1.0000
56.3300 753.0000 1.0000
56.3400 730.0000 1.0000
56.3500 760.0000 1.0000
56.3600 752.0000 1.0000
56.3700 726.0000 1.0000
56.3800 727.0000 1.0000
56.3900 737.0000 1.0000
56.4000 723.0000 1.0000
56.4100 721.0000 1.0000
56.4200 745.0000 1.0000
56.4300 719.0000 1.0000
56.4400 720.0000 1.0000
56.4500 698.0000 1.0000
56.4600 665.0000 1.0000
56.4700 732.0000 1.0000
56.4800 726.0000 1.0000
56.4900 701.0000 1.0000
56.5000 740.0000 1.0000
56.5100 745.0000 1.0000
56.5200 765.0000 1.0000
56.5300 743.0000 1.0000
56.5400 708.0000 1.0000
56.5500 729.0000 1.0000
56.5600 745.0000 1.0000
56.5700 739.0000 1.0000
56.5800 726.0000 1.0000
56.5900 735.0000 1.0000
56.6000 729.0000 1.0000
56.6100 733.0000 1.0000
56.6200 725.0000 1.0000
56.6300 726.0000 1.0000
56.6400 757.0000 1.0000
56.6500 716.0000 1.0000
56.6600 717.0000 1.0000
56.6700 719.0000 1.0000
56.6800 750.0000 1.0000
56.6900 758.0000 1.0000
56.7000 721.0000 1.0000
56.7100 744.0000 1.0000
56.7200 715.0000 1.0000
56.7300 724.0000 1.0000
56.7400 720.0000 1.0000
56.7500 759.0000 1.0000
56.7600 690.0000 1.0000
56.7700 732.0000 1.0000
56.7800 746.0000 1.0000
56.7900 701.0000 1.0000
56.8000 730.0000 1.0000
56.8100 742.0000 1.0000
56.8200 725.0000 1.0000
56.8300 735.0000 1.0000
56.8400 762.0000 1.0000
56.8500 761.0000 1.0000
56.8600 728.0000 1.0000
56.8700 785.0000 1.0000
56.8800 792.0000 1.0000
56.8900 739.0000 1.0000
56.9000 756.0000 1.0000
56.9100 753.0000 1.0000
56.9200 741.0000 1.0000
56.9300 717.0000 1.0000
56.9400 704.0000 1.0000
56.9500 738.0000 1.0000
56.9600 753.0000 1.0000
56.9700 815.0000 1.0000
56.9800 761.0000 1.0000
56.9900 740.0000 1.0000
57.0000 736.0000 1.0000
57.0100 710.0000 1.0000
57.0200 735.0000 1.0000
57.0300 766.0000 1.0000
57.0400 738.0000 1.0000
57.0500 746.0000 1.0000
57.0600 745.0000 1.0000
57.0700 727.0000 1.0000
57.0800 770.0000 1.0000
57.0900 774.0000 1.0000
57.1000 747.0000 1.0000
57.1100 702.0000 1.0000
57.1200 703.0000 1.0000
57.1300 744.0000 1.0000
57.1400 717.0000 1.0000
57.1500 753.0000 1.0000
57.1600 755.0000 1.0000
57.1700 775.0000 1.0000
57.1800 700.0000 1.0000
57.1900 717.0000 1.0000
57.2000 714.0000 1.0000
57.2100 698.0000 1.0000
57.2200 710.0000 1.0000
57.2300 731.0000 1.0000
57.2400 771.0000 1.0000
57.2500 711.0000 1.0000
57.2600 732.0000 1.0000
57.2700 727.0000 1.0000
57.2800 801.0000 1.0000
57.2900 778.0000 1.0000
57.3000 774.0000 1.0000
57.3100 714.0000 1.0000
57.3200 768.0000 1.0000
57.3300 713.0000 1.0000
57.3400 713.0000 1.0000
57.3500 727.0000 1.0000
57.3600 752.0000 1.0000
57.3700 696.0000 1.0000
57.3800 700.0000 1.0000
57.3900 680.0000 1.0000
57.4000 755.0000 1.0000
57.4100 705.0000 1.0000
57.4200 731.0000 1.0000
57.4300 752.0000 1.0000
57.4400 733.0000 1.0000
57.4500 750.0000 1.0000
57.4600 767.0000 1.0000
57.4700 714.0000 1.0000
57.4800 763.0000 1.0000
57.4900 724.0000 1.0000
57.5000 757.0000 1.0000
57.5100 765.0000 1.0000
57.5200 702.0000 1.0000
57.5300 728.0000 1.0000
57.5400 758.0000 1.0000
57.5500 724.0000 1.0000
57.5600 686.0000 1.0000
57.5700 714.0000 1.0000
57.5800 745.0000 1.0000
57.5900 701.0000 1.0000
57.6000 689.0000 1.0000
57.6100 719.0000 1.0000
57.6200 711.0000 1.0000
57.6300 784.0000 1.0000
57.6400 741.0000 1.0000
57.6500 725.0000 1.0000
57.6600 717.0000 1.0000
57.6700 736.0000 1.0000
57.6800 749.0000 1.0000
57.6900 738.0000 1.0000
57.7000 696.0000 1.0000
57.7100 686.0000 1.0000
57.7200 719.0000 1.0000
57.7300 756.0000 1.0000
57.7400 752.0000 1.0000
57.7500 738.0000 1.0000
57.7600 703.0000 1.0000
57.7700 724.0000 1.0000
57.7800 729.0000 1.0000
57.7900 699.0000 1.0000
57.8000 716.0000 1.0000
57.8100 721.0000 1.0000
57.8200 684.0000 1.0000
57.8300 759.0000 1.0000
57.8400 735.0000 1.0000
57.8500 754.0000 1.0000
57.8600 685.0000 1.0000
57.8700 723.0000 1.0000
57.8800 738.0000 1.0000
57.8900 749.0000 1.0000
57.9000 730.0000 1.0000
57.9100 731.0000 1.0000
57.9200 714.0000 1.0000
57.9300 766.0000 1.0000
57.9400 762.0000 1.0000
57.9500 750.0000 1.0000
57.9600 741.0000 1.0000
57.9700 736.0000 1.0000
57.9800 720.0000 1.0000
57.9900 698.0000 1.0000
58.0000 721.0000 1.0000
58.0100 772.0000 1.0000
58.0200 768.0000 1.0000
58.0300 732.0000 1.0000
58.0400 798.0000 1.0000
58.0500 734.0000 1.0000
58.0600 707.0000 1.0000
58.0700 717.0000 1.0000
58.0800 770.0000 1.0000
58.0900 749.0000 1.0000
58.1000 697.0000 1.0000
58.1100 712.0000 1.0000
58.1200 754.0000 1.0000
58.1300 740.0000 1.0000
58.1400 704.0000 1.0000
58.1500 796.0000 1.0000
58.1600 760.0000 1.0000
58.1700 737.0000 1.0000
58.1800 750.0000 1.0000
58.1900 745.0000 1.0000
58.2000 723.0000 1.0000
58.2100 747.0000 1.0000
58.2200 767.0000 1.0000
58.2300 733.0000 1.0000
58.2400 708.0000 1.0000
58.2500 733.0000 1.0000
58.2600 801.0000 1.0000
58.2700 754.0000 1.0000
58.2800 745.0000 1.0000
58.2900 739.0000 1.0000
58.3000 716.0000 1.0000
58.3100 717.0000 1.0000
58.3200 746.0000 1.0000
58.3300 735.0000 1.0000
58.3400 722.0000 1.0000
58.3500 718.0000 1.0000
58.3600 734.0000 1.0000
58.3700 751.0000 1.0000
58.3800 741.0000 1.0000
58.3900 752.0000 1.0000
58.4000 704.0000 1.0000
58.4100 746.0000 1.0000
58.4200 789.0000 1.0000
58.4300 752.0000 1.0000
58.4400 761.0000 1.0000
58.4500 722.0000 1.0000
58.4600 739.0000 1.0000
58.4700 715.0000 1.0000
58.4800 715.0000 1.0000
58.4900 722.0000 1.0000
58.5000 776.0000 1.0000
58.5100 747.0000 1.0000
58.5200 751.0000 1.0000
58.5300 791.0000 1.0000
58.5400 748.0000 1.0000
58.5500 766.0000 1.0000
58.5600 726.0000 1.0000
58.5700 734.0000 1.0000
58.5800 694.0000 1.0000
58.5900 738.0000 1.0000
58.6000 768.0000 1.0000
58.6100 773.0000 1.0000
58.6200 746.0000 1.0000
58.6300 727.0000 1.0000
58.6400 761.0000 1.0000
58.6500 745.0000 1.0000
58.6600 731.0000 1.0000
58.6700 720.0000 1.0000
58.6800 766.0000 1.0000
58.6900 731.0000 1.0000
58.7000 733.0000 1.0000
58.7100 698.0000 1.0000
58.7200 727.0000 1.0000
58.7300 743.0000 1.0000
58.7400 709.0000 1.0000
58.7500 705.0000 1.0000
58.7600 705.0000 1.0000
58.7700 722.0000 1.0000
58.7800 689.0000 1.0000
58.7900 758.0000 1.0000
58.8000 745.0000 1.0000
58.8100 721.0000 1.0000
58.8200 746.0000 1.0000
58.8300 736.0000 1.0000
58.8400 743.0000 1.0000
58.8500 714.0000 1.0000
58.8600 704.0000 1.0000
58.8700 714.0000 1.0000
58.8800 687.0000 1.0000
58.8900 717.0000 1.0000
58.9000 706.0000 1.0000
58.9100 705.0000 1.0000
58.9200 761.0000 1.0000
58.9300 740.0000 1.0000
58.9400 747.0000 1.0000
58.9500 736.0000 1.0000
58.9600 728.0000 1.0000
58.9700 714.0000 1.0000
58.9800 709.0000 1.0000
58.9900 740.0000 1.0000
59.0000 710.0000 1.0000
59.0100 727.0000 1.0000
59.0200 706.0000 1.0000
59.0300 740.0000 1.0000
59.0400 726.0000 1.0000
59.0500 743.0000 1.0000
59.0600 738.0000 1.0000
59.0700 745.0000 1.0000
59.0800 704.0000 1.0000
59.0900 754.0000 1.0000
59.1000 724.0000 1.0000
59.1100 762.0000 1.0000
59.1200 727.0000 1.0000
59.1300 726.0000 1.0000
59.1400 718.0000 1.0000
59.1500 732.0000 1.0000
59.1600 708.0000 1.0000
59.1700 760.0000 1.0000
59.1800 742.0000 1.0000
59.1900 713.0000 1.0000
59.2000 713.0000 1.0000
59.2100 747.0000 1.0000
59.2200 749.0000 1.0000
59.2300 746.0000 1.0000
59.2400 701.0000 1.0000
59.2500 716.0000 1.0000
59.2600 743.0000 1.0000
59.2700 728.0000 1.0000
59.2800 756.0000 1.0000
59.2900 718.0000 1.0000
59.3000 715.0000 1.0000
59.3100 713.0000 1.0000
59.3200 724.0000 1.0000
59.3300 740.0000 1.0000
59.3400 708.0000 1.0000
59.3500 716.0000 1.0000
59.3600 708.0000 1.0000
59.3700 725.0000 1.0000
59.3800 754.0000 1.0000
59.3900 762.0000 1.0000
59.4000 751.0000 1.0000
59.4100 767.0000 1.0000
59.4200 739.0000 1.0000
59.4300 742.0000 1.0000
59.4400 735.0000 1.0000
59.4500 685.0000 1.0000
59.4600 761.0000 1.0000
59.4700 760.0000 1.0000
59.4800 718.0000 1.0000
59.4900 747.0000 1.0000
59.5000 723.0000 1.0000
59.5100 709.0000 1.0000
59.5200 691.0000 1.0000
59.5300 735.0000 1.0000
59.5400 736.0000 1.0000
59.5500 680.0000 1.0000
59.5600 720.0000 1.0000
59.5700 724.0000 1.0000
59.5800 701.0000 1.0000
59.5900 726.0000 1.0000
59.6000 721.0000 1.0000
59.6100 755.0000 1.0000
59.6200 712.0000 1.0000
59.6300 704.0000 1.0000
59.6400 692.0000 1.0000
59.6500 697.0000 1.0000
59.6600 700.0000 1.0000
59.6700 777.0000 1.0000
59.6800 721.0000 1.0000
59.6900 711.0000 1.0000
59.7000 709.0000 1.0000
59.7100 696.0000 1.0000
59.7200 733.0000 1.0000
59.7300 740.0000 1.0000
59.7400 684.0000 1.0000
59.7500 676.0000 1.0000
59.7600 710.0000 1.0000
59.7700 688.0000 1.0000
59.7800 670.0000 1.0000
59.7900 730.0000 1.0000
59.8000 715.0000 1.0000
59.8100 691.0000 1.0000
59.8200 726.0000 1.0000
59.8300 785.0000 1.0000
59.8400 778.0000 1.0000
59.8500 711.0000 1.0000
59.8600 745.0000 1.0000
59.8700 748.0000 1.0000
59.8800 745.0000 1.0000
59.8900 739.0000 1.0000
59.9000 712.0000 1.0000
59.9100 715.0000 1.0000
59.9200 702.0000 1.0000
59.9300 763.0000 1.0000
59.9400 743.0000 1.0000
59.9500 727.0000 1.0000
59.9600 737.0000 1.0000
59.9700 701.0000 1.0000
59.9800 726.0000 1.0000
59.9900 750.0000 1.0000
60.0000 751.0000 1.0000
60.0100 738.0000 1.0000
60.0200 747.0000 1.0000
60.0300 731.0000 1.0000
60.0400 714.0000 1.0000
60.0500 736.0000 1.0000
60.0600 718.0000 1.0000
60.0700 750.0000 1.0000
60.0800 720.0000 1.0000
60.0900 688.0000 1.0000
60.1000 735.0000 1.0000
60.1100 740.0000 1.0000
60.1200 696.0000 1.0000
60.1300 688.0000 1.0000
60.1400 744.0000 1.0000
60.1500 696.0000 1.0000
60.1600 699.0000 1.0000
60.1700 693.0000 1.0000
60.1800 721.0000 1.0000
60.1900 721.0000 1.0000
60.2000 702.0000 1.0000
60.2100 693.0000 1.0000
60.2200 696.0000 1.0000
60.2300 719.0000 1.0000
60.2400 752.0000 1.0000
60.2500 723.0000 1.0000
60.2600 725.0000 1.0000
60.2700 730.0000 1.0000
60.2800 762.0000 1.0000
60.2900 741.0000 1.0000
60.3000 721.0000 1.0000
60.3100 713.0000 1.0000
60.3200 762.0000 1.0000
60.3300 742.0000 1.0000
60.3400 750.0000 1.0000
60.3500 727.0000 1.0000
60.3600 745.0000 1.0000
60.3700 748.0000 1.0000
60.3800 745.0000 1.0000
60.3900 737.0000 1.0000
60.4000 717.0000 1.0000
60.4100 731.0000 1.0000
60.4200 707.0000 1.0000
60.4300 752.0000 1.0000
60.4400 706.0000 1.0000
60.4500 720.0000 1.0000
60.4600 742.0000 1.0000
60.4700 776.0000 1.0000
60.4800 779.0000 1.0000
60.4900 713.0000 1.0000
60.5000 680.0000 1.0000
60.5100 721.0000 1.0000
60.5200 748.0000 1.0000
60.5300 768.0000 1.0000
60.5400 765.0000 1.0000
60.5500 724.0000 1.0000
60.5600 709.0000 1.0000
60.5700 687.0000 1.0000
60.5800 716.0000 1.0000
60.5900 722.0000 1.0000
60.6000 740.0000 1.0000
60.6100 686.0000 1.0000
60.6200 735.0000 1.0000
60.6300 733.0000 1.0000
60.6400 692.0000 1.0000
60.6500 713.0000 1.0000
60.6600 730.0000 1.0000
60.6700 744.0000 1.0000
60.6800 667.0000 1.0000
60.6900 722.0000 1.0000
60.7000 723.0000 1.0000
60.7100 726.0000 1.0000
60.7200 739.0000 1.0000
60.7300 731.0000 1.0000
60.7400 759.0000 1.0000
60.7500 745.0000 1.0000
60.7600 741.0000 1.0000
60.7700 754.0000 1.0000
60.7800 731.0000 1.0000
60.7900 705.0000 1.0000
60.8000 727.0000 1.0000
60.8100 713.0000 1.0000
60.8200 666.0000 1.0000
60.8300 756.0000 1.0000
60.8400 745.0000 1.0000
60.8500 739.0000 1.0000
60.8600 695.0000 1.0000
60.8700 705.0000 1.0000
60.8800 734.0000 1.0000
60.8900 736.0000 1.0000
60.9000 686.0000 1.0000
60.9100 748.0000 1.0000
60.9200 730.0000 1.0000
60.9300 682.0000 1.0000
60.9400 696.0000 1.0000
60.9500 766.0000 1.0000
60.9600 723.0000 1.0000
60.9700 711.0000 1.0000
60.9800 755.0000 1.0000
60.9900 708.0000 1.0000
61.0000 711.0000 1.0000
61.0100 744.0000 1.0000
61.0200 732.0000 1.0000
61.0300 724.0000 1.0000
61.0400 695.0000 1.0000
61.0500 724.0000 1.0000
61.0600 747.0000 1.0000
61.0700 728.0000 1.0000
61.0800 692.0000 1.0000
61.0900 713.0000 1.0000
61.1000 733.0000 1.0000
61.1100 729.0000 1.0000
61.1200 744.0000 1.0000
61.1300 746.0000 1.0000
61.1400 684.0000 1.0000
61.1500 734.0000 1.0000
61.1600 723.0000 1.0000
61.1700 715.0000 1.0000
61.1800 735.0000 1.0000
61.1900 763.0000 1.0000
61.2000 728.0000 1.0000
61.2100 699.0000 1.0000
61.2200 680.0000 1.0000
61.2300 719.0000 1.0000
61.2400 730.0000 1.0000
61.2500 748.0000 1.0000
61.2600 798.0000 1.0000
61.2700 741.0000 1.0000
61.2800 714.0000 1.0000
61.2900 732.0000 1.0000
61.3000 705.0000 1.0000
61.3100 785.0000 1.0000
61.3200 704.0000 1.0000
61.3300 725.0000 1.0000
61.3400 718.0000 1.0000
61.3500 800.0000 1.0000
61.3600 723.0000 1.0000
61.3700 722.0000 1.0000
61.3800 725.0000 1.0000
61.3900 767.0000 1.0000
61.4000 700.0000 1.0000
61.4100 750.0000 1.0000
61.4200 732.0000 1.0000
61.4300 752.0000 1.0000
61.4400 753.0000 1.0000
61.4500 752.0000 1.0000
61.4600 775.0000 1.0000
61.4700 762.0000 1.0000
61.4800 749.0000 1.0000
61.4900 790.0000 1.0000
61.5000 749.0000 1.0000
61.5100 794.0000 1.0000
61.5200 773.0000 1.0000
61.5300 734.0000 1.0000
61.5400 791.0000 1.0000
61.5500 741.0000 1.0000
61.5600 771.0000 1.0000
61.5700 722.0000 1.0000
61.5800 720.0000 1.0000
61.5900 716.0000 1.0000
61.6000 729.0000 1.0000
61.6100 747.0000 1.0000
61.6200 737.0000 1.0000
61.6300 754.0000 1.0000
61.6400 747.0000 1.0000
61.6500 776.0000 1.0000
61.6600 743.0000 1.0000
61.6700 774.0000 1.0000
61.6800 763.0000 1.0000
61.6900 762.0000 1.0000
61.7000 792.0000 1.0000
61.7100 783.0000 1.0000
61.7200 755.0000 1.0000
61.7300 810.0000 1.0000
61.7400 783.0000 1.0000
61.7500 745.0000 1.0000
61.7600 792.0000 1.0000
61.7700 775.0000 1.0000
61.7800 736.0000 1.0000
61.7900 835.0000 1.0000
61.8000 825.0000 1.0000
61.8100 857.0000 1.0000
61.8200 793.0000 1.0000
61.8300 830.0000 1.0000
61.8400 829.0000 1.0000
61.8500 804.0000 1.0000
61.8600 816.0000 1.0000
61.8700 813.0000 1.0000
61.8800 802.0000 1.0000
61.8900 860.0000 1.0000
61.9000 872.0000 1.0000
61.9100 814.0000 1.0000
61.9200 862.0000 1.0000
61.9300 901.0000 1.0000
61.9400 910.0000 1.0000
61.9500 911.0000 1.0000
61.9600 912.0000 1.0000
61.9700 894.0000 1.0000
61.9800 916.0000 1.0000
61.9900 953.0000 1.0000
62.0000 921.0000 1.0000
62.0100 950.0000 1.0000
62.0200 953.0000 1.0000
62.0300 1040.0000 1.0000
62.0400 1035.0000 1.0000
62.0500 1034.0000 1.0000
62.0600 1070.0000 1.0000
62.0700 1070.0000 1.0000
62.0800 1107.0000 1.0000
62.0900 1189.0000 1.0000
62.1000 1215.0000 1.0000
62.1100 1268.0000 1.0000
62.1200 1329.0000 1.0000
62.1300 1301.0000 1.0000
62.1400 1374.0000 1.0000
62.1500 1354.0000 1.0000
62.1600 1366.0000 1.0000
62.1700 1444.0000 1.0000
62.1800 1455.0000 1.0000
62.1900 1565.0000 1.0000
62.2000 1607.0000 1.0000
62.2100 1581.0000 1.0000
62.2200 1586.0000 1.0000
62.2300 1660.0000 1.0000
62.2400 1677.0000 1.0000
62.2500 1718.0000 1.0000
62.2600 1726.0000 1.0000
62.2700 1722.0000 1.0000
62.2800 1798.0000 1.0000
62.2900 1714.0000 1.0000
62.3000 1741.0000 1.0000
62.3100 1743.0000 1.0000
62.3200 1753.0000 1.0000
62.3300 1717.0000 1.0000
62.3400 1700.0000 1.0000
62.3500 1677.0000 1.0000
62.3600 1654.0000 1.0000
62.3700 1694.0000 1.0000
62.3800 1720.0000 1.0000
62.3900 1652.0000 1.0000
62.4000 1592.0000 1.0000
62.4100 1518.0000 1.0000
62.4200 1535.0000 1.0000
62.4300 1531.0000 1.0000
62.4400 1493.0000 1.0000
62.4500 1521.0000 1.0000
62.4600 1458.0000 1.0000
62.4700 1436.0000 1.0000
62.4800 1443.0000 1.0000
62.4900 1392.0000 1.0000
62.5000 1319.0000 1.0000
62.5100 1272.0000 1.0000
62.5200 1280.0000 1.0000
62.5300 1266.0000 1.0000
62.5400 1233.0000 1.0000
62.5500 1256.0000 1.0000
62.5600 1206.0000 1.0000
62.5700 1159.0000 1.0000
62.5800 1095.0000 1.0000
62.5900 1097.0000 1.0000
62.6000 1067.0000 1.0000
62.6100 1045.0000 1.0000
62.6200 1034.0000 1.0000
62.6300 1047.0000 1.0000
62.6400 1027.0000 1.0000
62.6500 1009.0000 1.0000
62.6600 981.0000 1.0000
62.6700 991.0000 1.0000
62.6800 949.0000 1.0000
62.6900 952.0000 1.0000
62.7000 935.0000 1.0000
62.7100 908.0000 1.0000
62.7200 879.0000 1.0000
62.7300 893.0000 1.0000
62.7400 946.0000 1.0000
62.7500 936.0000 1.0000
62.7600 879.0000 1.0000
62.7700 891.0000 1.0000
62.7800 881.0000 1.0000
62.7900 879.0000 1.0000
62.8000 889.0000 1.0000
62.8100 859.0000 1.0000
62.8200 823.0000 1.0000
62.8300 831.0000 1.0000
62.8400 797.0000 1.0000
62.8500 808.0000 1.0000
62.8600 829.0000 1.0000
62.8700 845.0000 1.0000
62.8800 798.0000 1.0000
62.8900 832.0000 1.0000
62.9000 836.0000 1.0000
62.9100 811.0000 1.0000
62.9200 802.0000 1.0000
62.9300 749.0000 1.0000
62.9400 790.0000 1.0000
62.9500 815.0000 1.0000
62.9600 786.0000 1.0000
62.9700 746.0000 1.0000
62.9800 786.0000 1.0000
62.9900 778.0000 1.0000
63.0000 791.0000 1.0000
63.0100 800.0000 1.0000
63.0200 777.0000 1.0000
63.0300 792.0000 1.0000
63.0400 768.0000 1.0000
63.0500 800.0000 1.0000
63.0600 811.0000 1.0000
63.0700 787.0000 1.0000
63.0800 810.0000 1.0000
63.0900 772.0000 1.0000
63.1000 781.0000 1.0000
63.1100 799.0000 1.0000
63.1200 752.0000 1.0000
63.1300 794.0000 1.0000
63.1400 767.0000 1.0000
63.1500 765.0000 1.0000
63.1600 764.0000 1.0000
63.1700 788.0000 1.0000
63.1800 765.0000 1.0000
63.1900 734.0000 1.0000
63.2000 773.0000 1.0000
63.2100 783.0000 1.0000
63.2200 769.0000 1.0000
63.2300 765.0000 1.0000
63.2400 711.0000 1.0000
63.2500 815.0000 1.0000
63.2600 756.0000 1.0000
63.2700 770.0000 1.0000
63.2800 793.0000 1.0000
63.2900 770.0000 1.0000
63.3000 761.0000 1.0000
63.3100 778.0000 1.0000
63.3200 729.0000 1.0000
63.3300 730.0000 1.0000
63.3400 743.0000 1.0000
63.3500 748.0000 1.0000
63.3600 736.0000 1.0000
63.3700 738.0000 1.0000
63.3800 725.0000 1.0000
63.3900 746.0000 1.0000
63.4000 751.0000 1.0000
63.4100 714.0000 1.0000
63.4200 736.0000 1.0000
63.4300 753.0000 1.0000
63.4400 738.0000 1.0000
63.4500 750.0000 1.0000
63.4600 727.0000 1.0000
63.4700 690.0000 1.0000
63.4800 769.0000 1.0000
63.4900 735.0000 1.0000
63.5000 667.0000 1.0000
63.5100 707.0000 1.0000
63.5200 755.0000 1.0000
63.5300 776.0000 1.0000
63.5400 738.0000 1.0000
63.5500 715.0000 1.0000
63.5600 751.0000 1.0000
63.5700 754.0000 1.0000
63.5800 756.0000 1.0000
63.5900 776.0000 1.0000
63.6000 751.0000 1.0000
63.6100 725.0000 1.0000
63.6200 712.0000 1.0000
63.6300 734.0000 1.0000
63.6400 701.0000 1.0000
63.6500 743.0000 1.0000
63.6600 740.0000 1.0000
63.6700 734.0000 1.0000
63.6800 786.0000 1.0000
63.6900 736.0000 1.0000
63.7000 720.0000 1.0000
63.7100 756.0000 1.0000
63.7200 752.0000 1.0000
63.7300 751.0000 1.0000
63.7400 744.0000 1.0000
63.7500 724.0000 1.0000
63.7600 738.0000 1.0000
63.7700 713.0000 1.0000
63.7800 719.0000 1.0000
63.7900 721.0000 1.0000
63.8000 756.0000 1.0000
63.8100 741.0000 1.0000
63.8200 726.0000 1.0000
63.8300 727.0000 1.0000
63.8400 727.0000 1.0000
63.8500 700.0000 1.0000
63.8600 731.0000 1.0000
63.8700 732.0000 1.0000
63.8800 768.0000 1.0000
63.8900 754.0000 1.0000
63.9000 729.0000 1.0000
63.9100 750.0000 1.0000
63.9200 713.0000 1.0000
63.9300 773.0000 1.0000
63.9400 731.0000 1.0000
63.9500 751.0000 1.0000
63.9600 745.0000 1.0000
63.9700 759.0000 1.0000
63.9800 754.0000 1.0000
63.9900 768.0000 1.0000
64.0000 772.0000 1.0000
64.0100 750.0000 1.0000
64.0200 758.0000 1.0000
64.0300 749.0000 1.0000
64.0400 718.0000 1.0000
64.0500 741.0000 1.0000
64.0600 735.0000 1.0000
64.0700 749.0000 1.0000
64.0800 774.0000 1.0000
64.0900 724.0000 1.0000
64.1000 713.0000 1.0000
64.1100 755.0000 1.0000
64.1200 736.0000 1.0000
64.1300 747.0000 1.0000
64.1400 765.0000 1.0000
64.1500 712.0000 1.0000
64.1600 764.0000 1.0000
64.1700 737.0000 1.0000
64.1800 755.0000 1.0000
64.1900 777.0000 1.0000
64.2000 760.0000 1.0000
64.2100 734.0000 1.0000
64.2200 771.0000 1.0000
64.2300 764.0000 1.0000
64.2400 773.0000 1.0000
64.2500 773.0000 1.0000
64.2600 786.0000 1.0000
64.2700 785.0000 1.0000
64.2800 733.0000 1.0000
64.2900 788.0000 1.0000
64.3000 789.0000 1.0000
64.3100 766.0000 1.0000
64.3200 749.0000 1.0000
64.3300 802.0000 1.0000
64.3400 764.0000 1.0000
64.3500 807.0000 1.0000
64.3600 846.0000 1.0000
64.3700 847.0000 1.0000
64.3800 822.0000 1.0000
64.3900 812.0000 1.0000
64.4000 810.0000 1.0000
64.4100 842.0000 1.0000
64.4200 807.0000 1.0000
64.4300 837.0000 1.0000
64.4400 829.0000 1.0000
64.4500 851.0000 1.0000
64.4600 855.0000 1.0000
64.4700 844.0000 1.0000
64.4800 818.0000 1.0000
64.4900 839.0000 1.0000
64.5000 832.0000 1.0000
64.5100 854.0000 1.0000
64.5200 861.0000 1.0000
64.5300 857.0000 1.0000
64.5400 891.0000 1.0000
64.5500 959.0000 1.0000
64.5600 916.0000 1.0000
64.5700 984.0000 1.0000
64.5800 969.0000 1.0000
64.5900 940.0000 1.0000
64.6000 973.0000 1.0000
64.6100 968.0000 1.0000
64.6200 992.0000 1.0000
64.6300 943.0000 1.0000
64.6400 945.0000 1.0000
64.6500 997.0000 1.0000
64.6600 1049.0000 1.0000
64.6700 1006.0000 1.0000
64.6800 995.0000 1.0000
64.6900 1014.0000 1.0000
64.7000 1007.0000 1.0000
64.7100 1024.0000 1.0000
64.7200 946.0000 1.0000
64.7300 952.0000 1.0000
64.7400 993.0000 1.0000
64.7500 990.0000 1.0000
64.7600 1025.0000 1.0000
64.7700 1008.0000 1.0000
64.7800 983.0000 1.0000
64.7900 907.0000 1.0000
64.8000 940.0000 1.0000
64.8100 956.0000 1.0000
64.8200 964.0000 1.0000
64.8300 947.0000 1.0000
64.8400 946.0000 1.0000
64.8500 894.0000 1.0000
64.8600 968.0000 1.0000
64.8700 875.0000 1.0000
64.8800 898.0000 1.0000
64.8900 883.0000 1.0000
64.9000 937.0000 1.0000
64.9100 891.0000 1.0000
64.9200 911.0000 1.0000
64.9300 881.0000 1.0000
64.9400 868.0000 1.0000
64.9500 847.0000 1.0000
64.9600 921.0000 1.0000
64.9700 850.0000 1.0000
64.9800 883.0000 1.0000
64.9900 881.0000 1.0000
65.0000 860.0000 1.0000
65.0100 883.0000 1.0000
65.0200 837.0000 1.0000
65.0300 877.0000 1.0000
65.0400 826.0000 1.0000
65.0500 817.0000 1.0000
65.0600 813.0000 1.0000
65.0700 815.0000 1.0000
65.0800 827.0000 1.0000
65.0900 836.0000 1.0000
65.1000 806.0000 1.0000
65.1100 770.0000 1.0000
65.1200 821.0000 1.0000
65.1300 786.0000 1.0000
65.1400 833.0000 1.0000
65.1500 794.0000 1.0000
65.1600 793.0000 1.0000
65.1700 779.0000 1.0000
65.1800 820.0000 1.0000
65.1900 812.0000 1.0000
65.2000 791.0000 1.0000
65.2100 787.0000 1.0000
65.2200 761.0000 1.0000
65.2300 763.0000 1.0000
65.2400 740.0000 1.0000
65.2500 813.0000 1.0000
65.2600 827.0000 1.0000
65.2700 772.0000 1.0000
65.2800 754.0000 1.0000
65.2900 828.0000 1.0000
65.3000 775.0000 1.0000
65.3100 776.0000 1.0000
65.3200 769.0000 1.0000
65.3300 758.0000 1.0000
65.3400 750.0000 1.0000
65.3500 699.0000 1.0000
65.3600 739.0000 1.0000
65.3700 737.0000 1.0000
65.3800 746.0000 1.0000
65.3900 739.0000 1.0000
65.4000 745.0000 1.0000
65.4100 784.0000 1.0000
65.4200 791.0000 1.0000
65.4300 753.0000 1.0000
65.4400 773.0000 1.0000
65.4500 740.0000 1.0000
65.4600 754.0000 1.0000
65.4700 805.0000 1.0000
65.4800 726.0000 1.0000
65.4900 723.0000 1.0000
65.5000 767.0000 1.0000
65.5100 794.0000 1.0000
65.5200 798.0000 1.0000
65.5300 743.0000 1.0000
65.5400 736.0000 1.0000
65.5500 718.0000 1.0000
65.5600 747.0000 1.0000
65.5700 778.0000 1.0000
65.5800 768.0000 1.0000
65.5900 796.0000 1.0000
65.6000 754.0000 1.0000
65.6100 774.0000 1.0000
65.6200 781.0000 1.0000
65.6300 782.0000 1.0000
65.6400 801.0000 1.0000
65.6500 791.0000 1.0000
65.6600 793.0000 1.0000
65.6700 759.0000 1.0000
65.6800 788.0000 1.0000
65.6900 810.0000 1.0000
65.7000 823.0000 1.0000
65.7100 815.0000 1.0000
65.7200 856.0000 1.0000
65.7300 803.0000 1.0000
65.7400 820.0000 1.0000
65.7500 777.0000 1.0000
65.7600 811.0000 1.0000
65.7700 830.0000 1.0000
65.7800 822.0000 1.0000
65.7900 795.0000 1.0000
65.8000 800.0000 1.0000
65.8100 859.0000 1.0000
65.8200 847.0000 1.0000
65.8300 886.0000 1.0000
65.8400 838.0000 1.0000
65.8500 901.0000 1.0000
65.8600 851.0000 1.0000
65.8700 915.0000 1.0000
65.8800 882.0000 1.0000
65.8900 934.0000 1.0000
65.9000 979.0000 1.0000
65.9100 997.0000 1.0000
65.9200 959.0000 1.0000
65.9300 946.0000 1.0000
65.9400 1015.0000 1.0000
65.9500 990.0000 1.0000
65.9600 1015.0000 1.0000
65.9700 1073.0000 1.0000
65.9800 1113.0000 1.0000
65.9900 1094.0000 1.0000
66.0000 1068.0000 1.0000
66.0100 1143.0000 1.0000
66.0200 1200.0000 1.0000
66.0300 1252.0000 1.0000
66.0400 1277.0000 1.0000
66.0500 1365.0000 1.0000
66.0600 1363.0000 1.0000
66.0700 1420.0000 1.0000
66.0800 1527.0000 1.0000
66.0900 1543.0000 1.0000
66.1000 1661.0000 1.0000
66.1100 1729.0000 1.0000
66.1200 1759.0000 1.0000
66.1300 1953.0000 1.0000
66.1400 2103.0000 1.0000
66.1500 2146.0000 1.0000
66.1600 2217.0000 1.0000
66.1700 2440.0000 1.0000
66.1800 2435.0000 1.0000
66.1900 2530.0000 1.0000
66.2000 2708.0000 1.0000
66.2100 2634.0000 1.0000
66.2200 2678.0000 1.0000
66.2300 2753.0000 1.0000
66.2400 2727.0000 1.0000
66.2500 2676.0000 1.0000
66.2600 2626.0000 1.0000
66.2700 2685.0000 1.0000
66.2800 2505.0000 1.0000
66.2900 2521.0000 1.0000
66.3000 2503.0000 1.0000
66.3100 2515.0000 1.0000
66.3200 2497.0000 1.0000
66.3300 2446.0000 1.0000
66.3400 2358.0000 1.0000
66.3500 2382.0000 1.0000
66.3600 2354.0000 1.0000
66.3700 2310.0000 1.0000
66.3800 2305.0000 1.0000
66.3900 2235.0000 1.0000
66.4000 2267.0000 1.0000
66.4100 2206.0000 1.0000
66.4200 2113.0000 1.0000
66.4300 2160.0000 1.0000
66.4400 2086.0000 1.0000
66.4500 1947.0000 1.0000
66.4600 1919.0000 1.0000
66.4700 1840.0000 1.0000
66.4800 1790.0000 1.0000
66.4900 1642.0000 1.0000
66.5000 1562.0000 1.0000
66.5100 1553.0000 1.0000
66.5200 1520.0000 1.0000
66.5300 1491.0000 1.0000
66.5400 1428.0000 1.0000
66.5500 1370.0000 1.0000
66.5600 1317.0000 1.0000
66.5700 1280.0000 1.0000
66.5800 1190.0000 1.0000
66.5900 1191.0000 1.0000
66.6000 1132.0000 1.0000
66.6100 1122.0000 1.0000
66.6200 1119.0000 1.0000
66.6300 1081.0000 1.0000
66.6400 1058.0000 1.0000
66.6500 1070.0000 1.0000
66.6600 1034.0000 1.0000
66.6700 990.0000 1.0000
66.6800 991.0000 1.0000
66.6900 1001.0000 1.0000
66.7000 961.0000 1.0000
66.7100 931.0000 1.0000
66.7200 954.0000 1.0000
66.7300 914.0000 1.0000
66.7400 883.0000 1.0000
66.7500 854.0000 1.0000
66.7600 824.0000 1.0000
66.7700 903.0000 1.0000
66.7800 856.0000 1.0000
66.7900 855.0000 1.0000
66.8000 831.0000 1.0000
66.8100 826.0000 1.0000
66.8200 822.0000 1.0000
66.8300 814.0000 1.0000
66.8400 802.0000 1.0000
66.8500 803.0000 1.0000
66.8600 820.0000 1.0000
66.8700 765.0000 1.0000
66.8800 743.0000 1.0000
66.8900 774.0000 1.0000
66.9000 765.0000 1.0000
66.9100 779.0000 1.0000
66.9200 729.0000 1.0000
66.9300 748.0000 1.0000
66.9400 766.0000 1.0000
66.9500 777.0000 1.0000
66.9600 757.0000 1.0000
66.9700 733.0000 1.0000
66.9800 731.0000 1.0000
66.9900 718.0000 1.0000
67.0000 737.0000 1.0000
67.0100 708.0000 1.0000
67.0200 746.0000 1.0000
67.0300 747.0000 1.0000
67.0400 715.0000 1.0000
67.0500 741.0000 1.0000
67.0600 698.0000 1.0000
67.0700 735.0000 1.0000
67.0800 709.0000 1.0000
67.0900 706.0000 1.0000
67.1000 723.0000 1.0000
67.1100 709.0000 1.0000
67.1200 695.0000 1.0000
67.1300 696.0000 1.0000
67.1400 690.0000 1.0000
67.1500 739.0000 1.0000
67.1600 693.0000 1.0000
67.1700 748.0000 1.0000
67.1800 745.0000 1.0000
67.1900 707.0000 1.0000
67.2000 709.0000 1.0000
67.2100 726.0000 1.0000
67.2200 725.0000 1.0000
67.2300 723.0000 1.0000
67.2400 715.0000 1.0000
67.2500 662.0000 1.0000
67.2600 736.0000 1.0000
67.2700 693.0000 1.0000
67.2800 683.0000 1.0000
67.2900 704.0000 1.0000
67.3000 692.0000 1.0000
67.3100 707.0000 1.0000
67.3200 710.0000 1.0000
67.3300 682.0000 1.0000
67.3400 678.0000 1.0000
67.3500 710.0000 1.0000
67.3600 703.0000 1.0000
67.3700 703.0000 1.0000
67.3800 652.0000 1.0000
67.3900 669.0000 1.0000
67.4000 697.0000 1.0000
67.4100 651.0000 1.0000
67.4200 719.0000 1.0000
67.4300 668.0000 1.0000
67.4400 704.0000 1.0000
67.4500 658.0000 1.0000
67.4600 688.0000 1.0000
67.4700 655.0000 1.0000
67.4800 689.0000 1.0000
67.4900 669.0000 1.0000
67.5000 727.0000 1.0000
67.5100 667.0000 1.0000
67.5200 665.0000 1.0000
67.5300 672.0000 1.0000
67.5400 707.0000 1.0000
67.5500 660.0000 1.0000
67.5600 660.0000 1.0000
67.5700 659.0000 1.0000
67.5800 661.0000 1.0000
67.5900 701.0000 1.0000
67.6000 710.0000 1.0000
67.6100 676.0000 1.0000
67.6200 669.0000 1.0000
67.6300 669.0000 1.0000
67.6400 690.0000 1.0000
67.6500 639.0000 1.0000
67.6600 654.0000 1.0000
67.6700 664.0000 1.0000
67.6800 667.0000 1.0000
67.6900 677.0000 1.0000
67.7000 649.0000 1.0000
67.7100 638.0000 1.0000
67.7200 675.0000 1.0000
67.7300 661.0000 1.0000
67.7400 674.0000 1.0000
67.7500 682.0000 1.0000
67.7600 685.0000 1.0000
67.7700 676.0000 1.0000
67.7800 687.0000 1.0000
67.7900 702.0000 1.0000
67.8000 688.0000 1.0000
67.8100 680.0000 1.0000
67.8200 652.0000 1.0000
67.8300 641.0000 1.0000
67.8400 664.0000 1.0000
67.8500 662.0000 1.0000
67.8600 692.0000 1.0000
67.8700 654.0000 1.0000
67.8800 652.0000 1.0000
67.8900 653.0000 1.0000
67.9000 653.0000 1.0000
67.9100 644.0000 1.0000
67.9200 669.0000 1.0000
67.9300 645.0000 1.0000
67.9400 646.0000 1.0000
67.9500 653.0000 1.0000
67.9600 665.0000 1.0000
67.9700 668.0000 1.0000
67.9800 642.0000 1.0000
67.9900 641.0000 1.0000
68.0000 677.0000 1.0000
68.0100 647.0000 1.0000
68.0200 679.0000 1.0000
68.0300 680.0000 1.0000
68.0400 666.0000 1.0000
68.0500 667.0000 1.0000
68.0600 680.0000 1.0000
68.0700 638.0000 1.0000
68.0800 645.0000 1.0000
68.0900 676.0000 1.0000
68.1000 685.0000 1.0000
68.1100 647.0000 1.0000
68.1200 665.0000 1.0000
68.1300 661.0000 1.0000
68.1400 637.0000 1.0000
68.1500 673.0000 1.0000
68.1600 684.0000 1.0000
68.1700 687.0000 1.0000
68.1800 715.0000 1.0000
68.1900 628.0000 1.0000
68.2000 668.0000 1.0000
68.2100 668.0000 1.0000
68.2200 650.0000 1.0000
68.2300 646.0000 1.0000
68.2400 676.0000 1.0000
68.2500 660.0000 1.0000
68.2600 662.0000 1.0000
68.2700 631.0000 1.0000
68.2800 627.0000 1.0000
68.2900 632.0000 1.0000
68.3000 707.0000 1.0000
68.3100 670.0000 1.0000
68.3200 653.0000 1.0000
68.3300 668.0000 1.0000
68.3400 684.0000 1.0000
68.3500 633.0000 1.0000
68.3600 658.0000 1.0000
68.3700 663.0000 1.0000
68.3800 644.0000 1.0000
68.3900 654.0000 1.0000
68.4000 667.0000 1.0000
68.4100 652.0000 1.0000
68.4200 624.0000 1.0000
68.4300 657.0000 1.0000
68.4400 682.0000 1.0000
68.4500 664.0000 1.0000
68.4600 637.0000 1.0000
68.4700 651.0000 1.0000
68.4800 642.0000 1.0000
68.4900 662.0000 1.0000
68.5000 642.0000 1.0000
68.5100 644.0000 1.0000
68.5200 673.0000 1.0000
68.5300 650.0000 1.0000
68.5400 674.0000 1.0000
68.5500 658.0000 1.0000
68.5600 681.0000 1.0000
68.5700 633.0000 1.0000
68.5800 668.0000 1.0000
68.5900 643.0000 1.0000
68.6000 607.0000 1.0000
68.6100 662.0000 1.0000
68.6200 677.0000 1.0000
68.6300 619.0000 1.0000
68.6400 629.0000 1.0000
68.6500 655.0000 1.0000
68.6600 676.0000 1.0000
68.6700 624.0000 1.0000
68.6800 692.0000 1.0000
68.6900 655.0000 1.0000
68.7000 629.0000 1.0000
68.7100 710.0000 1.0000
68.7200 635.0000 1.0000
68.7300 676.0000 1.0000
68.7400 612.0000 1.0000
68.7500 638.0000 1.0000
68.7600 609.0000 1.0000
68.7700 639.0000 1.0000
68.7800 611.0000 1.0000
68.7900 635.0000 1.0000
68.8000 644.0000 1.0000
68.8100 646.0000 1.0000
68.8200 647.0000 1.0000
68.8300 653.0000 1.0000
68.8400 651.0000 1.0000
68.8500 657.0000 1.0000
68.8600 634.0000 1.0000
68.8700 630.0000 1.0000
68.8800 657.0000 1.0000
68.8900 671.0000 1.0000
68.9000 652.0000 1.0000
68.9100 651.0000 1.0000
68.9200 650.0000 1.0000
68.9300 624.0000 1.0000
68.9400 618.0000 1.0000
68.9500 613.0000 1.0000
68.9600 661.0000 1.0000
68.9700 661.0000 1.0000
68.9800 630.0000 1.0000
68.9900 643.0000 1.0000
69.0000 630.0000 1.0000
69.0100 624.0000 1.0000
69.0200 609.0000 1.0000
69.0300 660.0000 1.0000
69.0400 639.0000 1.0000
69.0500 632.0000 1.0000
69.0600 631.0000 1.0000
69.0700 647.0000 1.0000
69.0800 655.0000 1.0000
69.0900 646.0000 1.0000
69.1000 623.0000 1.0000
69.1100 605.0000 1.0000
69.1200 660.0000 1.0000
69.1300 598.0000 1.0000
69.1400 633.0000 1.0000
69.1500 669.0000 1.0000
69.1600 621.0000 1.0000
69.1700 630.0000 1.0000
69.1800 630.0000 1.0000
69.1900 595.0000 1.0000
69.2000 622.0000 1.0000
69.2100 648.0000 1.0000
69.2200 637.0000 1.0000
69.2300 674.0000 1.0000
69.2400 654.0000 1.0000
69.2500 622.0000 1.0000
69.2600 642.0000 1.0000
69.2700 648.0000 1.0000
69.2800 625.0000 1.0000
69.2900 620.0000 1.0000
69.3000 640.0000 1.0000
69.3100 660.0000 1.0000
69.3200 659.0000 1.0000
69.3300 682.0000 1.0000
69.3400 646.0000 1.0000
69.3500 632.0000 1.0000
69.3600 640.0000 1.0000
69.3700 659.0000 1.0000
69.3800 612.0000 1.0000
69.3900 643.0000 1.0000
69.4000 652.0000 1.0000
69.4100 668.0000 1.0000
69.4200 651.0000 1.0000
69.4300 635.0000 1.0000
69.4400 628.0000 1.0000
69.4500 631.0000 1.0000
69.4600 623.0000 1.0000
69.4700 647.0000 1.0000
69.4800 659.0000 1.0000
69.4900 642.0000 1.0000
69.5000 667.0000 1.0000
69.5100 631.0000 1.0000
69.5200 586.0000 1.0000
69.5300 638.0000 1.0000
69.5400 671.0000 1.0000
69.5500 652.0000 1.0000
69.5600 681.0000 1.0000
69.5700 655.0000 1.0000
69.5800 680.0000 1.0000
69.5900 672.0000 1.0000
69.6000 596.0000 1.0000
69.6100 618.0000 1.0000
69.6200 652.0000 1.0000
69.6300 623.0000 1.0000
69.6400 628.0000 1.0000
69.6500 673.0000 1.0000
69.6600 630.0000 1.0000
69.6700 647.0000 1.0000
69.6800 657.0000 1.0000
69.6900 625.0000 1.0000
69.7000 636.0000 1.0000
69.7100 615.0000 1.0000
69.7200 627.0000 1.0000
69.7300 625.0000 1.0000
69.7400 670.0000 1.0000
69.7500 651.0000 1.0000
69.7600 628.0000 1.0000
69.7700 629.0000 1.0000
69.7800 643.0000 1.0000
69.7900 651.0000 1.0000
69.8000 649.0000 1.0000
69.8100 637.0000 1.0000
69.8200 624.0000 1.0000
69.8300 659.0000 1.0000
69.8400 656.0000 1.0000
69.8500 617.0000 1.0000
69.8600 650.0000 1.0000
69.8700 649.0000 1.0000
69.8800 636.0000 1.0000
69.8900 663.0000 1.0000
69.9000 629.0000 1.0000
69.9100 609.0000 1.0000
69.9200 632.0000 1.0000
69.9300 682.0000 1.0000
69.9400 648.0000 1.0000
69.9500 639.0000 1.0000
69.9600 653.0000 1.0000
69.9700 606.0000 1.0000
69.9800 622.0000 1.0000
69.9900 613.0000 1.0000
70.0000 592.0000 1.0000
*RAS_INT_END
*RAS_TEMPERATURE_START
*RAS_TEMPERATURE_END
*RAS_DATA_END
