Date	2021年06月15日火曜日 04時39分47秒
Spectrometers	USB2+H05879
ダーク	使用
リファレンス	使用
積分時間[msec]	10
平均回数	280
ｽﾑｰｼﾞﾝｸﾞ	10
Electrical Dark	USE
ピクセル数	2048
計測モード	吸光度
保存開始波長[nm]	190.664
保存終了波長[nm]	884.878
保存ﾋﾟｯﾁ波長[nm]	全波長

>>>>>>>>>> Data Start <<<<<<<<<<<<
190.664	0.000000
191.040	0.000000
191.415	0.000000
191.791	-2.444014
192.166	-0.634333
192.542	-0.911504
192.917	0.000000
193.293	-0.445121
193.668	-0.524006
194.044	-0.820158
194.419	0.000000
194.794	-1.380365
195.170	-1.305197
195.545	-1.223527
195.920	-1.087747
196.296	-0.957417
196.671	-0.781599
197.046	-0.631095
197.421	-0.572010
197.796	-0.569173
198.171	-0.540450
198.546	-0.500522
198.922	-0.453564
199.297	-0.425997
199.672	-0.403939
200.047	-0.374069
200.422	-0.346446
200.796	-0.333449
201.171	-0.317612
201.546	-0.313266
201.921	-0.306843
202.296	-0.291892
202.671	-0.269735
203.045	-0.245103
203.420	-0.236073
203.795	-0.224961
204.170	-0.223584
204.544	-0.224827
204.919	-0.225154
205.294	-0.233024
205.668	-0.214492
206.043	-0.204025
206.417	-0.204139
206.792	-0.193920
207.166	-0.192736
207.541	-0.182955
207.915	-0.188279
208.289	-0.184134
208.664	-0.180660
209.038	-0.182541
209.412	-0.161134
209.787	-0.143265
210.161	-0.135827
210.535	-0.133451
210.909	-0.123592
211.284	-0.115427
211.658	-0.120765
212.032	-0.121524
212.406	-0.128140
212.780	-0.128542
213.154	-0.127682
213.528	-0.131343
213.902	-0.126713
214.276	-0.115948
214.650	-0.117960
215.024	-0.108194
215.398	-0.110230
215.772	-0.105177
216.145	-0.095697
216.519	-0.092777
216.893	-0.082179
217.267	-0.089649
217.640	-0.089768
218.014	-0.076419
218.388	-0.066786
218.761	-0.070064
219.135	-0.063928
219.508	-0.062900
219.882	-0.067494
220.256	-0.066332
220.629	-0.056328
221.003	-0.049572
221.376	-0.052369
221.749	-0.058412
222.123	-0.059987
222.496	-0.054498
222.869	-0.051481
223.243	-0.049293
223.616	-0.039947
223.989	-0.046834
224.362	-0.040923
224.736	-0.038624
225.109	-0.037429
225.482	-0.040069
225.855	-0.041401
226.228	-0.050204
226.601	-0.051292
226.974	-0.048399
227.347	-0.038018
227.720	-0.034219
228.093	-0.030126
228.466	-0.037802
228.839	-0.034349
229.212	-0.029283
229.585	-0.032135
229.957	-0.036668
230.330	-0.037214
230.703	-0.035689
231.076	-0.034573
231.448	-0.043224
231.821	-0.046527
232.194	-0.052388
232.566	-0.057743
232.939	-0.053189
233.311	-0.055595
233.684	-0.054416
234.056	-0.049760
234.429	-0.050471
234.801	-0.058603
235.174	-0.057951
235.546	-0.062112
235.918	-0.066327
236.291	-0.071279
236.663	-0.074251
237.035	-0.075877
237.408	-0.065315
237.780	-0.053346
238.152	-0.057884
238.524	-0.067615
238.896	-0.065007
239.268	-0.056448
239.641	-0.055295
240.013	-0.041950
240.385	-0.037102
240.757	-0.033957
241.129	-0.029978
241.500	-0.033237
241.872	-0.031442
242.244	-0.029737
242.616	-0.022870
242.988	-0.027146
243.360	-0.017084
243.731	-0.010602
244.103	-0.003491
244.475	-0.004929
244.847	0.003062
245.218	0.009321
245.590	0.014472
245.961	0.017154
246.333	0.022663
246.705	0.016111
247.076	0.008341
247.448	0.015293
247.819	0.018499
248.190	0.026886
248.562	0.020707
248.933	0.020400
249.305	0.027092
249.676	0.026564
250.047	0.021394
250.418	0.020357
250.790	0.029739
251.161	0.028691
251.532	0.024186
251.903	0.022417
252.274	0.034113
252.645	0.037425
253.016	0.031016
253.387	0.018208
253.758	0.017494
254.129	0.021884
254.500	0.030245
254.871	0.032948
255.242	0.031478
255.613	0.014928
255.984	0.008188
256.355	0.009225
256.725	0.014245
257.096	0.009663
257.467	0.012122
257.838	0.019409
258.208	0.012746
258.579	0.006834
258.949	0.004235
259.320	0.010195
259.690	0.017459
260.061	0.016361
260.431	0.023414
260.802	0.026024
261.172	0.035748
261.543	0.036589
261.913	0.036702
262.283	0.034087
262.654	0.034817
263.024	0.028341
263.394	0.034192
263.764	0.039096
264.135	0.037411
264.505	0.028553
264.875	0.035786
265.245	0.035947
265.615	0.029414
265.985	0.033178
266.355	0.038094
266.725	0.035205
267.095	0.033035
267.465	0.030101
267.835	0.021601
268.205	0.008273
268.575	0.012086
268.944	0.009753
269.314	0.008549
269.684	0.009835
270.054	0.004580
270.423	0.008375
270.793	0.013125
271.163	0.017075
271.532	0.018445
271.902	0.027771
272.271	0.036714
272.641	0.030534
273.010	0.024417
273.380	0.021483
273.749	0.028126
274.119	0.035572
274.488	0.046633
274.857	0.050952
275.227	0.048750
275.596	0.052479
275.965	0.058671
276.335	0.055454
276.704	0.045876
277.073	0.046733
277.442	0.045530
277.811	0.053168
278.180	0.057474
278.549	0.058064
278.918	0.054584
279.287	0.051571
279.656	0.052914
280.025	0.055981
280.394	0.056249
280.763	0.061671
281.132	0.074233
281.501	0.072659
281.869	0.062124
282.238	0.062057
282.607	0.057312
282.976	0.059700
283.344	0.068816
283.713	0.065202
284.081	0.064714
284.450	0.076760
284.819	0.081738
285.187	0.087875
285.556	0.087819
285.924	0.083350
286.292	0.083542
286.661	0.089130
287.029	0.089899
287.398	0.087567
287.766	0.080375
288.134	0.078584
288.502	0.083649
288.871	0.086669
289.239	0.093227
289.607	0.093065
289.975	0.090139
290.343	0.095291
290.711	0.095884
291.079	0.092579
291.447	0.098054
291.815	0.102148
292.183	0.099372
292.551	0.095252
292.919	0.092132
293.287	0.093765
293.655	0.096733
294.022	0.095125
294.390	0.090892
294.758	0.090128
295.126	0.086829
295.493	0.094907
295.861	0.106755
296.229	0.102638
296.596	0.100610
296.964	0.100342
297.331	0.102741
297.699	0.104827
298.066	0.106893
298.434	0.109333
298.801	0.114449
299.168	0.112915
299.536	0.117468
299.903	0.116807
300.270	0.120781
300.638	0.127485
301.005	0.134168
301.372	0.137831
301.739	0.151128
302.106	0.158774
302.473	0.176529
302.840	0.191883
303.207	0.204481
303.574	0.216779
303.941	0.227183
304.308	0.239905
304.675	0.249617
305.042	0.270390
305.409	0.288674
305.776	0.301887
306.143	0.323534
306.509	0.339576
306.876	0.368981
307.243	0.383617
307.610	0.421484
307.976	0.449735
308.343	0.479033
308.709	0.509206
309.076	0.537982
309.442	0.567078
309.809	0.597641
310.175	0.628696
310.542	0.655331
310.908	0.682120
311.275	0.705160
311.641	0.740242
312.007	0.772022
312.373	0.804087
312.740	0.828809
313.106	0.858734
313.472	0.898390
313.838	0.928140
314.204	0.958170
314.570	0.973785
314.936	1.004129
315.302	1.023882
315.668	1.049912
316.034	1.081976
316.400	1.112218
316.766	1.135893
317.132	1.162628
317.498	1.189875
317.864	1.204140
318.230	1.221845
318.595	1.247391
318.961	1.270215
319.327	1.292655
319.692	1.310784
320.058	1.328924
320.424	1.348618
320.789	1.362610
321.155	1.380513
321.520	1.400470
321.886	1.423255
322.251	1.446930
322.616	1.462572
322.982	1.475167
323.347	1.490165
323.712	1.498204
324.078	1.506251
324.443	1.518862
324.808	1.526471
325.173	1.540989
325.539	1.550107
325.904	1.562000
326.269	1.569415
326.634	1.576570
326.999	1.585578
327.364	1.594645
327.729	1.603147
328.094	1.610085
328.459	1.620808
328.823	1.625146
329.188	1.637579
329.553	1.637747
329.918	1.649296
330.283	1.658731
330.647	1.668490
331.012	1.675577
331.377	1.681157
331.741	1.685735
332.106	1.691047
332.470	1.695194
332.835	1.699264
333.199	1.706663
333.564	1.715512
333.928	1.721092
334.293	1.729843
334.657	1.732475
335.021	1.734097
335.386	1.737996
335.750	1.741660
336.114	1.744209
336.478	1.749498
336.843	1.748205
337.207	1.754683
337.571	1.756209
337.935	1.758139
338.299	1.760029
338.663	1.758865
339.027	1.762239
339.391	1.765834
339.755	1.768541
340.119	1.768931
340.483	1.767124
340.846	1.771642
341.210	1.772012
341.574	1.773490
341.938	1.773725
342.301	1.778104
342.665	1.782161
343.029	1.783624
343.392	1.788139
343.756	1.789465
344.119	1.789181
344.483	1.793623
344.846	1.794895
345.210	1.796615
345.573	1.797611
345.937	1.798415
346.300	1.801119
346.663	1.803188
347.027	1.804980
347.390	1.806592
347.753	1.808568
348.116	1.812591
348.479	1.814946
348.843	1.815479
349.206	1.814688
349.569	1.814222
349.932	1.814067
350.295	1.815660
350.658	1.817456
351.021	1.819311
351.383	1.821900
351.746	1.821559
352.109	1.821364
352.472	1.822350
352.835	1.823103
353.197	1.826127
353.560	1.829024
353.923	1.828998
354.285	1.829623
354.648	1.830086
355.011	1.830050
355.373	1.833335
355.736	1.834457
356.098	1.832372
356.461	1.833094
356.823	1.834931
357.185	1.836762
357.548	1.837495
357.910	1.837205
358.272	1.836839
358.635	1.833147
358.997	1.832686
359.359	1.837529
359.721	1.837691
360.083	1.839632
360.445	1.841009
360.807	1.840956
361.169	1.839796
361.531	1.842646
361.893	1.843692
362.255	1.844942
362.617	1.846620
362.979	1.846524
363.341	1.844758
363.703	1.844332
364.064	1.846044
364.426	1.846682
364.788	1.846777
365.149	1.849020
365.511	1.850365
365.873	1.854035
366.234	1.857488
366.596	1.859941
366.957	1.860426
367.319	1.860245
367.680	1.858688
368.042	1.857294
368.403	1.857673
368.764	1.860117
369.126	1.858932
369.487	1.861008
369.848	1.863038
370.209	1.864369
370.570	1.866805
370.931	1.870172
371.293	1.871829
371.654	1.873709
372.015	1.877154
372.376	1.879943
372.737	1.880795
373.098	1.881711
373.458	1.880219
373.819	1.881980
374.180	1.883059
374.541	1.884766
374.902	1.886528
375.263	1.889058
375.623	1.890689
375.984	1.894642
376.345	1.893986
376.705	1.896972
377.066	1.896153
377.426	1.896638
377.787	1.898020
378.147	1.897148
378.508	1.897117
378.868	1.899777
379.228	1.898391
379.589	1.895732
379.949	1.896631
380.309	1.896947
380.670	1.896386
381.030	1.895519
381.390	1.898658
381.750	1.898915
382.110	1.897264
382.470	1.899224
382.830	1.900044
383.190	1.902036
383.550	1.900830
383.910	1.903768
384.270	1.905029
384.630	1.907100
384.990	1.908476
385.350	1.910639
385.709	1.913614
386.069	1.915032
386.429	1.915469
386.788	1.919630
387.148	1.923600
387.508	1.923843
387.867	1.925785
388.227	1.926676
388.586	1.929300
388.946	1.929120
389.305	1.930754
389.665	1.933211
390.024	1.934104
390.383	1.935381
390.743	1.934674
391.102	1.934715
391.461	1.934285
391.820	1.934785
392.179	1.934041
392.539	1.933163
392.898	1.934577
393.257	1.935687
393.616	1.938836
393.975	1.938746
394.334	1.939591
394.693	1.940439
395.051	1.942484
395.410	1.943234
395.769	1.945597
396.128	1.946652
396.487	1.945735
396.845	1.945235
397.204	1.944929
397.563	1.944589
397.921	1.944455
398.280	1.945779
398.638	1.944176
398.997	1.944047
399.355	1.941429
399.714	1.943787
400.072	1.942114
400.431	1.939129
400.789	1.936891
401.147	1.934767
401.506	1.933958
401.864	1.934034
402.222	1.931933
402.580	1.929022
402.938	1.928071
403.297	1.925942
403.655	1.924532
404.013	1.923567
404.371	1.923311
404.729	1.922032
405.087	1.921189
405.444	1.920840
405.802	1.918727
406.160	1.920468
406.518	1.920464
406.876	1.921420
407.233	1.918256
407.591	1.919460
407.949	1.920407
408.306	1.919707
408.664	1.918382
409.022	1.918622
409.379	1.916052
409.737	1.915150
410.094	1.914829
410.451	1.914031
410.809	1.913676
411.166	1.912734
411.523	1.913294
411.881	1.911120
412.238	1.909500
412.595	1.905783
412.952	1.904427
413.310	1.903100
413.667	1.902521
414.024	1.901999
414.381	1.900969
414.738	1.899457
415.095	1.898374
415.452	1.895160
415.809	1.894173
416.165	1.894144
416.522	1.892733
416.879	1.890066
417.236	1.888758
417.593	1.886821
417.949	1.883506
418.306	1.881833
418.663	1.883600
419.019	1.880465
419.376	1.879294
419.732	1.878458
420.089	1.879352
420.445	1.878234
420.802	1.877935
421.158	1.874727
421.514	1.872873
421.871	1.871600
422.227	1.869941
422.583	1.867722
422.939	1.864580
423.295	1.863107
423.652	1.861292
424.008	1.858322
424.364	1.856921
424.720	1.855532
425.076	1.854764
425.432	1.853647
425.788	1.852960
426.143	1.848764
426.499	1.846052
426.855	1.844514
427.211	1.842528
427.567	1.839863
427.922	1.838062
428.278	1.834009
428.634	1.833726
428.989	1.829775
429.345	1.826282
429.700	1.824008
430.056	1.822203
430.411	1.822223
430.767	1.819178
431.122	1.814814
431.478	1.812470
431.833	1.809712
432.188	1.806348
432.543	1.802346
432.899	1.798884
433.254	1.794467
433.609	1.791072
433.964	1.788782
434.319	1.785724
434.674	1.781196
435.029	1.777501
435.384	1.772723
435.739	1.769287
436.094	1.765341
436.449	1.762591
436.804	1.759186
437.158	1.755496
437.513	1.751857
437.868	1.747127
438.223	1.743236
438.577	1.739320
438.932	1.736620
439.287	1.732654
439.641	1.728540
439.996	1.724577
440.350	1.720045
440.704	1.716708
441.059	1.713509
441.413	1.708902
441.768	1.703956
442.122	1.700676
442.476	1.696014
442.830	1.691980
443.185	1.688553
443.539	1.683574
443.893	1.678558
444.247	1.674349
444.601	1.670874
444.955	1.665694
445.309	1.661502
445.663	1.656439
446.017	1.652068
446.371	1.646116
446.724	1.640898
447.078	1.636285
447.432	1.631723
447.786	1.627446
448.139	1.621534
448.493	1.615646
448.847	1.610705
449.200	1.605603
449.554	1.600300
449.907	1.595695
450.261	1.590324
450.614	1.584997
450.968	1.579550
451.321	1.574653
451.674	1.568851
452.027	1.562778
452.381	1.557443
452.734	1.551573
453.087	1.546292
453.440	1.540554
453.793	1.535822
454.146	1.530650
454.499	1.525193
454.852	1.519877
455.205	1.514005
455.558	1.508978
455.911	1.503756
456.264	1.497871
456.617	1.492988
456.970	1.488560
457.322	1.483762
457.675	1.479165
458.028	1.474617
458.380	1.470281
458.733	1.465811
459.086	1.461841
459.438	1.457137
459.791	1.452528
460.143	1.448011
460.496	1.443956
460.848	1.439721
461.200	1.434917
461.553	1.430303
461.905	1.426237
462.257	1.421341
462.609	1.416736
462.961	1.412886
463.314	1.408794
463.666	1.405092
464.018	1.400474
464.370	1.395784
464.722	1.391346
465.074	1.386625
465.426	1.382682
465.777	1.378918
466.129	1.375043
466.481	1.371084
466.833	1.367380
467.184	1.363644
467.536	1.359746
467.888	1.355581
468.239	1.351515
468.591	1.347057
468.943	1.342074
469.294	1.336812
469.646	1.332135
469.997	1.327283
470.348	1.322053
470.700	1.317513
471.051	1.313441
471.402	1.309335
471.754	1.305505
472.105	1.301674
472.456	1.298556
472.807	1.294700
473.158	1.291096
473.509	1.288077
473.860	1.284446
474.211	1.281078
474.562	1.278146
474.913	1.274701
475.264	1.271115
475.615	1.267688
475.966	1.264597
476.316	1.261497
476.667	1.258262
477.018	1.255085
477.368	1.252263
477.719	1.249061
478.070	1.245850
478.420	1.242713
478.771	1.239575
479.121	1.236318
479.472	1.233141
479.822	1.229773
480.172	1.226656
480.523	1.223249
480.873	1.219552
481.223	1.215573
481.573	1.211692
481.924	1.207533
482.274	1.203716
482.624	1.200498
482.974	1.197683
483.324	1.195137
483.674	1.192902
484.024	1.190904
484.374	1.188990
484.724	1.186985
485.073	1.185076
485.423	1.183033
485.773	1.180789
486.123	1.178831
486.472	1.176701
486.822	1.174585
487.172	1.172640
487.521	1.170491
487.871	1.168521
488.220	1.166242
488.570	1.163973
488.919	1.161110
489.268	1.157819
489.618	1.154225
489.967	1.149872
490.316	1.144942
490.666	1.139766
491.015	1.135167
491.364	1.130678
491.713	1.126493
492.062	1.122691
492.411	1.119233
492.760	1.115899
493.109	1.112559
493.458	1.109070
493.807	1.105946
494.156	1.102578
494.505	1.099065
494.853	1.095799
495.202	1.092341
495.551	1.088994
495.900	1.085662
496.248	1.082392
496.597	1.079214
496.945	1.076193
497.294	1.073159
497.642	1.070045
497.991	1.066901
498.339	1.063437
498.688	1.060262
499.036	1.057213
499.384	1.054232
499.732	1.051145
500.081	1.047944
500.429	1.044922
500.777	1.042004
501.125	1.038972
501.473	1.036143
501.821	1.033247
502.169	1.030351
502.517	1.027453
502.865	1.024679
503.213	1.021868
503.561	1.019078
503.908	1.016239
504.256	1.013302
504.604	1.010427
504.952	1.007519
505.299	1.004676
505.647	1.002028
505.994	0.999385
506.342	0.996555
506.689	0.993710
507.037	0.990787
507.384	0.988045
507.732	0.985285
508.079	0.982573
508.426	0.979799
508.774	0.977140
509.121	0.974655
509.468	0.972210
509.815	0.969778
510.162	0.967221
510.509	0.964596
510.856	0.962061
511.203	0.959699
511.550	0.957183
511.897	0.954704
512.244	0.952300
512.591	0.949875
512.938	0.947413
513.284	0.944902
513.631	0.942572
513.978	0.940118
514.324	0.937734
514.671	0.935356
515.018	0.932923
515.364	0.930445
515.711	0.928248
516.057	0.925764
516.403	0.923406
516.750	0.920958
517.096	0.918668
517.443	0.916450
517.789	0.914331
518.135	0.912114
518.481	0.909852
518.827	0.907682
519.173	0.905552
519.519	0.903335
519.865	0.901067
520.211	0.898880
520.557	0.896483
520.903	0.894152
521.249	0.891979
521.595	0.889816
521.941	0.887394
522.287	0.885128
522.632	0.882757
522.978	0.880221
523.324	0.877992
523.669	0.875616
524.015	0.873220
524.360	0.870719
524.706	0.868296
525.051	0.865925
525.397	0.863572
525.742	0.861138
526.087	0.858763
526.433	0.856476
526.778	0.854357
527.123	0.852297
527.468	0.849966
527.813	0.847872
528.158	0.845692
528.504	0.843266
528.849	0.840638
529.193	0.838368
529.538	0.836069
529.883	0.833548
530.228	0.831011
530.573	0.828448
530.918	0.825919
531.263	0.823408
531.607	0.820972
531.952	0.818577
532.296	0.816133
532.641	0.813718
532.986	0.811306
533.330	0.808893
533.675	0.806348
534.019	0.803687
534.363	0.801022
534.708	0.798419
535.052	0.795727
535.396	0.793056
535.741	0.790547
536.085	0.788010
536.429	0.785463
536.773	0.782645
537.117	0.780077
537.461	0.777171
537.805	0.774198
538.149	0.771101
538.493	0.768057
538.837	0.765062
539.181	0.761928
539.524	0.758750
539.868	0.755591
540.212	0.752393
540.556	0.749236
540.899	0.746190
541.243	0.743064
541.586	0.739911
541.930	0.736792
542.273	0.733724
542.617	0.730457
542.960	0.727128
543.304	0.723699
543.647	0.720140
543.990	0.716640
544.333	0.712976
544.677	0.709579
545.020	0.706168
545.363	0.702785
545.706	0.699274
546.049	0.695735
546.392	0.692323
546.735	0.688809
547.078	0.685240
547.421	0.681683
547.764	0.677996
548.106	0.674130
548.449	0.670180
548.792	0.666265
549.135	0.662325
549.477	0.658359
549.820	0.654492
550.162	0.650676
550.505	0.646841
550.847	0.642896
551.190	0.638764
551.532	0.634576
551.875	0.630160
552.217	0.625670
552.559	0.621176
552.901	0.616888
553.244	0.612630
553.586	0.608444
553.928	0.604451
554.270	0.600492
554.612	0.596550
554.954	0.592648
555.296	0.588583
555.638	0.584560
555.980	0.580273
556.322	0.575789
556.663	0.571084
557.005	0.566392
557.347	0.561711
557.689	0.557085
558.030	0.552616
558.372	0.548126
558.713	0.543670
559.055	0.539278
559.396	0.534891
559.738	0.530434
560.079	0.525877
560.421	0.521376
560.762	0.516888
561.103	0.512483
561.444	0.508167
561.786	0.503927
562.127	0.499709
562.468	0.495549
562.809	0.491181
563.150	0.486748
563.491	0.482180
563.832	0.477476
564.173	0.472617
564.514	0.467626
564.855	0.462590
565.195	0.457353
565.536	0.452256
565.877	0.447204
566.218	0.442284
566.558	0.437471
566.899	0.432827
567.239	0.428431
567.580	0.424345
567.920	0.420605
568.261	0.417117
568.601	0.413786
568.941	0.410587
569.282	0.407569
569.622	0.404583
569.962	0.401611
570.302	0.398657
570.643	0.395808
570.983	0.393062
571.323	0.390451
571.663	0.387934
572.003	0.385394
572.343	0.382870
572.683	0.380223
573.022	0.377461
573.362	0.374570
573.702	0.371651
574.042	0.368791
574.381	0.365978
574.721	0.363254
575.061	0.360613
575.400	0.358121
575.740	0.355694
576.079	0.353323
576.419	0.350823
576.758	0.348232
577.097	0.345555
577.437	0.342760
577.776	0.339929
578.115	0.337155
578.454	0.334524
578.794	0.332128
579.133	0.330007
579.472	0.328041
579.811	0.326211
580.150	0.324418
580.489	0.322602
580.828	0.320646
581.167	0.318605
581.505	0.316549
581.844	0.314482
582.183	0.312428
582.522	0.310419
582.860	0.308476
583.199	0.306605
583.538	0.304830
583.876	0.303092
584.215	0.301367
584.553	0.299646
584.891	0.297948
585.230	0.296202
585.568	0.294373
585.906	0.292467
586.245	0.290566
586.583	0.288752
586.921	0.287101
587.259	0.285590
587.597	0.284143
587.935	0.282669
588.273	0.281098
588.611	0.279356
588.949	0.277481
589.287	0.275511
589.625	0.273530
589.963	0.271632
590.300	0.269810
590.638	0.268129
590.976	0.266468
591.313	0.264794
591.651	0.263126
591.989	0.261465
592.326	0.259884
592.664	0.258434
593.001	0.257035
593.338	0.255750
593.676	0.254593
594.013	0.253385
594.350	0.252219
594.687	0.251079
595.025	0.250030
595.362	0.248940
595.699	0.247826
596.036	0.246705
596.373	0.245598
596.710	0.244420
597.047	0.243210
597.384	0.242013
597.720	0.240761
598.057	0.239557
598.394	0.238337
598.731	0.237127
599.067	0.235919
599.404	0.234725
599.741	0.233561
600.077	0.232444
600.414	0.231393
600.750	0.230431
601.087	0.229554
601.423	0.228663
601.759	0.227748
602.096	0.226806
602.432	0.225895
602.768	0.224973
603.104	0.224025
603.440	0.223050
603.776	0.222194
604.112	0.221304
604.448	0.220459
604.784	0.219654
605.120	0.218830
605.456	0.218049
605.792	0.217263
606.128	0.216489
606.463	0.215722
606.799	0.214901
607.135	0.214105
607.470	0.213307
607.806	0.212447
608.142	0.211628
608.477	0.210839
608.812	0.210055
609.148	0.209298
609.483	0.208547
609.819	0.207797
610.154	0.207017
610.489	0.206250
610.824	0.205445
611.159	0.204685
611.494	0.203882
611.830	0.203146
612.165	0.202534
612.500	0.201933
612.834	0.201365
613.169	0.200773
613.504	0.200143
613.839	0.199486
614.174	0.198819
614.509	0.198159
614.843	0.197513
615.178	0.196886
615.512	0.196266
615.847	0.195677
616.182	0.195137
616.516	0.194605
616.850	0.194053
617.185	0.193520
617.519	0.192977
617.853	0.192418
618.188	0.191805
618.522	0.191142
618.856	0.190426
619.190	0.189642
619.524	0.188872
619.858	0.188163
620.192	0.187479
620.526	0.186842
620.860	0.186332
621.194	0.185748
621.528	0.185159
621.862	0.184631
622.195	0.184117
622.529	0.183527
622.863	0.182956
623.196	0.182374
623.530	0.181837
623.864	0.181279
624.197	0.180805
624.530	0.180289
624.864	0.179806
625.197	0.179349
625.531	0.178921
625.864	0.178461
626.197	0.177949
626.530	0.177506
626.863	0.176983
627.196	0.176417
627.529	0.175863
627.862	0.175227
628.195	0.174667
628.528	0.174107
628.861	0.173504
629.194	0.172897
629.527	0.172414
629.860	0.171936
630.192	0.171361
630.525	0.170755
630.858	0.170201
631.190	0.169587
631.523	0.168977
631.855	0.168239
632.188	0.167543
632.520	0.166901
632.852	0.166307
633.185	0.165751
633.517	0.165162
633.849	0.164586
634.182	0.164151
634.514	0.163732
634.846	0.163350
635.178	0.162996
635.510	0.162577
635.842	0.162177
636.174	0.161820
636.506	0.161377
636.837	0.160973
637.169	0.160561
637.501	0.160176
637.833	0.159838
638.164	0.159478
638.496	0.159149
638.828	0.158759
639.159	0.158364
639.491	0.157898
639.822	0.157366
640.154	0.156752
640.485	0.156181
640.816	0.155602
641.147	0.155025
641.479	0.154352
641.810	0.153695
642.141	0.153090
642.472	0.152515
642.803	0.151948
643.134	0.151311
643.465	0.150775
643.796	0.150242
644.127	0.149705
644.458	0.149203
644.789	0.148775
645.119	0.148439
645.450	0.148182
645.781	0.148201
646.111	0.148274
646.442	0.148260
646.773	0.148177
647.103	0.148132
647.433	0.147897
647.764	0.147764
648.094	0.147515
648.425	0.147368
648.755	0.147229
649.085	0.146987
649.415	0.146848
649.745	0.146819
650.075	0.146751
650.405	0.146583
650.735	0.145037
651.065	0.136138
651.395	0.127765
651.725	0.114581
652.055	0.078295
652.385	0.058024
652.715	0.045053
653.044	0.036050
653.374	0.029466
653.704	0.024460
654.033	0.034215
654.363	0.040635
654.692	0.044368
655.022	0.046578
655.351	0.047919
655.680	0.048707
656.010	0.049128
656.339	0.049307
656.668	0.049337
656.997	0.049292
657.326	0.049198
657.655	0.049070
657.984	0.048349
658.313	0.044825
658.642	0.040299
658.971	0.046565
659.300	0.054586
659.629	0.065237
659.958	0.080048
660.286	0.102091
660.615	0.138413
660.944	0.140450
661.272	0.138735
661.601	0.137570
661.929	0.136892
662.258	0.136667
662.586	0.136549
662.915	0.136363
663.243	0.135946
663.571	0.135383
663.899	0.134943
664.228	0.134455
664.556	0.134065
664.884	0.133762
665.212	0.133618
665.540	0.133266
665.868	0.133103
666.196	0.132924
666.524	0.132685
666.852	0.132541
667.179	0.132294
667.507	0.132014
667.835	0.131815
668.162	0.131560
668.490	0.131244
668.818	0.131177
669.145	0.131133
669.473	0.131068
669.800	0.131044
670.127	0.131109
670.455	0.131142
670.782	0.131161
671.109	0.131101
671.436	0.131137
671.764	0.131133
672.091	0.130998
672.418	0.131053
672.745	0.130884
673.072	0.130780
673.399	0.130730
673.726	0.130561
674.053	0.130362
674.379	0.130246
674.706	0.130070
675.033	0.129828
675.359	0.129633
675.686	0.129353
676.013	0.129066
676.339	0.128776
676.666	0.128468
676.992	0.128178
677.318	0.127967
677.645	0.127677
677.971	0.127478
678.297	0.127280
678.624	0.127090
678.950	0.126869
679.276	0.126701
679.602	0.126479
679.928	0.126238
680.254	0.125947
680.580	0.125686
680.906	0.125503
681.232	0.125302
681.558	0.125263
681.883	0.125227
682.209	0.125197
682.535	0.125066
682.860	0.124960
683.186	0.124944
683.511	0.124726
683.837	0.124482
684.162	0.124329
684.488	0.124132
684.813	0.123989
685.138	0.123771
685.464	0.123577
685.789	0.123347
686.114	0.123072
686.439	0.122879
686.764	0.122718
687.089	0.122555
687.414	0.122514
687.739	0.122378
688.064	0.122233
688.389	0.121984
688.714	0.121775
689.039	0.121422
689.363	0.121188
689.688	0.120884
690.013	0.120482
690.337	0.120239
690.662	0.120057
690.986	0.119808
691.311	0.119679
691.635	0.119467
691.959	0.119296
692.284	0.118930
692.608	0.118692
692.932	0.118473
693.256	0.118373
693.580	0.118260
693.904	0.118090
694.228	0.117908
694.552	0.117826
694.876	0.117752
695.200	0.117570
695.524	0.117305
695.848	0.117158
696.172	0.116852
696.495	0.116480
696.819	0.116225
697.143	0.115860
697.466	0.115568
697.790	0.115148
698.113	0.114785
698.437	0.114392
698.760	0.113997
699.083	0.113872
699.407	0.113729
699.730	0.113517
700.053	0.113308
700.376	0.113037
700.699	0.112697
701.022	0.112299
701.345	0.111672
701.668	0.110959
701.991	0.110344
702.314	0.109588
702.637	0.108764
702.960	0.108027
703.283	0.107448
703.605	0.106844
703.928	0.106459
704.251	0.106139
704.573	0.106002
704.896	0.105816
705.218	0.105587
705.540	0.105383
705.863	0.105033
706.185	0.104516
706.507	0.103976
706.830	0.103399
707.152	0.102750
707.474	0.102274
707.796	0.101680
708.118	0.101264
708.440	0.100896
708.762	0.100569
709.084	0.100343
709.406	0.100128
709.728	0.099937
710.049	0.099641
710.371	0.099357
710.693	0.099000
711.014	0.098515
711.336	0.098045
711.658	0.097576
711.979	0.097292
712.301	0.096960
712.622	0.096667
712.943	0.096463
713.265	0.096285
713.586	0.096065
713.907	0.095961
714.228	0.095815
714.549	0.095747
714.870	0.095582
715.191	0.095447
715.512	0.095293
715.833	0.095149
716.154	0.094946
716.475	0.094741
716.796	0.094565
717.117	0.094227
717.437	0.093892
717.758	0.093478
718.078	0.092974
718.399	0.092555
718.719	0.092071
719.040	0.091642
719.360	0.091261
719.681	0.090837
720.001	0.090544
720.321	0.090293
720.642	0.090014
720.962	0.089615
721.282	0.089367
721.602	0.089225
721.922	0.088978
722.242	0.088671
722.562	0.088335
722.882	0.088163
723.202	0.087927
723.521	0.087755
723.841	0.087573
724.161	0.087352
724.481	0.087272
724.800	0.087148
725.120	0.086996
725.439	0.086803
725.759	0.086580
726.078	0.086363
726.398	0.086249
726.717	0.086119
727.036	0.085973
727.355	0.085939
727.675	0.086013
727.994	0.086012
728.313	0.085977
728.632	0.085951
728.951	0.085952
729.270	0.085875
729.589	0.085629
729.908	0.085412
730.226	0.085057
730.545	0.084789
730.864	0.084480
731.182	0.084189
731.501	0.083977
731.820	0.083830
732.138	0.083700
732.457	0.083462
732.775	0.083302
733.093	0.083122
733.412	0.083005
733.730	0.082867
734.048	0.082645
734.367	0.082273
734.685	0.081906
735.003	0.081483
735.321	0.081140
735.639	0.080739
735.957	0.080432
736.275	0.080224
736.593	0.080002
736.910	0.079853
737.228	0.079743
737.546	0.079639
737.863	0.079461
738.181	0.079225
738.499	0.078891
738.816	0.078550
739.134	0.078270
739.451	0.078011
739.768	0.077719
740.086	0.077333
740.403	0.076955
740.720	0.076609
741.038	0.076332
741.355	0.075985
741.672	0.075653
741.989	0.075222
742.306	0.074789
742.623	0.074340
742.940	0.073729
743.257	0.073075
743.573	0.072515
743.890	0.071895
744.207	0.071303
744.523	0.070811
744.840	0.070357
745.157	0.069939
745.473	0.069567
745.790	0.069248
746.106	0.068873
746.422	0.068545
746.739	0.068241
747.055	0.068000
747.371	0.067762
747.687	0.067655
748.004	0.067639
748.320	0.067605
748.636	0.067498
748.952	0.067499
749.268	0.067492
749.584	0.067560
749.899	0.067630
750.215	0.067636
750.531	0.067531
750.847	0.067525
751.162	0.067532
751.478	0.067558
751.793	0.067467
752.109	0.067353
752.424	0.067291
752.740	0.067223
753.055	0.067191
753.370	0.067152
753.686	0.067243
754.001	0.067444
754.316	0.067639
754.631	0.067762
754.946	0.067813
755.261	0.067919
755.576	0.067976
755.891	0.067925
756.206	0.067772
756.521	0.067646
756.836	0.067556
757.150	0.067544
757.465	0.067589
757.780	0.067552
758.094	0.067578
758.409	0.067641
758.723	0.067728
759.038	0.067730
759.352	0.067720
759.667	0.067654
759.981	0.067529
760.295	0.067267
760.609	0.066967
760.923	0.066707
761.238	0.066332
761.552	0.066114
761.866	0.065857
762.180	0.065697
762.493	0.065697
762.807	0.065693
763.121	0.065647
763.435	0.065530
763.749	0.065356
764.062	0.065097
764.376	0.064865
764.689	0.064546
765.003	0.064279
765.316	0.064065
765.630	0.064045
765.943	0.063900
766.257	0.063834
766.570	0.063738
766.883	0.063621
767.196	0.063441
767.509	0.063121
767.822	0.062910
768.135	0.062632
768.448	0.062394
768.761	0.062080
769.074	0.061729
769.387	0.061403
769.700	0.061142
770.013	0.060939
770.325	0.060799
770.638	0.060682
770.950	0.060558
771.263	0.060457
771.575	0.060226
771.888	0.059920
772.200	0.059537
772.513	0.059195
772.825	0.058818
773.137	0.058517
773.449	0.058275
773.761	0.057956
774.074	0.057717
774.386	0.057568
774.698	0.057370
775.010	0.057042
775.321	0.056738
775.633	0.056377
775.945	0.056212
776.257	0.056062
776.568	0.055878
776.880	0.055731
777.192	0.055554
777.503	0.055369
777.815	0.055259
778.126	0.055382
778.438	0.055551
778.749	0.055771
779.060	0.055918
779.372	0.056039
779.683	0.056125
779.994	0.056230
780.305	0.056327
780.616	0.056471
780.927	0.056536
781.238	0.056488
781.549	0.056660
781.860	0.056753
782.171	0.056891
782.481	0.056982
782.792	0.057039
783.103	0.057123
783.413	0.057184
783.724	0.057095
784.034	0.057166
784.345	0.057053
784.655	0.056900
784.966	0.056659
785.276	0.056525
785.586	0.056427
785.896	0.056366
786.207	0.056384
786.517	0.056398
786.827	0.056456
787.137	0.056396
787.447	0.056345
787.757	0.056502
788.066	0.056528
788.376	0.056573
788.686	0.056543
788.996	0.056478
789.305	0.056413
789.615	0.056416
789.925	0.056361
790.234	0.056500
790.544	0.056593
790.853	0.056795
791.162	0.056932
791.472	0.057236
791.781	0.057385
792.090	0.057563
792.399	0.057581
792.708	0.057484
793.017	0.057385
793.326	0.057215
793.635	0.057156
793.944	0.057047
794.253	0.056796
794.562	0.056568
794.871	0.056473
795.179	0.056284
795.488	0.056222
795.797	0.056158
796.105	0.056048
796.414	0.055991
796.722	0.055903
797.031	0.055749
797.339	0.055568
797.647	0.055348
797.956	0.054915
798.264	0.054415
798.572	0.053996
798.880	0.053793
799.188	0.053458
799.496	0.053165
799.804	0.053076
800.112	0.052905
800.420	0.052874
800.728	0.052935
801.035	0.052764
801.343	0.052452
801.651	0.052162
801.958	0.051943
802.266	0.051796
802.573	0.051831
802.881	0.052012
803.188	0.052006
803.496	0.052155
803.803	0.052421
804.110	0.052595
804.417	0.052735
804.724	0.052637
805.032	0.052670
805.339	0.052629
805.646	0.052656
805.953	0.052555
806.259	0.052467
806.566	0.052363
806.873	0.052327
807.180	0.052222
807.486	0.052334
807.793	0.052460
808.100	0.052688
808.406	0.052826
808.713	0.052871
809.019	0.052552
809.326	0.052245
809.632	0.052068
809.938	0.051560
810.244	0.051048
810.551	0.050648
810.857	0.050295
811.163	0.050224
811.469	0.050067
811.775	0.049741
812.081	0.049614
812.387	0.049738
812.692	0.049660
812.998	0.049900
813.304	0.049780
813.610	0.049914
813.915	0.049997
814.221	0.049855
814.526	0.049894
814.832	0.049845
815.137	0.049909
815.443	0.049954
815.748	0.049872
816.053	0.049857
816.358	0.049805
816.664	0.049766
816.969	0.049763
817.274	0.049853
817.579	0.049717
817.884	0.049487
818.189	0.049615
818.493	0.049786
818.798	0.049689
819.103	0.049655
819.408	0.049168
819.712	0.048999
820.017	0.048667
820.321	0.048478
820.626	0.048555
820.930	0.048279
821.235	0.048042
821.539	0.047583
821.843	0.047630
822.148	0.047589
822.452	0.047656
822.756	0.047838
823.060	0.047842
823.364	0.047984
823.668	0.048056
823.972	0.048147
824.276	0.048332
824.580	0.048318
824.883	0.048422
825.187	0.048419
825.491	0.048577
825.795	0.048688
826.098	0.048837
826.402	0.048957
826.705	0.048997
827.008	0.048778
827.312	0.048703
827.615	0.048511
827.918	0.048568
828.222	0.048254
828.525	0.048036
828.828	0.048068
829.131	0.048065
829.434	0.047813
829.737	0.047319
830.040	0.046658
830.343	0.046085
830.645	0.045778
830.948	0.045417
831.251	0.044906
831.553	0.044442
831.856	0.044051
832.159	0.044224
832.461	0.044157
832.764	0.043793
833.066	0.043347
833.368	0.043284
833.671	0.043002
833.973	0.043025
834.275	0.042862
834.577	0.042801
834.879	0.042730
835.181	0.041888
835.483	0.041284
835.785	0.041027
836.087	0.040821
836.389	0.040847
836.690	0.040725
836.992	0.040060
837.294	0.039378
837.595	0.038661
837.897	0.037970
838.198	0.037061
838.500	0.036196
838.801	0.035194
839.103	0.034838
839.404	0.034311
839.705	0.033648
840.006	0.033324
840.307	0.033026
840.608	0.032657
840.910	0.032820
841.210	0.033017
841.511	0.033308
841.812	0.033376
842.113	0.033340
842.414	0.032581
842.715	0.032165
843.015	0.031270
843.316	0.030891
843.616	0.030573
843.917	0.030093
844.217	0.030064
844.518	0.030028
844.818	0.029570
845.118	0.029703
845.419	0.029869
845.719	0.029809
846.019	0.029587
846.319	0.029882
846.619	0.029737
846.919	0.030116
847.219	0.030044
847.519	0.029379
847.819	0.029824
848.118	0.029300
848.418	0.028947
848.718	0.028901
849.017	0.028269
849.317	0.028536
849.616	0.028503
849.916	0.028879
850.215	0.029343
850.515	0.029791
850.814	0.030068
851.113	0.030387
851.412	0.030692
851.712	0.030617
852.011	0.030523
852.310	0.030965
852.609	0.031009
852.908	0.031193
853.206	0.031360
853.505	0.031521
853.804	0.031514
854.103	0.031529
854.401	0.031868
854.700	0.031908
854.999	0.031885
855.297	0.032027
855.595	0.032096
855.894	0.032173
856.192	0.032189
856.491	0.032165
856.789	0.031810
857.087	0.031426
857.385	0.031031
857.683	0.030428
857.981	0.030049
858.279	0.030142
858.577	0.029245
858.875	0.028822
859.173	0.028224
859.471	0.027815
859.768	0.027591
860.066	0.027296
860.363	0.026447
860.661	0.025475
860.959	0.025526
861.256	0.025524
861.553	0.025411
861.851	0.024890
862.148	0.024303
862.445	0.023576
862.742	0.022810
863.039	0.022704
863.337	0.022607
863.634	0.021935
863.931	0.021343
864.227	0.021190
864.524	0.020535
864.821	0.020758
865.118	0.020170
865.415	0.019780
865.711	0.019117
866.008	0.018171
866.304	0.018055
866.601	0.017825
866.897	0.017330
867.194	0.016943
867.490	0.016976
867.786	0.016766
868.082	0.017039
868.379	0.016319
868.675	0.016492
868.971	0.016217
869.267	0.016302
869.563	0.016717
869.859	0.017041
870.154	0.017223
870.450	0.016631
870.746	0.016538
871.042	0.016297
871.337	0.016223
871.633	0.016203
871.928	0.016236
872.224	0.015559
872.519	0.014909
872.815	0.014646
873.110	0.015174
873.405	0.014726
873.700	0.014429
873.995	0.014167
874.291	0.013588
874.586	0.014562
874.881	0.013964
875.175	0.014217
875.470	0.013611
875.765	0.012377
876.060	0.012467
876.355	0.012441
876.649	0.012494
876.944	0.012329
877.238	0.011979
877.533	0.012400
877.827	0.012386
878.122	0.012264
878.416	0.013149
878.710	0.013863
879.005	0.013953
879.299	0.013643
879.593	0.013902
879.887	0.013366
880.181	0.012708
880.475	0.012861
880.769	0.012388
881.063	0.013034
881.356	0.013049
881.650	0.013073
881.944	0.013072
882.238	0.007854
882.531	0.024912
882.825	-0.002857
883.118	-0.004067
883.412	0.012319
883.705	0.005928
883.998	0.024111
884.291	0.016959
884.585	0.011608
884.878	0.001486
>>>>>>>>>> END of Data <<<<<<<<<<
>>>>>>>>>> Raw Data Start <<<<<<<<
190.664	-402
191.040	3
191.415	3
191.791	5
192.166	9
192.542	10
192.917	4
193.293	8
193.668	7
194.044	5
194.419	-10
194.794	9
195.170	10
195.545	10
195.920	10
196.296	10
196.671	10
197.046	11
197.421	11
197.796	12
198.171	13
198.546	13
198.922	13
199.297	14
199.672	14
200.047	14
200.422	14
200.796	14
201.171	15
201.546	15
201.921	15
202.296	15
202.671	15
203.045	15
203.420	16
203.795	16
204.170	16
204.544	16
204.919	16
205.294	16
205.668	16
206.043	16
206.417	16
206.792	15
207.166	15
207.541	15
207.915	15
208.289	15
208.664	15
209.038	15
209.412	15
209.787	15
210.161	15
210.535	15
210.909	15
211.284	15
211.658	15
212.032	14
212.406	14
212.780	14
213.154	14
213.528	14
213.902	14
214.276	14
214.650	14
215.024	14
215.398	14
215.772	14
216.145	14
216.519	14
216.893	14
217.267	14
217.640	14
218.014	14
218.388	14
218.761	14
219.135	14
219.508	14
219.882	15
220.256	15
220.629	15
221.003	14
221.376	14
221.749	15
222.123	15
222.496	14
222.869	14
223.243	14
223.616	14
223.989	14
224.362	15
224.736	14
225.109	15
225.482	15
225.855	15
226.228	15
226.601	15
226.974	15
227.347	14
227.720	14
228.093	14
228.466	14
228.839	14
229.212	14
229.585	13
229.957	14
230.330	14
230.703	14
231.076	14
231.448	14
231.821	14
232.194	14
232.566	14
232.939	14
233.311	14
233.684	14
234.056	14
234.429	14
234.801	14
235.174	14
235.546	15
235.918	15
236.291	15
236.663	16
237.035	16
237.408	16
237.780	16
238.152	16
238.524	17
238.896	17
239.268	16
239.641	17
240.013	16
240.385	16
240.757	16
241.129	16
241.500	16
241.872	16
242.244	16
242.616	16
242.988	16
243.360	16
243.731	16
244.103	16
244.475	16
244.847	16
245.218	15
245.590	15
245.961	15
246.333	15
246.705	15
247.076	16
247.448	16
247.819	16
248.190	16
248.562	16
248.933	16
249.305	16
249.676	16
250.047	16
250.418	16
250.790	16
251.161	16
251.532	16
251.903	16
252.274	16
252.645	16
253.016	16
253.387	16
253.758	16
254.129	16
254.500	16
254.871	16
255.242	16
255.613	17
255.984	17
256.355	17
256.725	16
257.096	17
257.467	16
257.838	16
258.208	17
258.579	17
258.949	17
259.320	17
259.690	17
260.061	17
260.431	17
260.802	17
261.172	17
261.543	17
261.913	17
262.283	17
262.654	17
263.024	17
263.394	17
263.764	17
264.135	17
264.505	18
264.875	17
265.245	17
265.615	17
265.985	17
266.355	17
266.725	17
267.095	18
267.465	18
267.835	18
268.205	18
268.575	18
268.944	18
269.314	18
269.684	18
270.054	18
270.423	18
270.793	18
271.163	17
271.532	17
271.902	17
272.271	17
272.641	17
273.010	17
273.380	17
273.749	17
274.119	17
274.488	17
274.857	17
275.227	17
275.596	17
275.965	17
276.335	17
276.704	18
277.073	18
277.442	18
277.811	18
278.180	18
278.549	18
278.918	18
279.287	18
279.656	18
280.025	18
280.394	18
280.763	18
281.132	18
281.501	18
281.869	18
282.238	18
282.607	18
282.976	18
283.344	17
283.713	17
284.081	17
284.450	17
284.819	17
285.187	17
285.556	17
285.924	17
286.292	17
286.661	17
287.029	16
287.398	17
287.766	17
288.134	17
288.502	17
288.871	17
289.239	17
289.607	17
289.975	17
290.343	17
290.711	17
291.079	17
291.447	17
291.815	17
292.183	17
292.551	17
292.919	17
293.287	18
293.655	17
294.022	18
294.390	18
294.758	18
295.126	18
295.493	18
295.861	17
296.229	17
296.596	17
296.964	17
297.331	17
297.699	18
298.066	18
298.434	18
298.801	18
299.168	18
299.536	17
299.903	18
300.270	17
300.638	18
301.005	18
301.372	18
301.739	18
302.106	18
302.473	18
302.840	18
303.207	18
303.574	18
303.941	18
304.308	18
304.675	18
305.042	18
305.409	18
305.776	18
306.143	18
306.509	18
306.876	18
307.243	19
307.610	18
307.976	18
308.343	18
308.709	18
309.076	18
309.442	18
309.809	18
310.175	18
310.542	18
310.908	18
311.275	19
311.641	18
312.007	18
312.373	18
312.740	19
313.106	19
313.472	18
313.838	18
314.204	18
314.570	19
314.936	19
315.302	19
315.668	19
316.034	19
316.400	19
316.766	19
317.132	19
317.498	19
317.864	19
318.230	19
318.595	19
318.961	19
319.327	19
319.692	19
320.058	19
320.424	20
320.789	20
321.155	20
321.520	20
321.886	20
322.251	20
322.616	20
322.982	21
323.347	21
323.712	22
324.078	22
324.443	23
324.808	23
325.173	24
325.539	24
325.904	24
326.269	25
326.634	26
326.999	26
327.364	26
327.729	27
328.094	27
328.459	28
328.823	28
329.188	28
329.553	29
329.918	29
330.283	29
330.647	29
331.012	30
331.377	30
331.741	31
332.106	31
332.470	31
332.835	32
333.199	32
333.564	32
333.928	33
334.293	33
334.657	33
335.021	34
335.386	34
335.750	35
336.114	35
336.478	36
336.843	37
337.207	37
337.571	37
337.935	38
338.299	39
338.663	39
339.027	40
339.391	40
339.755	41
340.119	41
340.483	42
340.846	42
341.210	43
341.574	44
341.938	44
342.301	44
342.665	45
343.029	45
343.392	45
343.756	46
344.119	47
344.483	47
344.846	47
345.210	48
345.573	48
345.937	49
346.300	49
346.663	49
347.027	49
347.390	50
347.753	50
348.116	50
348.479	50
348.843	51
349.206	51
349.569	52
349.932	53
350.295	53
350.658	53
351.021	53
351.383	53
351.746	54
352.109	54
352.472	55
352.835	55
353.197	55
353.560	55
353.923	55
354.285	56
354.648	56
355.011	56
355.373	56
355.736	56
356.098	57
356.461	57
356.823	57
357.185	58
357.548	58
357.910	58
358.272	59
358.635	59
358.997	60
359.359	59
359.721	60
360.083	60
360.445	60
360.807	60
361.169	61
361.531	61
361.893	61
362.255	61
362.617	61
362.979	61
363.341	62
363.703	62
364.064	62
364.426	63
364.788	63
365.149	63
365.511	63
365.873	63
366.234	63
366.596	62
366.957	63
367.319	63
367.680	63
368.042	64
368.403	64
368.764	64
369.126	64
369.487	64
369.848	64
370.209	63
370.570	63
370.931	63
371.293	63
371.654	63
372.015	62
372.376	62
372.737	62
373.098	62
373.458	62
373.819	62
374.180	62
374.541	62
374.902	62
375.263	62
375.623	62
375.984	62
376.345	62
376.705	62
377.066	62
377.426	63
377.787	63
378.147	63
378.508	63
378.868	63
379.228	63
379.589	64
379.949	64
380.309	64
380.670	65
381.030	65
381.390	65
381.750	65
382.110	65
382.470	65
382.830	65
383.190	65
383.550	65
383.910	65
384.270	65
384.630	65
384.990	65
385.350	65
385.709	65
386.069	65
386.429	65
386.788	64
387.148	64
387.508	64
387.867	64
388.227	64
388.586	64
388.946	64
389.305	64
389.665	64
390.024	65
390.383	65
390.743	65
391.102	66
391.461	66
391.820	66
392.179	66
392.539	66
392.898	66
393.257	66
393.616	66
393.975	67
394.334	67
394.693	67
395.051	67
395.410	68
395.769	68
396.128	68
396.487	68
396.845	68
397.204	68
397.563	69
397.921	69
398.280	68
398.638	69
398.997	69
399.355	69
399.714	69
400.072	69
400.431	70
400.789	70
401.147	71
401.506	71
401.864	71
402.222	71
402.580	72
402.938	72
403.297	72
403.655	72
404.013	72
404.371	72
404.729	72
405.087	72
405.444	72
405.802	72
406.160	72
406.518	72
406.876	72
407.233	73
407.591	72
407.949	72
408.306	72
408.664	72
409.022	72
409.379	73
409.737	73
410.094	73
410.451	73
410.809	73
411.166	74
411.523	74
411.881	74
412.238	74
412.595	75
412.952	75
413.310	76
413.667	76
414.024	76
414.381	76
414.738	76
415.095	76
415.452	77
415.809	77
416.165	77
416.522	78
416.879	78
417.236	79
417.593	79
417.949	81
418.306	81
418.663	82
419.019	83
419.376	84
419.732	85
420.089	85
420.445	86
420.802	87
421.158	88
421.514	88
421.871	89
422.227	90
422.583	90
422.939	91
423.295	92
423.652	92
424.008	93
424.364	93
424.720	94
425.076	94
425.432	94
425.788	94
426.143	95
426.499	95
426.855	96
427.211	96
427.567	97
427.922	98
428.278	98
428.634	98
428.989	99
429.345	100
429.700	101
430.056	101
430.411	101
430.767	102
431.122	104
431.478	104
431.833	105
432.188	106
432.543	107
432.899	108
433.254	109
433.609	109
433.964	109
434.319	109
434.674	110
435.029	111
435.384	112
435.739	113
436.094	114
436.449	115
436.804	116
437.158	118
437.513	119
437.868	122
438.223	123
438.577	125
438.932	127
439.287	130
439.641	132
439.996	134
440.350	137
440.704	139
441.059	141
441.413	144
441.768	146
442.122	148
442.476	151
442.830	153
443.185	155
443.539	158
443.893	160
444.247	162
444.601	164
444.955	166
445.309	167
445.663	169
446.017	170
446.371	172
446.724	173
447.078	174
447.432	175
447.786	176
448.139	177
448.493	178
448.847	179
449.200	180
449.554	180
449.907	181
450.261	182
450.614	183
450.968	184
451.321	185
451.674	186
452.027	187
452.381	188
452.734	190
453.087	191
453.440	193
453.793	194
454.146	196
454.499	198
454.852	201
455.205	204
455.558	207
455.911	210
456.264	213
456.617	216
456.970	219
457.322	221
457.675	224
458.028	226
458.380	228
458.733	230
459.086	232
459.438	235
459.791	238
460.143	241
460.496	244
460.848	248
461.200	252
461.553	256
461.905	260
462.257	264
462.609	267
462.961	270
463.314	273
463.666	276
464.018	279
464.370	282
464.722	285
465.074	289
465.426	291
465.777	294
466.129	296
466.481	299
466.833	300
467.184	302
467.536	303
467.888	303
468.239	304
468.591	305
468.943	306
469.294	308
469.646	310
469.997	312
470.348	316
470.700	319
471.051	324
471.402	328
471.754	334
472.105	339
472.456	345
472.807	352
473.158	359
473.509	366
473.860	374
474.211	383
474.562	391
474.913	401
475.264	411
475.615	420
475.966	430
476.316	439
476.667	449
477.018	458
477.368	468
477.719	478
478.070	488
478.420	497
478.771	507
479.121	516
479.472	525
479.822	535
480.172	546
480.523	558
480.873	574
481.223	600
481.573	637
481.924	685
482.274	738
482.624	793
482.974	849
483.324	898
483.674	936
484.024	962
484.374	980
484.724	992
485.073	1001
485.423	1010
485.773	1018
486.123	1025
486.472	1033
486.822	1040
487.172	1047
487.521	1052
487.871	1056
488.220	1055
488.570	1044
488.919	1022
489.268	989
489.618	951
489.967	910
490.316	869
490.666	834
491.015	809
491.364	795
491.713	790
492.062	790
492.411	793
492.760	798
493.109	803
493.458	809
493.807	814
494.156	818
494.505	823
494.853	828
495.202	834
495.551	841
495.900	848
496.248	855
496.597	862
496.945	869
497.294	876
497.642	883
497.991	891
498.339	901
498.688	911
499.036	920
499.384	929
499.732	938
500.081	945
500.429	952
500.777	958
501.125	964
501.473	970
501.821	977
502.169	983
502.517	989
502.865	993
503.213	997
503.561	1000
503.908	1004
504.256	1006
504.604	1009
504.952	1011
505.299	1012
505.647	1012
505.994	1011
506.342	1011
506.689	1010
507.037	1010
507.384	1010
507.732	1012
508.079	1013
508.426	1014
508.774	1016
509.121	1016
509.468	1017
509.815	1017
510.162	1018
510.509	1018
510.856	1018
511.203	1018
511.550	1018
511.897	1018
512.244	1018
512.591	1018
512.938	1019
513.284	1019
513.631	1019
513.978	1018
514.324	1017
514.671	1016
515.018	1015
515.364	1015
515.711	1014
516.057	1013
516.403	1013
516.750	1012
517.096	1011
517.443	1009
517.789	1006
518.135	1004
518.481	1003
518.827	1002
519.173	1000
519.519	999
519.865	998
520.211	998
520.557	997
520.903	998
521.249	998
521.595	998
521.941	998
522.287	998
522.632	999
522.978	1000
523.324	1000
523.669	1002
524.015	1004
524.360	1008
524.706	1014
525.051	1020
525.397	1027
525.742	1034
526.087	1042
526.433	1050
526.778	1056
527.123	1061
527.468	1067
527.813	1071
528.158	1076
528.504	1082
528.849	1090
529.193	1100
529.538	1110
529.883	1123
530.228	1138
530.573	1154
530.918	1171
531.263	1188
531.607	1204
531.952	1218
532.296	1231
532.641	1241
532.986	1250
533.330	1259
533.675	1268
534.019	1279
534.363	1293
534.708	1309
535.052	1328
535.396	1347
535.741	1366
536.085	1382
536.429	1398
536.773	1412
537.117	1423
537.461	1434
537.805	1444
538.149	1455
538.493	1466
538.837	1478
539.181	1493
539.524	1510
539.868	1529
540.212	1550
540.556	1572
540.899	1595
541.243	1617
541.586	1635
541.930	1651
542.273	1663
542.617	1674
542.960	1685
543.304	1699
543.647	1716
543.990	1736
544.333	1760
544.677	1783
545.020	1805
545.363	1825
545.706	1841
546.049	1855
546.392	1865
546.735	1872
547.078	1878
547.421	1883
547.764	1891
548.106	1899
548.449	1910
548.792	1925
549.135	1943
549.477	1964
549.820	1986
550.162	2004
550.505	2021
550.847	2035
551.190	2046
551.532	2056
551.875	2067
552.217	2079
552.559	2093
552.901	2110
553.244	2129
553.586	2150
553.928	2171
554.270	2191
554.612	2208
554.954	2223
555.296	2238
555.638	2251
555.980	2266
556.322	2283
556.663	2305
557.005	2332
557.347	2365
557.689	2400
558.030	2434
558.372	2467
558.713	2498
559.055	2527
559.396	2556
559.738	2586
560.079	2619
560.421	2656
560.762	2697
561.103	2741
561.444	2790
561.786	2840
562.127	2894
562.468	2950
562.809	3013
563.150	3082
563.491	3157
563.832	3239
564.173	3333
564.514	3440
564.855	3566
565.195	3720
565.536	3902
565.877	4114
566.218	4353
566.558	4624
566.899	4921
567.239	5241
567.580	5577
567.920	5923
568.261	6272
568.601	6631
568.941	7003
569.282	7386
569.622	7784
569.962	8199
570.302	8643
570.643	9102
570.983	9567
571.323	10016
571.663	10451
572.003	10867
572.343	11258
572.683	11629
573.022	12007
573.362	12407
573.702	12821
574.042	13237
574.381	13637
574.721	14020
575.061	14388
575.400	14726
575.740	15028
576.079	15298
576.419	15568
576.758	15874
577.097	16231
577.437	16623
577.776	17040
578.115	17475
578.454	17916
578.794	18322
579.133	18640
579.472	18865
579.811	19004
580.150	19063
580.489	19060
580.828	19031
581.167	19006
581.505	18998
581.844	18998
582.183	18997
582.522	19009
582.860	19031
583.199	19052
583.538	19046
583.876	18980
584.215	18836
584.553	18601
584.891	18284
585.230	17889
585.568	17452
585.906	17006
586.245	16605
586.583	16260
586.921	15976
587.259	15718
587.597	15458
587.935	15187
588.273	14908
588.611	14649
588.949	14423
589.287	14238
589.625	14095
589.963	13985
590.300	13899
590.638	13820
590.976	13730
591.313	13622
591.651	13519
591.989	13431
592.326	13362
592.664	13303
593.001	13257
593.338	13231
593.676	13223
594.013	13240
594.350	13299
594.687	13393
595.025	13495
595.362	13590
595.699	13660
596.036	13707
596.373	13725
596.710	13708
597.047	13667
597.384	13615
597.720	13557
598.057	13510
598.394	13480
598.731	13467
599.067	13477
599.404	13510
599.741	13574
600.077	13661
600.414	13757
600.750	13857
601.087	13933
601.423	13974
601.759	13984
602.096	13967
602.432	13935
602.768	13880
603.104	13803
603.440	13705
603.776	13598
604.112	13482
604.448	13364
604.784	13238
605.120	13103
605.456	12973
605.792	12836
606.128	12692
606.463	12544
606.799	12394
607.135	12258
607.470	12124
607.806	11992
608.142	11862
608.477	11737
608.812	11616
609.148	11495
609.483	11367
609.819	11235
610.154	11110
610.489	10994
610.824	10895
611.159	10812
611.494	10728
611.830	10655
612.165	10582
612.500	10499
612.834	10402
613.169	10291
613.504	10169
613.839	10033
614.174	9878
614.509	9721
614.843	9565
615.178	9416
615.512	9269
615.847	9125
616.182	8981
616.516	8836
616.850	8682
617.185	8522
617.519	8359
617.853	8184
618.188	8001
618.522	7835
618.856	7695
619.190	7574
619.524	7468
619.858	7384
620.192	7319
620.526	7261
620.860	7202
621.194	7147
621.528	7093
621.862	7038
622.195	6971
622.529	6900
622.863	6825
623.196	6751
623.530	6676
623.864	6600
624.197	6523
624.530	6449
624.864	6382
625.197	6312
625.531	6232
625.864	6136
626.197	6033
626.530	5921
626.863	5794
627.196	5658
627.529	5519
627.862	5382
628.195	5247
628.528	5112
628.861	4983
629.194	4868
629.527	4758
629.860	4648
630.192	4541
630.525	4441
630.858	4347
631.190	4259
631.523	4173
631.855	4094
632.188	4025
632.520	3960
632.852	3899
633.185	3836
633.517	3775
633.849	3721
634.182	3671
634.514	3623
634.846	3580
635.178	3542
635.510	3509
635.842	3479
636.174	3449
636.506	3420
636.837	3391
637.169	3362
637.501	3332
637.833	3298
638.164	3260
638.496	3218
638.828	3170
639.159	3116
639.491	3057
639.822	2997
640.154	2936
640.485	2876
640.816	2816
641.147	2756
641.479	2699
641.810	2645
642.141	2591
642.472	2538
642.803	2486
643.134	2437
643.465	2394
643.796	2360
644.127	2336
644.458	2325
644.789	2325
645.119	2339
645.450	2361
645.781	2386
646.111	2410
646.442	2432
646.773	2449
647.103	2462
647.433	2474
647.764	2486
648.094	2503
648.425	2524
648.755	2549
649.085	2578
649.415	2608
649.745	2639
650.075	2671
650.405	2707
650.735	2785
651.065	3346
651.395	5092
651.725	7974
652.055	11621
652.385	15264
652.715	18905
653.044	22549
653.374	26197
653.704	29850
654.033	32469
654.363	34227
654.692	35393
655.022	36153
655.351	36652
655.680	36962
656.010	37131
656.339	37207
656.668	37228
656.997	37219
657.326	37188
657.655	37103
657.984	36525
658.313	34752
658.642	31834
658.971	28141
659.300	24448
659.629	20756
659.958	17065
660.286	13373
660.615	9683
660.944	7035
661.272	5251
661.601	4061
661.929	3274
662.258	2745
662.586	2398
662.915	2186
663.243	2064
663.571	1995
663.899	1953
664.228	1927
664.556	1910
664.884	1898
665.212	1889
665.540	1884
665.868	1881
666.196	1879
666.524	1879
666.852	1880
667.179	1888
667.507	1903
667.835	1925
668.162	1954
668.490	1990
668.818	2031
669.145	2074
669.473	2117
669.800	2157
670.127	2193
670.455	2222
670.782	2246
671.109	2268
671.436	2287
671.764	2302
672.091	2315
672.418	2325
672.745	2334
673.072	2343
673.399	2354
673.726	2365
674.053	2375
674.379	2378
674.706	2377
675.033	2376
675.359	2374
675.686	2369
676.013	2367
676.339	2369
676.666	2377
676.992	2395
677.318	2420
677.645	2449
677.971	2476
678.297	2500
678.624	2524
678.950	2546
679.276	2567
679.602	2587
679.928	2608
680.254	2635
680.580	2668
680.906	2710
681.232	2763
681.558	2817
681.883	2872
682.209	2922
682.535	2970
682.860	3013
683.186	3048
683.511	3078
683.837	3096
684.162	3111
684.488	3122
684.813	3134
685.138	3146
685.464	3156
685.789	3164
686.114	3173
686.439	3185
686.764	3197
687.089	3206
687.414	3207
687.739	3198
688.064	3179
688.389	3156
688.714	3127
689.039	3097
689.363	3064
689.688	3029
690.013	2995
690.337	2964
690.662	2939
690.986	2917
691.311	2894
691.635	2871
691.959	2850
692.284	2836
692.608	2832
692.932	2838
693.256	2847
693.580	2860
693.904	2876
694.228	2896
694.552	2913
694.876	2921
695.200	2919
695.524	2907
695.848	2889
696.172	2866
696.495	2842
696.819	2817
697.143	2791
697.466	2764
697.790	2742
698.113	2727
698.437	2720
698.760	2719
699.083	2718
699.407	2710
699.730	2697
700.053	2676
700.376	2646
700.699	2603
701.022	2550
701.345	2492
701.668	2439
701.991	2393
702.314	2363
702.637	2349
702.960	2356
703.283	2381
703.605	2425
703.928	2484
704.251	2552
704.573	2619
704.896	2679
705.218	2728
705.540	2767
705.863	2799
706.185	2825
706.507	2848
706.830	2869
707.152	2892
707.474	2915
707.796	2943
708.118	2971
708.440	2998
708.762	3022
709.084	3041
709.406	3052
709.728	3054
710.049	3049
710.371	3037
710.693	3017
711.014	2995
711.336	2975
711.658	2957
711.979	2940
712.301	2924
712.622	2908
712.943	2888
713.265	2864
713.586	2839
713.907	2815
714.228	2794
714.549	2777
714.870	2766
715.191	2762
715.512	2761
715.833	2758
716.154	2751
716.475	2740
716.796	2722
717.117	2697
717.437	2667
717.758	2634
718.078	2600
718.399	2566
718.719	2537
719.040	2511
719.360	2492
719.681	2478
720.001	2469
720.321	2465
720.642	2462
720.962	2465
721.282	2472
721.602	2479
721.922	2489
722.242	2501
722.562	2518
722.882	2538
723.202	2556
723.521	2573
723.841	2591
724.161	2609
724.481	2627
724.800	2646
725.120	2669
725.439	2698
725.759	2731
726.078	2768
726.398	2812
726.717	2867
727.036	2929
727.355	2995
727.675	3058
727.994	3119
728.313	3178
728.632	3228
728.951	3270
729.270	3306
729.589	3340
729.908	3381
730.226	3429
730.545	3481
730.864	3537
731.182	3598
731.501	3659
731.820	3718
732.138	3768
732.457	3813
732.775	3854
733.093	3887
733.412	3906
733.730	3911
734.048	3903
734.367	3887
734.685	3864
735.003	3837
735.321	3814
735.639	3795
735.957	3780
736.275	3766
736.593	3746
736.910	3715
737.228	3671
737.546	3614
737.863	3548
738.181	3475
738.499	3399
738.816	3324
739.134	3249
739.451	3174
739.768	3099
740.086	3026
740.403	2959
740.720	2896
741.038	2837
741.355	2781
741.672	2724
741.989	2667
742.306	2607
742.623	2546
742.940	2486
743.257	2431
743.573	2382
743.890	2343
744.207	2314
744.523	2293
744.840	2280
745.157	2272
745.473	2271
745.790	2279
746.106	2297
746.422	2324
746.739	2357
747.055	2398
747.371	2443
747.687	2491
748.004	2536
748.320	2576
748.636	2612
748.952	2648
749.268	2684
749.584	2718
749.899	2748
750.215	2780
750.531	2817
750.847	2857
751.162	2897
751.478	2936
751.793	2977
752.109	3021
752.424	3068
752.740	3116
753.055	3170
753.370	3235
753.686	3311
754.001	3392
754.316	3477
754.631	3567
754.946	3664
755.261	3765
755.576	3862
755.891	3957
756.206	4051
756.521	4150
756.836	4251
757.150	4347
757.465	4432
757.780	4505
758.094	4566
758.409	4613
758.723	4643
759.038	4656
759.352	4657
759.667	4643
759.981	4621
760.295	4598
760.609	4581
760.923	4570
761.238	4564
761.552	4560
761.866	4554
762.180	4545
762.493	4520
762.807	4472
763.121	4400
763.435	4309
763.749	4209
764.062	4116
764.376	4038
764.689	3985
765.003	3956
765.316	3952
765.630	3964
765.943	3987
766.257	4014
766.570	4036
766.883	4041
767.196	4031
767.509	4005
767.822	3967
768.135	3917
768.448	3863
768.761	3806
769.074	3758
769.387	3721
769.700	3698
770.013	3684
770.325	3672
770.638	3656
770.950	3625
771.263	3576
771.575	3509
771.888	3422
772.200	3322
772.513	3213
772.825	3099
773.137	2981
773.449	2866
773.761	2754
774.074	2650
774.386	2557
774.698	2479
775.010	2416
775.321	2370
775.633	2341
775.945	2324
776.257	2314
776.568	2311
776.880	2319
777.192	2336
777.503	2362
777.815	2394
778.126	2434
778.438	2483
778.749	2536
779.060	2587
779.372	2635
779.683	2682
779.994	2724
780.305	2757
780.616	2779
780.927	2794
781.238	2799
781.549	2792
781.860	2774
782.171	2748
782.481	2719
782.792	2690
783.103	2661
783.413	2630
783.724	2598
784.034	2565
784.345	2536
784.655	2510
784.966	2484
785.276	2455
785.586	2428
785.896	2399
786.207	2370
786.517	2339
786.827	2308
787.137	2280
787.447	2252
787.757	2225
788.066	2200
788.376	2176
788.686	2152
788.996	2127
789.305	2103
789.615	2083
789.925	2073
790.234	2069
790.544	2074
790.853	2083
791.162	2094
791.472	2102
791.781	2106
792.090	2101
792.399	2088
792.708	2068
793.017	2046
793.326	2025
793.635	2005
793.944	1986
794.253	1970
794.562	1959
794.871	1952
795.179	1947
795.488	1940
795.797	1930
796.105	1912
796.414	1883
796.722	1845
797.031	1795
797.339	1736
797.647	1669
797.956	1599
798.264	1534
798.572	1480
798.880	1438
799.188	1408
799.496	1385
799.804	1368
800.112	1355
800.420	1344
800.728	1333
801.035	1319
801.343	1304
801.651	1291
801.958	1288
802.266	1293
802.573	1303
802.881	1317
803.188	1334
803.496	1353
803.803	1372
804.110	1390
804.417	1405
804.724	1419
805.032	1432
805.339	1443
805.646	1450
805.953	1454
806.259	1455
806.566	1452
806.873	1447
807.180	1440
807.486	1432
807.793	1422
808.100	1407
808.406	1383
808.713	1351
809.019	1315
809.326	1278
809.632	1242
809.938	1208
810.244	1178
810.551	1152
810.857	1131
811.163	1112
811.469	1092
811.775	1071
812.081	1049
812.387	1029
812.692	1013
812.998	1000
813.304	991
813.610	983
813.915	976
814.221	971
814.526	966
814.832	963
815.137	958
815.443	952
815.748	943
816.053	930
816.358	917
816.664	905
816.969	894
817.274	885
817.579	877
817.884	873
818.189	872
818.493	871
818.798	869
819.103	863
819.408	855
819.712	845
820.017	834
820.321	823
820.626	811
820.930	800
821.235	794
821.539	791
821.843	791
822.148	792
822.452	793
822.756	793
823.060	790
823.364	785
823.668	778
823.972	770
824.276	761
824.580	754
824.883	751
825.187	750
825.491	749
825.795	749
826.098	749
826.402	748
826.705	745
827.008	740
827.312	732
827.615	720
827.918	705
828.222	688
828.525	671
828.828	654
829.131	638
829.434	621
829.737	606
830.040	594
830.343	584
830.645	576
830.948	567
831.251	558
831.553	551
831.856	545
832.159	539
832.461	532
832.764	524
833.066	517
833.368	511
833.671	507
833.973	503
834.275	500
834.577	496
834.879	492
835.181	488
835.483	482
835.785	476
836.087	467
836.389	457
836.690	445
836.992	433
837.294	420
837.595	406
837.897	392
838.198	378
838.500	365
838.801	354
839.103	343
839.404	334
839.705	327
840.006	321
840.307	316
840.608	312
840.910	309
841.210	308
841.511	305
841.812	302
842.113	299
842.414	295
842.715	289
843.015	283
843.316	277
843.616	272
843.917	266
844.217	262
844.518	258
844.818	255
845.118	253
845.419	251
845.719	250
846.019	248
846.319	247
846.619	246
846.919	244
847.219	243
847.519	242
847.819	240
848.118	241
848.418	244
848.718	251
849.017	263
849.317	280
849.616	301
849.916	325
850.215	352
850.515	381
850.814	409
851.113	435
851.412	458
851.712	479
852.011	499
852.310	517
852.609	534
852.908	548
853.206	561
853.505	573
853.804	583
854.103	592
854.401	598
854.700	601
854.999	599
855.297	591
855.595	579
855.894	562
856.192	541
856.491	518
856.789	492
857.087	466
857.385	441
857.683	419
857.981	399
858.279	381
858.577	363
858.875	347
859.173	335
859.471	325
859.768	316
860.066	309
860.363	303
860.661	298
860.959	294
861.256	290
861.553	286
861.851	280
862.148	275
862.445	269
862.742	264
863.039	260
863.337	256
863.634	253
863.931	251
864.227	250
864.524	249
864.821	249
865.118	248
865.415	247
865.711	243
866.008	239
866.304	235
866.601	230
866.897	226
867.194	223
867.490	220
867.786	219
868.082	219
868.379	220
868.675	220
868.971	221
869.267	221
869.563	221
869.859	220
870.154	219
870.450	218
870.746	217
871.042	216
871.337	216
871.633	216
871.928	217
872.224	219
872.519	221
872.815	222
873.110	223
873.405	223
873.700	222
873.995	222
874.291	222
874.586	222
874.881	224
875.175	226
875.470	230
875.765	234
876.060	239
876.355	244
876.649	248
876.944	253
877.238	258
877.533	261
877.827	265
878.122	267
878.416	268
878.710	267
879.005	267
879.299	266
879.593	265
879.887	264
880.181	263
880.475	261
880.769	259
881.063	256
881.356	254
881.650	250
881.944	246
882.238	204
882.531	189
882.825	197
883.118	201
883.412	197
883.705	197
883.998	195
884.291	204
884.585	207
884.878	221
>>>>>>>>>> END of Data <<<<<<<<<<