Date	2021年06月15日火曜日 04時36分45秒
Spectrometers	USB2+H05879
ダーク	使用
リファレンス	使用
積分時間[msec]	10
平均回数	280
ｽﾑｰｼﾞﾝｸﾞ	10
Electrical Dark	USE
ピクセル数	2048
計測モード	吸光度
保存開始波長[nm]	190.664
保存終了波長[nm]	884.878
保存ﾋﾟｯﾁ波長[nm]	全波長

>>>>>>>>>> Data Start <<<<<<<<<<<<
190.664	0.000000
191.040	0.000000
191.415	0.000000
191.791	-2.550449
192.166	-0.620679
192.542	-0.843997
192.917	0.000000
193.293	-0.572923
193.668	0.153619
194.044	-0.909187
194.419	0.000000
194.794	-1.335448
195.170	-1.263364
195.545	-1.184886
195.920	-1.054589
196.296	-0.941256
196.671	-0.788455
197.046	-0.644298
197.421	-0.599120
197.796	-0.600583
198.171	-0.572541
198.546	-0.533022
198.922	-0.486786
199.297	-0.461112
199.672	-0.447143
200.047	-0.429112
200.422	-0.405288
200.796	-0.404087
201.171	-0.393521
201.546	-0.390777
201.921	-0.377505
202.296	-0.363084
202.671	-0.345341
203.045	-0.320732
203.420	-0.305651
203.795	-0.296019
204.170	-0.289153
204.544	-0.278478
204.919	-0.277830
205.294	-0.266474
205.668	-0.252962
206.043	-0.240005
206.417	-0.242404
206.792	-0.239520
207.166	-0.236019
207.541	-0.236879
207.915	-0.239996
208.289	-0.226263
208.664	-0.216585
209.038	-0.216317
209.412	-0.199297
209.787	-0.183850
210.161	-0.176712
210.535	-0.175366
210.909	-0.165404
211.284	-0.164764
211.658	-0.166933
212.032	-0.166039
212.406	-0.179180
212.780	-0.175919
213.154	-0.184946
213.528	-0.186699
213.902	-0.181646
214.276	-0.173604
214.650	-0.170172
215.024	-0.167703
215.398	-0.160810
215.772	-0.153223
216.145	-0.150382
216.519	-0.148344
216.893	-0.141529
217.267	-0.147608
217.640	-0.155353
218.014	-0.150128
218.388	-0.144103
218.761	-0.154862
219.135	-0.145447
219.508	-0.144609
219.882	-0.147904
220.256	-0.142366
220.629	-0.133784
221.003	-0.131054
221.376	-0.129132
221.749	-0.133300
222.123	-0.133467
222.496	-0.139878
222.869	-0.138975
223.243	-0.133301
223.616	-0.135844
223.989	-0.148858
224.362	-0.140894
224.736	-0.143648
225.109	-0.141223
225.482	-0.135614
225.855	-0.134037
226.228	-0.137417
226.601	-0.134099
226.974	-0.131666
227.347	-0.121102
227.720	-0.120248
228.093	-0.127786
228.466	-0.143351
228.839	-0.133931
229.212	-0.137982
229.585	-0.149778
229.957	-0.153999
230.330	-0.145346
230.703	-0.137465
231.076	-0.139352
231.448	-0.134888
231.821	-0.124816
232.194	-0.125281
232.566	-0.126790
232.939	-0.129186
233.311	-0.136981
233.684	-0.131445
234.056	-0.127195
234.429	-0.119926
234.801	-0.124236
235.174	-0.125561
235.546	-0.126535
235.918	-0.117207
236.291	-0.110067
236.663	-0.110861
237.035	-0.108112
237.408	-0.094816
237.780	-0.080890
238.152	-0.082252
238.524	-0.092806
238.896	-0.092173
239.268	-0.095179
239.641	-0.101993
240.013	-0.096566
240.385	-0.089504
240.757	-0.092890
241.129	-0.089224
241.500	-0.097793
241.872	-0.096937
242.244	-0.095000
242.616	-0.088529
242.988	-0.089629
243.360	-0.078201
243.731	-0.073804
244.103	-0.071068
244.475	-0.073723
244.847	-0.071627
245.218	-0.073362
245.590	-0.073542
245.961	-0.074289
246.333	-0.071417
246.705	-0.072512
247.076	-0.067552
247.448	-0.059705
247.819	-0.058965
248.190	-0.054458
248.562	-0.047720
248.933	-0.047463
249.305	-0.042671
249.676	-0.035692
250.047	-0.044677
250.418	-0.051150
250.790	-0.052515
251.161	-0.059106
251.532	-0.065948
251.903	-0.067380
252.274	-0.061959
252.645	-0.051762
253.016	-0.055740
253.387	-0.067873
253.758	-0.063543
254.129	-0.063680
254.500	-0.056947
254.871	-0.054737
255.242	-0.060109
255.613	-0.068305
255.984	-0.073265
256.355	-0.078071
256.725	-0.071169
257.096	-0.065955
257.467	-0.066338
257.838	-0.064542
258.208	-0.065326
258.579	-0.062787
258.949	-0.060072
259.320	-0.057257
259.690	-0.057453
260.061	-0.055415
260.431	-0.051518
260.802	-0.044537
261.172	-0.040592
261.543	-0.041059
261.913	-0.041580
262.283	-0.048076
262.654	-0.053937
263.024	-0.051185
263.394	-0.048069
263.764	-0.047156
264.135	-0.043476
264.505	-0.048747
264.875	-0.048730
265.245	-0.051959
265.615	-0.047271
265.985	-0.037008
266.355	-0.036365
266.725	-0.040507
267.095	-0.040645
267.465	-0.037762
267.835	-0.045829
268.205	-0.060521
268.575	-0.058651
268.944	-0.050473
269.314	-0.051922
269.684	-0.051322
270.054	-0.059405
270.423	-0.053723
270.793	-0.054775
271.163	-0.051892
271.532	-0.049209
271.902	-0.049794
272.271	-0.046680
272.641	-0.047240
273.010	-0.057152
273.380	-0.063178
273.749	-0.064110
274.119	-0.058686
274.488	-0.045422
274.857	-0.045099
275.227	-0.042582
275.596	-0.042078
275.965	-0.034611
276.335	-0.033832
276.704	-0.039880
277.073	-0.040130
277.442	-0.033546
277.811	-0.025906
278.180	-0.024649
278.549	-0.024041
278.918	-0.020627
279.287	-0.021673
279.656	-0.018753
280.025	-0.020327
280.394	-0.023373
280.763	-0.011379
281.132	-0.001976
281.501	-0.005212
281.869	-0.006813
282.238	-0.013195
282.607	-0.015948
282.976	-0.015680
283.344	-0.010703
283.713	-0.014648
284.081	-0.019991
284.450	-0.013625
284.819	-0.008019
285.187	-0.006399
285.556	-0.003546
285.924	-0.008065
286.292	-0.006575
286.661	-0.013686
287.029	-0.013437
287.398	-0.010690
287.766	-0.009582
288.134	-0.008520
288.502	-0.007681
288.871	-0.007723
289.239	-0.003791
289.607	-0.003323
289.975	-0.005743
290.343	0.004321
290.711	0.002333
291.079	0.002482
291.447	0.006850
291.815	0.012832
292.183	0.010493
292.551	0.009865
292.919	0.011187
293.287	0.014288
293.655	0.020223
294.022	0.018603
294.390	0.024056
294.758	0.026103
295.126	0.022982
295.493	0.024916
295.861	0.026569
296.229	0.019082
296.596	0.016883
296.964	0.011684
297.331	0.012733
297.699	0.021824
298.066	0.018191
298.434	0.026247
298.801	0.030051
299.168	0.027477
299.536	0.027351
299.903	0.028680
300.270	0.032887
300.638	0.038149
301.005	0.045081
301.372	0.047945
301.739	0.055353
302.106	0.059795
302.473	0.066929
302.840	0.077856
303.207	0.095975
303.574	0.108489
303.941	0.124861
304.308	0.137697
304.675	0.153384
305.042	0.167259
305.409	0.175682
305.776	0.194936
306.143	0.207692
306.509	0.219583
306.876	0.241491
307.243	0.262609
307.610	0.287991
307.976	0.307948
308.343	0.327054
308.709	0.348671
309.076	0.376294
309.442	0.398793
309.809	0.422886
310.175	0.446293
310.542	0.466065
310.908	0.484311
311.275	0.500909
311.641	0.519646
312.007	0.538454
312.373	0.557213
312.740	0.573819
313.106	0.593611
313.472	0.611714
313.838	0.627940
314.204	0.643714
314.570	0.655096
314.936	0.668640
315.302	0.680916
315.668	0.691253
316.034	0.702096
316.400	0.714040
316.766	0.719976
317.132	0.732428
317.498	0.741213
317.864	0.746569
318.230	0.751356
318.595	0.755454
318.961	0.762336
319.327	0.768852
319.692	0.773658
320.058	0.776957
320.424	0.781219
320.789	0.784116
321.155	0.787109
321.520	0.791441
321.886	0.795445
322.251	0.798031
322.616	0.798991
322.982	0.799629
323.347	0.801057
323.712	0.803077
324.078	0.803827
324.443	0.805424
324.808	0.805966
325.173	0.806575
325.539	0.808130
325.904	0.808944
326.269	0.809560
326.634	0.811009
326.999	0.811184
327.364	0.811197
327.729	0.811394
328.094	0.811278
328.459	0.811723
328.823	0.811848
329.188	0.811652
329.553	0.811100
329.918	0.811575
330.283	0.811691
330.647	0.811828
331.012	0.811570
331.377	0.811204
331.741	0.810674
332.106	0.810412
332.470	0.809718
332.835	0.809054
333.199	0.808578
333.564	0.808958
333.928	0.808749
334.293	0.807970
334.657	0.807484
335.021	0.807662
335.386	0.807274
335.750	0.807051
336.114	0.806301
336.478	0.805965
336.843	0.805701
337.207	0.805684
337.571	0.805624
337.935	0.805720
338.299	0.805446
338.663	0.805565
339.027	0.805633
339.391	0.805743
339.755	0.805643
340.119	0.805662
340.483	0.805707
340.846	0.806003
341.210	0.806126
341.574	0.806504
341.938	0.806595
342.301	0.807005
342.665	0.807098
343.029	0.807599
343.392	0.808090
343.756	0.808614
344.119	0.808954
344.483	0.809210
344.846	0.809474
345.210	0.809797
345.573	0.810162
345.937	0.810453
346.300	0.810758
346.663	0.811009
347.027	0.811282
347.390	0.811624
347.753	0.811972
348.116	0.812379
348.479	0.812837
348.843	0.812925
349.206	0.812937
349.569	0.813100
349.932	0.813187
350.295	0.813317
350.658	0.813525
351.021	0.814021
351.383	0.814389
351.746	0.814496
352.109	0.814939
352.472	0.815226
352.835	0.815435
353.197	0.815714
353.560	0.816273
353.923	0.816374
354.285	0.816574
354.648	0.817035
355.011	0.817300
355.373	0.817441
355.736	0.817726
356.098	0.817692
356.461	0.818154
356.823	0.818390
357.185	0.818964
357.548	0.819307
357.910	0.819920
358.272	0.820198
358.635	0.819940
358.997	0.819993
359.359	0.820583
359.721	0.820699
360.083	0.821085
360.445	0.821495
360.807	0.821845
361.169	0.821824
361.531	0.822190
361.893	0.822632
362.255	0.822821
362.617	0.823243
362.979	0.823632
363.341	0.823724
363.703	0.824165
364.064	0.824357
364.426	0.824686
364.788	0.824907
365.149	0.825218
365.511	0.825147
365.873	0.825359
366.234	0.825895
366.596	0.826196
366.957	0.826232
367.319	0.826515
367.680	0.826767
368.042	0.826901
368.403	0.826939
368.764	0.827382
369.126	0.827626
369.487	0.827857
369.848	0.827952
370.209	0.828090
370.570	0.828283
370.931	0.828621
371.293	0.828593
371.654	0.828844
372.015	0.829326
372.376	0.829460
372.737	0.829469
373.098	0.829702
373.458	0.829970
373.819	0.830361
374.180	0.830773
374.541	0.830993
374.902	0.831119
375.263	0.831262
375.623	0.831425
375.984	0.831843
376.345	0.831923
376.705	0.832189
377.066	0.832219
377.426	0.832289
377.787	0.832407
378.147	0.832531
378.508	0.832616
378.868	0.832745
379.228	0.832788
379.589	0.832632
379.949	0.832593
380.309	0.832896
380.670	0.832847
381.030	0.832629
381.390	0.832501
381.750	0.832190
382.110	0.832086
382.470	0.832133
382.830	0.832118
383.190	0.832029
383.550	0.831683
383.910	0.831771
384.270	0.831680
384.630	0.831562
384.990	0.831594
385.350	0.831353
385.709	0.831189
386.069	0.831108
386.429	0.830984
386.788	0.830860
387.148	0.830666
387.508	0.830533
387.867	0.830086
388.227	0.829983
388.586	0.829884
388.946	0.829681
389.305	0.829601
389.665	0.829533
390.024	0.829191
390.383	0.828890
390.743	0.828543
391.102	0.828137
391.461	0.827699
391.820	0.827333
392.179	0.826871
392.539	0.826448
392.898	0.826164
393.257	0.825651
393.616	0.825249
393.975	0.824739
394.334	0.824118
394.693	0.823742
395.051	0.823294
395.410	0.823006
395.769	0.822450
396.128	0.821952
396.487	0.821305
396.845	0.820616
397.204	0.819721
397.563	0.818844
397.921	0.817914
398.280	0.817091
398.638	0.816209
398.997	0.815147
399.355	0.814117
399.714	0.813252
400.072	0.812320
400.431	0.811189
400.789	0.810177
401.147	0.809256
401.506	0.808226
401.864	0.807198
402.222	0.805901
402.580	0.804609
402.938	0.803375
403.297	0.802100
403.655	0.800863
404.013	0.799566
404.371	0.798411
404.729	0.797176
405.087	0.796152
405.444	0.794951
405.802	0.793721
406.160	0.792681
406.518	0.791520
406.876	0.790241
407.233	0.788964
407.591	0.787600
407.949	0.786413
408.306	0.785209
408.664	0.783614
409.022	0.782261
409.379	0.780839
409.737	0.779445
410.094	0.778033
410.451	0.776699
410.809	0.775351
411.166	0.773899
411.523	0.772603
411.881	0.771131
412.238	0.769758
412.595	0.768187
412.952	0.766805
413.310	0.765396
413.667	0.763916
414.024	0.762501
414.381	0.761152
414.738	0.759695
415.095	0.758068
415.452	0.756528
415.809	0.754827
416.165	0.753227
416.522	0.751551
416.879	0.749942
417.236	0.748276
417.593	0.746497
417.949	0.744628
418.306	0.742986
418.663	0.741493
419.019	0.739821
419.376	0.738191
419.732	0.736600
420.089	0.735233
420.445	0.733744
420.802	0.732239
421.158	0.730683
421.514	0.729106
421.871	0.727446
422.227	0.725875
422.583	0.724503
422.939	0.722824
423.295	0.721301
423.652	0.719706
424.008	0.718045
424.364	0.716329
424.720	0.714716
425.076	0.713074
425.432	0.711304
425.788	0.709370
426.143	0.707283
426.499	0.705292
426.855	0.703490
427.211	0.701556
427.567	0.699514
427.922	0.697649
428.278	0.695699
428.634	0.693997
428.989	0.692232
429.345	0.690481
429.700	0.688663
430.056	0.686860
430.411	0.685214
430.767	0.683467
431.122	0.681725
431.478	0.679914
431.833	0.678263
432.188	0.676361
432.543	0.674485
432.899	0.672543
433.254	0.670590
433.609	0.668694
433.964	0.666727
434.319	0.664594
434.674	0.662642
435.029	0.660705
435.384	0.658615
435.739	0.656679
436.094	0.654787
436.449	0.652843
436.804	0.650992
437.158	0.649037
437.513	0.646999
437.868	0.644897
438.223	0.643014
438.577	0.640942
438.932	0.639144
439.287	0.637137
439.641	0.635241
439.996	0.633409
440.350	0.631560
440.704	0.629639
441.059	0.627895
441.413	0.626073
441.768	0.624144
442.122	0.622323
442.476	0.620511
442.830	0.618860
443.185	0.617059
443.539	0.615193
443.893	0.613401
444.247	0.611623
444.601	0.609911
444.955	0.608109
445.309	0.606276
445.663	0.604188
446.017	0.602257
446.371	0.600264
446.724	0.598320
447.078	0.596466
447.432	0.594485
447.786	0.592540
448.139	0.590687
448.493	0.588762
448.847	0.586756
449.200	0.584779
449.554	0.582789
449.907	0.580846
450.261	0.578714
450.614	0.576778
450.968	0.574835
451.321	0.572983
451.674	0.571056
452.027	0.568945
452.381	0.567063
452.734	0.565221
453.087	0.563447
453.440	0.561554
453.793	0.559671
454.146	0.557648
454.499	0.555713
454.852	0.553862
455.205	0.552064
455.558	0.550238
455.911	0.548362
456.264	0.546516
456.617	0.544861
456.970	0.543221
457.322	0.541656
457.675	0.540228
458.028	0.538701
458.380	0.537244
458.733	0.535623
459.086	0.534067
459.438	0.532697
459.791	0.531048
460.143	0.529477
460.496	0.528001
460.848	0.526498
461.200	0.524949
461.553	0.523559
461.905	0.522118
462.257	0.520626
462.609	0.519239
462.961	0.517927
463.314	0.516592
463.666	0.515350
464.018	0.514022
464.370	0.512691
464.722	0.511375
465.074	0.510081
465.426	0.508789
465.777	0.507502
466.129	0.506349
466.481	0.505183
466.833	0.503993
467.184	0.502948
467.536	0.501703
467.888	0.500427
468.239	0.499054
468.591	0.497684
468.943	0.496193
469.294	0.494724
469.646	0.493180
469.997	0.491657
470.348	0.490146
470.700	0.488715
471.051	0.487299
471.402	0.485981
471.754	0.484671
472.105	0.483363
472.456	0.482184
472.807	0.481065
473.158	0.479981
473.509	0.478877
473.860	0.477797
474.211	0.476772
474.562	0.475674
474.913	0.474670
475.264	0.473601
475.615	0.472612
475.966	0.471542
476.316	0.470508
476.667	0.469431
477.018	0.468440
477.368	0.467407
477.719	0.466416
478.070	0.465382
478.420	0.464394
478.771	0.463325
479.121	0.462300
479.472	0.461264
479.822	0.460214
480.172	0.459150
480.523	0.458044
480.873	0.456723
481.223	0.455067
481.573	0.453389
481.924	0.451857
482.274	0.450381
482.624	0.449090
482.974	0.448049
483.324	0.447317
483.674	0.446684
484.024	0.446042
484.374	0.445452
484.724	0.444836
485.073	0.444177
485.423	0.443553
485.773	0.442895
486.123	0.442282
486.472	0.441640
486.822	0.440958
487.172	0.440252
487.521	0.439571
487.871	0.438910
488.220	0.438348
488.570	0.437807
488.919	0.437171
489.268	0.436338
489.618	0.435421
489.967	0.434323
490.316	0.433037
490.666	0.431432
491.015	0.429882
491.364	0.428448
491.713	0.427064
492.062	0.425851
492.411	0.424674
492.760	0.423561
493.109	0.422465
493.458	0.421383
493.807	0.420340
494.156	0.419328
494.505	0.418263
494.853	0.417205
495.202	0.416091
495.551	0.414994
495.900	0.413901
496.248	0.412759
496.597	0.411669
496.945	0.410614
497.294	0.409595
497.642	0.408536
497.991	0.407503
498.339	0.406407
498.688	0.405412
499.036	0.404455
499.384	0.403463
499.732	0.402507
500.081	0.401481
500.429	0.400487
500.777	0.399505
501.125	0.398542
501.473	0.397593
501.821	0.396646
502.169	0.395705
502.517	0.394839
502.865	0.393945
503.213	0.392995
503.561	0.392153
503.908	0.391291
504.256	0.390388
504.604	0.389446
504.952	0.388500
505.299	0.387603
505.647	0.386686
505.994	0.385738
506.342	0.384809
506.689	0.383896
507.037	0.382998
507.384	0.382084
507.732	0.381207
508.079	0.380357
508.426	0.379495
508.774	0.378595
509.121	0.377813
509.468	0.377005
509.815	0.376180
510.162	0.375328
510.509	0.374565
510.856	0.373793
511.203	0.372996
511.550	0.372202
511.897	0.371435
512.244	0.370665
512.591	0.369833
512.938	0.369047
513.284	0.368270
513.631	0.367450
513.978	0.366581
514.324	0.365814
514.671	0.365009
515.018	0.364167
515.364	0.363271
515.711	0.362447
516.057	0.361630
516.403	0.360796
516.750	0.359995
517.096	0.359179
517.443	0.358346
517.789	0.357604
518.135	0.356774
518.481	0.355999
518.827	0.355226
519.173	0.354436
519.519	0.353655
519.865	0.352926
520.211	0.352201
520.557	0.351428
520.903	0.350671
521.249	0.349936
521.595	0.349099
521.941	0.348320
522.287	0.347474
522.632	0.346631
522.978	0.345757
523.324	0.344967
523.669	0.344092
524.015	0.343215
524.360	0.342297
524.706	0.341494
525.051	0.340600
525.397	0.339750
525.742	0.338938
526.087	0.338127
526.433	0.337380
526.778	0.336638
527.123	0.335803
527.468	0.335035
527.813	0.334282
528.158	0.333452
528.504	0.332629
528.849	0.331696
529.193	0.330911
529.538	0.330097
529.883	0.329234
530.228	0.328353
530.573	0.327495
530.918	0.326651
531.263	0.325827
531.607	0.325066
531.952	0.324277
532.296	0.323465
532.641	0.322675
532.986	0.321819
533.330	0.320978
533.675	0.320112
534.019	0.319189
534.363	0.318360
534.708	0.317459
535.052	0.316629
535.396	0.315815
535.741	0.315035
536.085	0.314329
536.429	0.313484
536.773	0.312656
537.117	0.311791
537.461	0.310871
537.805	0.309887
538.149	0.308929
538.493	0.307931
538.837	0.306955
539.181	0.305903
539.524	0.304920
539.868	0.303888
540.212	0.302888
540.556	0.301882
540.899	0.300898
541.243	0.299919
541.586	0.298936
541.930	0.297955
542.273	0.296904
542.617	0.295845
542.960	0.294751
543.304	0.293597
543.647	0.292443
543.990	0.291316
544.333	0.290210
544.677	0.289190
545.020	0.288152
545.363	0.287123
545.706	0.286132
546.049	0.285096
546.392	0.284046
546.735	0.282965
547.078	0.281844
547.421	0.280735
547.764	0.279561
548.106	0.278341
548.449	0.277168
548.792	0.275967
549.135	0.274746
549.477	0.273591
549.820	0.272503
550.162	0.271394
550.505	0.270273
550.847	0.269146
551.190	0.267981
551.532	0.266802
551.875	0.265478
552.217	0.264139
552.559	0.262835
552.901	0.261504
553.244	0.260262
553.586	0.259071
553.928	0.257908
554.270	0.256860
554.612	0.255768
554.954	0.254701
555.296	0.253554
555.638	0.252401
555.980	0.251112
556.322	0.249837
556.663	0.248408
557.005	0.246927
557.347	0.245525
557.689	0.244177
558.030	0.242851
558.372	0.241510
558.713	0.240191
559.055	0.238904
559.396	0.237632
559.738	0.236240
560.079	0.234892
560.421	0.233537
560.762	0.232249
561.103	0.230926
561.444	0.229613
561.786	0.228321
562.127	0.227069
562.468	0.225780
562.809	0.224402
563.150	0.223013
563.491	0.221556
563.832	0.220080
564.173	0.218579
564.514	0.216965
564.855	0.215319
565.195	0.213631
565.536	0.211952
565.877	0.210258
566.218	0.208585
566.558	0.206981
566.899	0.205499
567.239	0.204136
567.580	0.202902
567.920	0.201833
568.261	0.200863
568.601	0.199949
568.941	0.199102
569.282	0.198300
569.622	0.197510
569.962	0.196714
570.302	0.195971
570.643	0.195287
570.983	0.194684
571.323	0.194132
571.663	0.193623
572.003	0.193079
572.343	0.192529
572.683	0.191858
573.022	0.191159
573.362	0.190426
573.702	0.189715
574.042	0.189043
574.381	0.188387
574.721	0.187737
575.061	0.187125
575.400	0.186593
575.740	0.186030
576.079	0.185464
576.419	0.184803
576.758	0.184070
577.097	0.183309
577.437	0.182490
577.776	0.181615
578.115	0.180758
578.454	0.179916
578.794	0.179230
579.133	0.178658
579.472	0.178179
579.811	0.177756
580.150	0.177324
580.489	0.176885
580.828	0.176356
581.167	0.175805
581.505	0.175254
581.844	0.174719
582.183	0.174140
582.522	0.173550
582.860	0.172987
583.199	0.172445
583.538	0.171948
583.876	0.171522
584.215	0.171135
584.553	0.170769
584.891	0.170455
585.230	0.170101
585.568	0.169735
585.906	0.169214
586.245	0.168664
586.583	0.168072
586.921	0.167544
587.259	0.167094
587.597	0.166661
587.935	0.166242
588.273	0.165741
588.611	0.165145
588.949	0.164502
589.287	0.163826
589.625	0.163138
589.963	0.162510
590.300	0.161908
590.638	0.161404
590.976	0.160932
591.313	0.160400
591.651	0.159847
591.989	0.159268
592.326	0.158723
592.664	0.158275
593.001	0.157872
593.338	0.157483
593.676	0.157142
594.013	0.156784
594.350	0.156453
594.687	0.156145
595.025	0.155892
595.362	0.155629
595.699	0.155344
596.036	0.155049
596.373	0.154773
596.710	0.154483
597.047	0.154143
597.384	0.153813
597.720	0.153454
598.057	0.153050
598.394	0.152674
598.731	0.152290
599.067	0.151924
599.404	0.151517
599.741	0.151082
600.077	0.150690
600.414	0.150329
600.750	0.150026
601.087	0.149777
601.423	0.149484
601.759	0.149213
602.096	0.148902
602.432	0.148612
602.768	0.148339
603.104	0.148036
603.440	0.147757
603.776	0.147472
604.112	0.147207
604.448	0.146960
604.784	0.146737
605.120	0.146537
605.456	0.146331
605.792	0.146144
606.128	0.145935
606.463	0.145783
606.799	0.145596
607.135	0.145396
607.470	0.145218
607.806	0.144984
608.142	0.144745
608.477	0.144544
608.812	0.144293
609.148	0.144090
609.483	0.143879
609.819	0.143659
610.154	0.143431
610.489	0.143171
610.824	0.142923
611.159	0.142722
611.494	0.142481
611.830	0.142284
612.165	0.142145
612.500	0.142019
612.834	0.141897
613.169	0.141763
613.504	0.141584
613.839	0.141380
614.174	0.141185
614.509	0.140950
614.843	0.140753
615.178	0.140577
615.512	0.140431
615.847	0.140315
616.182	0.140210
616.516	0.140127
616.850	0.140036
617.185	0.139955
617.519	0.139823
617.853	0.139724
618.188	0.139494
618.522	0.139287
618.856	0.139040
619.190	0.138739
619.524	0.138478
619.858	0.138258
620.192	0.138065
620.526	0.137908
620.860	0.137819
621.194	0.137687
621.528	0.137548
621.862	0.137412
622.195	0.137276
622.529	0.137046
622.863	0.136840
623.196	0.136650
623.530	0.136477
623.864	0.136305
624.197	0.136121
624.530	0.135987
624.864	0.135807
625.197	0.135759
625.531	0.135644
625.864	0.135511
626.197	0.135397
626.530	0.135259
626.863	0.135083
627.196	0.134892
627.529	0.134711
627.862	0.134468
628.195	0.134226
628.528	0.134013
628.861	0.133704
629.194	0.133499
629.527	0.133299
629.860	0.133160
630.192	0.132910
630.525	0.132648
630.858	0.132416
631.190	0.132250
631.523	0.131971
631.855	0.131680
632.188	0.131373
632.520	0.131150
632.852	0.130924
633.185	0.130726
633.517	0.130557
633.849	0.130421
634.182	0.130345
634.514	0.130306
634.846	0.130272
635.178	0.130298
635.510	0.130280
635.842	0.130246
636.174	0.130094
636.506	0.130037
636.837	0.129870
637.169	0.129733
637.501	0.129611
637.833	0.129599
638.164	0.129426
638.496	0.129326
638.828	0.129188
639.159	0.129016
639.491	0.128804
639.822	0.128627
640.154	0.128296
640.485	0.127945
640.816	0.127612
641.147	0.127224
641.479	0.126796
641.810	0.126450
642.141	0.126103
642.472	0.125781
642.803	0.125487
643.134	0.125209
643.465	0.124995
643.796	0.124791
644.127	0.124640
644.458	0.124568
644.789	0.124418
645.119	0.124482
645.450	0.124620
645.781	0.124854
646.111	0.125155
646.442	0.125545
646.773	0.125735
647.103	0.125886
647.433	0.126031
647.764	0.126092
648.094	0.126215
648.425	0.126329
648.755	0.126454
649.085	0.126503
649.415	0.126619
649.745	0.126843
650.075	0.126997
650.405	0.127055
650.735	0.125814
651.065	0.117628
651.395	0.110561
651.725	0.098644
652.055	0.067539
652.385	0.050005
652.715	0.038736
653.044	0.030884
653.374	0.025118
653.704	0.020728
654.033	0.028589
654.363	0.034502
654.692	0.037919
655.022	0.039951
655.351	0.041203
655.680	0.041950
656.010	0.042356
656.339	0.042536
656.668	0.042584
656.997	0.042558
657.326	0.042481
657.655	0.042383
657.984	0.041820
658.313	0.038742
658.642	0.034958
658.971	0.040484
659.300	0.047552
659.629	0.056918
659.958	0.069893
660.286	0.089100
660.615	0.120464
660.944	0.125945
661.272	0.124717
661.601	0.124320
661.929	0.124342
662.258	0.124621
662.586	0.124861
662.915	0.124978
663.243	0.124882
663.571	0.124612
663.899	0.124403
664.228	0.124212
664.556	0.124188
664.884	0.124133
665.212	0.124106
665.540	0.124020
665.868	0.124046
666.196	0.124135
666.524	0.124177
666.852	0.124223
667.179	0.124148
667.507	0.124158
667.835	0.124327
668.162	0.124469
668.490	0.124545
668.818	0.124730
669.145	0.124896
669.473	0.125102
669.800	0.125387
670.127	0.125638
670.455	0.125769
670.782	0.125935
671.109	0.126087
671.436	0.126299
671.764	0.126477
672.091	0.126586
672.418	0.126704
672.745	0.126894
673.072	0.127012
673.399	0.127081
673.726	0.127219
674.053	0.127362
674.379	0.127424
674.706	0.127434
675.033	0.127370
675.359	0.127398
675.686	0.127466
676.013	0.127404
676.339	0.127421
676.666	0.127267
676.992	0.127207
677.318	0.127312
677.645	0.127345
677.971	0.127407
678.297	0.127394
678.624	0.127441
678.950	0.127489
679.276	0.127503
679.602	0.127439
679.928	0.127293
680.254	0.127182
680.580	0.127123
680.906	0.127120
681.232	0.127297
681.558	0.127425
681.883	0.127699
682.209	0.127970
682.535	0.128125
682.860	0.128354
683.186	0.128520
683.511	0.128693
683.837	0.128643
684.162	0.128665
684.488	0.128649
684.813	0.128710
685.138	0.128693
685.464	0.128678
685.789	0.128646
686.114	0.128674
686.439	0.128698
686.764	0.128789
687.089	0.128860
687.414	0.128957
687.739	0.129040
688.064	0.129073
688.389	0.129188
688.714	0.129202
689.039	0.129077
689.363	0.129063
689.688	0.129036
690.013	0.128963
690.337	0.128848
690.662	0.128964
690.986	0.129079
691.311	0.129203
691.635	0.129208
691.959	0.129256
692.284	0.129126
692.608	0.129071
692.932	0.129077
693.256	0.129137
693.580	0.129236
693.904	0.129352
694.228	0.129432
694.552	0.129577
694.876	0.129677
695.200	0.129606
695.524	0.129587
695.848	0.129636
696.172	0.129523
696.495	0.129390
696.819	0.129374
697.143	0.129278
697.466	0.129158
697.790	0.128856
698.113	0.128650
698.437	0.128442
698.760	0.128268
699.083	0.128327
699.407	0.128324
699.730	0.128322
700.053	0.128312
700.376	0.128239
700.699	0.128010
701.022	0.127843
701.345	0.127463
701.668	0.127016
701.991	0.126587
702.314	0.126005
702.637	0.125406
702.960	0.124910
703.283	0.124569
703.605	0.124208
703.928	0.124063
704.251	0.124035
704.573	0.124088
704.896	0.124041
705.218	0.124000
705.540	0.123928
705.863	0.123693
706.185	0.123404
706.507	0.123024
706.830	0.122590
707.152	0.122071
707.474	0.121655
707.796	0.121181
708.118	0.120845
708.440	0.120596
708.762	0.120462
709.084	0.120387
709.406	0.120317
709.728	0.120234
710.049	0.120065
710.371	0.119915
710.693	0.119735
711.014	0.119439
711.336	0.119213
711.658	0.119015
711.979	0.118885
712.301	0.118699
712.622	0.118635
712.943	0.118526
713.265	0.118500
713.586	0.118478
713.907	0.118521
714.228	0.118694
714.549	0.118783
714.870	0.118873
715.191	0.118891
715.512	0.118912
715.833	0.118983
716.154	0.118957
716.475	0.118952
716.796	0.118907
717.117	0.118693
717.437	0.118440
717.758	0.118236
718.078	0.117838
718.399	0.117499
718.719	0.117156
719.040	0.116851
719.360	0.116568
719.681	0.116371
720.001	0.116106
720.321	0.115919
720.642	0.115736
720.962	0.115421
721.282	0.115245
721.602	0.115136
721.922	0.115052
722.242	0.114862
722.562	0.114637
722.882	0.114507
723.202	0.114403
723.521	0.114338
723.841	0.114335
724.161	0.114298
724.481	0.114222
724.800	0.114279
725.120	0.114216
725.439	0.114129
725.759	0.114047
726.078	0.114026
726.398	0.113985
726.717	0.113990
727.036	0.113982
727.355	0.114097
727.675	0.114305
727.994	0.114446
728.313	0.114573
728.632	0.114661
728.951	0.114737
729.270	0.114711
729.589	0.114601
729.908	0.114453
730.226	0.114259
730.545	0.114104
730.864	0.113868
731.182	0.113709
731.501	0.113518
731.820	0.113454
732.138	0.113395
732.457	0.113279
732.775	0.113092
733.093	0.113010
733.412	0.112886
733.730	0.112842
734.048	0.112671
734.367	0.112346
734.685	0.112055
735.003	0.111674
735.321	0.111331
735.639	0.110993
735.957	0.110744
736.275	0.110520
736.593	0.110417
736.910	0.110298
737.228	0.110197
737.546	0.110149
737.863	0.109953
738.181	0.109752
738.499	0.109463
738.816	0.109212
739.134	0.108963
739.451	0.108785
739.768	0.108577
740.086	0.108297
740.403	0.107904
740.720	0.107571
741.038	0.107323
741.355	0.106987
741.672	0.106666
741.989	0.106272
742.306	0.105879
742.623	0.105436
742.940	0.104938
743.257	0.104225
743.573	0.103641
743.890	0.103055
744.207	0.102444
744.523	0.102084
744.840	0.101704
745.157	0.101366
745.473	0.100964
745.790	0.100697
746.106	0.100267
746.422	0.099876
746.739	0.099592
747.055	0.099408
747.371	0.099214
747.687	0.099110
748.004	0.099065
748.320	0.099084
748.636	0.099055
748.952	0.099025
749.268	0.099073
749.584	0.099164
749.899	0.099213
750.215	0.099245
750.531	0.099220
750.847	0.099309
751.162	0.099304
751.478	0.099274
751.793	0.099183
752.109	0.099046
752.424	0.098879
752.740	0.098781
753.055	0.098772
753.370	0.098750
753.686	0.098837
754.001	0.098982
754.316	0.099138
754.631	0.099319
754.946	0.099375
755.261	0.099526
755.576	0.099594
755.891	0.099502
756.206	0.099367
756.521	0.099255
756.836	0.099153
757.150	0.099067
757.465	0.098972
757.780	0.098869
758.094	0.098875
758.409	0.098902
758.723	0.098955
759.038	0.098949
759.352	0.098984
759.667	0.098866
759.981	0.098714
760.295	0.098440
760.609	0.098139
760.923	0.097845
761.238	0.097483
761.552	0.097209
761.866	0.096889
762.180	0.096672
762.493	0.096581
762.807	0.096439
763.121	0.096346
763.435	0.096178
763.749	0.095920
764.062	0.095670
764.376	0.095435
764.689	0.095099
765.003	0.094767
765.316	0.094570
765.630	0.094481
765.943	0.094283
766.257	0.094153
766.570	0.094030
766.883	0.093819
767.196	0.093577
767.509	0.093218
767.822	0.092875
768.135	0.092527
768.448	0.092224
768.761	0.091905
769.074	0.091542
769.387	0.091218
769.700	0.090875
770.013	0.090626
770.325	0.090469
770.638	0.090337
770.950	0.090135
771.263	0.089909
771.575	0.089697
771.888	0.089293
772.200	0.088924
772.513	0.088463
772.825	0.088045
773.137	0.087623
773.449	0.087296
773.761	0.086884
774.074	0.086577
774.386	0.086230
774.698	0.085898
775.010	0.085474
775.321	0.085076
775.633	0.084651
775.945	0.084529
776.257	0.084320
776.568	0.084098
776.880	0.083977
777.192	0.083790
777.503	0.083698
777.815	0.083716
778.126	0.083790
778.438	0.083898
778.749	0.084038
779.060	0.084272
779.372	0.084363
779.683	0.084457
779.994	0.084491
780.305	0.084600
780.616	0.084669
780.927	0.084797
781.238	0.084764
781.549	0.084787
781.860	0.084765
782.171	0.084848
782.481	0.084898
782.792	0.084870
783.103	0.084857
783.413	0.084767
783.724	0.084596
784.034	0.084448
784.345	0.084266
784.655	0.083995
784.966	0.083840
785.276	0.083629
785.586	0.083435
785.896	0.083301
786.207	0.083246
786.517	0.083228
786.827	0.083208
787.137	0.083097
787.447	0.082898
787.757	0.082932
788.066	0.082989
788.376	0.082993
788.686	0.082935
788.996	0.082810
789.305	0.082756
789.615	0.082691
789.925	0.082619
790.234	0.082658
790.544	0.082732
790.853	0.082707
791.162	0.082893
791.472	0.083030
791.781	0.083068
792.090	0.083102
792.399	0.083135
792.708	0.082899
793.017	0.082767
793.326	0.082517
793.635	0.082365
793.944	0.082228
794.253	0.081935
794.562	0.081684
794.871	0.081530
795.179	0.081362
795.488	0.081181
795.797	0.081152
796.105	0.081048
796.414	0.080997
796.722	0.080897
797.031	0.080764
797.339	0.080575
797.647	0.080172
797.956	0.079652
798.264	0.079164
798.572	0.078745
798.880	0.078235
799.188	0.078020
799.496	0.077669
799.804	0.077567
800.112	0.077426
800.420	0.077341
800.728	0.077327
801.035	0.077176
801.343	0.076766
801.651	0.076483
801.958	0.076176
802.266	0.075950
802.573	0.076018
802.881	0.076064
803.188	0.076093
803.496	0.076213
803.803	0.076517
804.110	0.076745
804.417	0.076892
804.724	0.076796
805.032	0.076773
805.339	0.076773
805.646	0.076689
805.953	0.076636
806.259	0.076648
806.566	0.076555
806.873	0.076619
807.180	0.076515
807.486	0.076540
807.793	0.076736
808.100	0.076864
808.406	0.076913
808.713	0.076925
809.019	0.076539
809.326	0.076173
809.632	0.075934
809.938	0.075329
810.244	0.074767
810.551	0.074274
810.857	0.073834
811.163	0.073759
811.469	0.073611
811.775	0.073597
812.081	0.073655
812.387	0.073704
812.692	0.073511
812.998	0.073705
813.304	0.073607
813.610	0.073835
813.915	0.073734
814.221	0.073740
814.526	0.073732
814.832	0.073906
815.137	0.073897
815.443	0.073984
815.748	0.074184
816.053	0.074107
816.358	0.074048
816.664	0.074125
816.969	0.074119
817.274	0.074209
817.579	0.074047
817.884	0.073876
818.189	0.073757
818.493	0.073554
818.798	0.073637
819.103	0.073555
819.408	0.073244
819.712	0.073008
820.017	0.072816
820.321	0.072628
820.626	0.072540
820.930	0.072309
821.235	0.071945
821.539	0.071749
821.843	0.071836
822.148	0.071643
822.452	0.071665
822.756	0.072094
823.060	0.072030
823.364	0.072228
823.668	0.072148
823.972	0.072345
824.276	0.072450
824.580	0.072526
824.883	0.072870
825.187	0.072757
825.491	0.072901
825.795	0.073001
826.098	0.073335
826.402	0.073178
826.705	0.073426
827.008	0.073244
827.312	0.073284
827.615	0.073146
827.918	0.072906
828.222	0.072569
828.525	0.072441
828.828	0.072618
829.131	0.072576
829.434	0.072564
829.737	0.072135
830.040	0.071595
830.343	0.071259
830.645	0.071112
830.948	0.070639
831.251	0.070194
831.553	0.069996
831.856	0.069674
832.159	0.069785
832.461	0.069491
832.764	0.069510
833.066	0.069208
833.368	0.069264
833.671	0.069120
833.973	0.069172
834.275	0.069234
834.577	0.069246
834.879	0.069103
835.181	0.068412
835.483	0.067872
835.785	0.067156
836.087	0.066852
836.389	0.067173
836.690	0.066853
836.992	0.066028
837.294	0.065684
837.595	0.064862
837.897	0.063979
838.198	0.063404
838.500	0.062380
838.801	0.061729
839.103	0.061517
839.404	0.060797
839.705	0.059892
840.006	0.059261
840.307	0.059496
840.608	0.059297
840.910	0.059259
841.210	0.059428
841.511	0.059785
841.812	0.060118
842.113	0.061136
842.414	0.060848
842.715	0.060221
843.015	0.059265
843.316	0.059025
843.616	0.058427
843.917	0.058050
844.217	0.058139
844.518	0.058260
844.818	0.057901
845.118	0.057648
845.419	0.057516
845.719	0.057491
846.019	0.057408
846.319	0.057411
846.619	0.056903
846.919	0.056987
847.219	0.056805
847.519	0.056129
847.819	0.056140
848.118	0.055139
848.418	0.053998
848.718	0.054278
849.017	0.054765
849.317	0.055687
849.616	0.056608
849.916	0.057653
850.215	0.058817
850.515	0.059201
850.814	0.059778
851.113	0.060733
851.412	0.061458
851.712	0.061724
852.011	0.061980
852.310	0.062709
852.609	0.062964
852.908	0.063388
853.206	0.063613
853.505	0.064078
853.804	0.064320
854.103	0.064589
854.401	0.065088
854.700	0.065469
854.999	0.065471
855.297	0.065316
855.595	0.065567
855.894	0.065537
856.192	0.065464
856.491	0.065386
856.789	0.065404
857.087	0.065056
857.385	0.064742
857.683	0.064446
857.981	0.064223
858.279	0.064160
858.577	0.063335
858.875	0.062995
859.173	0.062155
859.471	0.062047
859.768	0.061698
860.066	0.061673
860.363	0.060782
860.661	0.059780
860.959	0.059886
861.256	0.060311
861.553	0.060741
861.851	0.059939
862.148	0.059311
862.445	0.058858
862.742	0.058409
863.039	0.057538
863.337	0.057373
863.634	0.056455
863.931	0.055483
864.227	0.055140
864.524	0.055095
864.821	0.055070
865.118	0.054695
865.415	0.054307
865.711	0.054067
866.008	0.053127
866.304	0.052707
866.601	0.052581
866.897	0.052664
867.194	0.051947
867.490	0.051596
867.786	0.051463
868.082	0.051921
868.379	0.052790
868.675	0.052650
868.971	0.052559
869.267	0.053021
869.563	0.053720
869.859	0.053957
870.154	0.054165
870.450	0.054438
870.746	0.054308
871.042	0.054849
871.337	0.055060
871.633	0.055732
871.928	0.055286
872.224	0.055252
872.519	0.054596
872.815	0.054705
873.110	0.055044
873.405	0.054777
873.700	0.054509
873.995	0.054476
874.291	0.054056
874.586	0.053823
874.881	0.054043
875.175	0.054157
875.470	0.054534
875.765	0.054171
876.060	0.054359
876.355	0.054973
876.649	0.054816
876.944	0.054644
877.238	0.054711
877.533	0.055207
877.827	0.055567
878.122	0.056233
878.416	0.056694
878.710	0.057421
879.005	0.057199
879.299	0.056712
879.593	0.056982
879.887	0.056870
880.181	0.056336
880.475	0.056527
880.769	0.056222
881.063	0.056004
881.356	0.055886
881.650	0.055643
881.944	0.055334
882.238	0.045698
882.531	0.061300
882.825	0.050842
883.118	0.041386
883.412	0.051671
883.705	0.049469
883.998	0.047138
884.291	0.052786
884.585	0.049490
884.878	0.049504
>>>>>>>>>> END of Data <<<<<<<<<<
>>>>>>>>>> Raw Data Start <<<<<<<<
190.664	-399
191.040	5
191.415	5
191.791	7
192.166	9
192.542	8
192.917	5
193.293	10
193.668	1
194.044	6
194.419	-11
194.794	8
195.170	9
195.545	9
195.920	10
196.296	10
196.671	11
197.046	11
197.421	12
197.796	13
198.171	14
198.546	14
198.922	15
199.297	15
199.672	16
200.047	16
200.422	17
200.796	17
201.171	17
201.546	18
201.921	17
202.296	17
202.671	18
203.045	18
203.420	18
203.795	18
204.170	18
204.544	18
204.919	18
205.294	18
205.668	18
206.043	17
206.417	17
206.792	17
207.166	17
207.541	17
207.915	17
208.289	17
208.664	16
209.038	16
209.412	16
209.787	16
210.161	16
210.535	16
210.909	16
211.284	16
211.658	16
212.032	16
212.406	16
212.780	16
213.154	16
213.528	16
213.902	16
214.276	16
214.650	16
215.024	16
215.398	16
215.772	16
216.145	16
216.519	16
216.893	16
217.267	16
217.640	16
218.014	17
218.388	17
218.761	17
219.135	17
219.508	17
219.882	17
220.256	18
220.629	18
221.003	17
221.376	17
221.749	18
222.123	18
222.496	18
222.869	18
223.243	18
223.616	18
223.989	18
224.362	18
224.736	18
225.109	19
225.482	18
225.855	18
226.228	18
226.601	18
226.974	18
227.347	17
227.720	18
228.093	18
228.466	18
228.839	18
229.212	18
229.585	18
229.957	18
230.330	18
230.703	18
231.076	18
231.448	18
231.821	17
232.194	17
232.566	17
232.939	17
233.311	17
233.684	17
234.056	17
234.429	17
234.801	16
235.174	17
235.546	17
235.918	17
236.291	17
236.663	17
237.035	17
237.408	17
237.780	17
238.152	17
238.524	18
238.896	18
239.268	18
239.641	18
240.013	18
240.385	18
240.757	19
241.129	19
241.500	19
241.872	19
242.244	19
242.616	19
242.988	19
243.360	19
243.731	19
244.103	19
244.475	18
244.847	19
245.218	19
245.590	19
245.961	19
246.333	19
246.705	19
247.076	19
247.448	19
247.819	19
248.190	19
248.562	19
248.933	19
249.305	19
249.676	19
250.047	19
250.418	19
250.790	20
251.161	20
251.532	20
251.903	20
252.274	20
252.645	19
253.016	19
253.387	20
253.758	20
254.129	20
254.500	20
254.871	20
255.242	20
255.613	20
255.984	20
256.355	20
256.725	20
257.096	20
257.467	20
257.838	19
258.208	20
258.579	20
258.949	20
259.320	20
259.690	20
260.061	20
260.431	20
260.802	20
261.172	20
261.543	20
261.913	20
262.283	21
262.654	21
263.024	20
263.394	20
263.764	20
264.135	21
264.505	21
264.875	21
265.245	21
265.615	21
265.985	20
266.355	20
266.725	21
267.095	21
267.465	21
267.835	21
268.205	21
268.575	21
268.944	21
269.314	21
269.684	21
270.054	20
270.423	20
270.793	21
271.163	21
271.532	20
271.902	20
272.271	20
272.641	20
273.010	21
273.380	21
273.749	21
274.119	21
274.488	21
274.857	21
275.227	21
275.596	21
275.965	21
276.335	21
276.704	21
277.073	21
277.442	21
277.811	22
278.180	22
278.549	21
278.918	22
279.287	22
279.656	22
280.025	22
280.394	22
280.763	22
281.132	21
281.501	22
281.869	21
282.238	21
282.607	21
282.976	21
283.344	21
283.713	21
284.081	21
284.450	21
284.819	21
285.187	21
285.556	21
285.924	21
286.292	21
286.661	21
287.029	21
287.398	21
287.766	21
288.134	21
288.502	21
288.871	21
289.239	21
289.607	21
289.975	21
290.343	21
290.711	21
291.079	21
291.447	21
291.815	21
292.183	21
292.551	21
292.919	21
293.287	21
293.655	21
294.022	21
294.390	21
294.758	21
295.126	21
295.493	21
295.861	21
296.229	21
296.596	21
296.964	21
297.331	21
297.699	21
298.066	22
298.434	22
298.801	21
299.168	21
299.536	22
299.903	22
300.270	21
300.638	22
301.005	22
301.372	22
301.739	22
302.106	22
302.473	23
302.840	23
303.207	23
303.574	23
303.941	23
304.308	23
304.675	23
305.042	23
305.409	23
305.776	23
306.143	23
306.509	24
306.876	25
307.243	25
307.610	25
307.976	25
308.343	26
308.709	26
309.076	26
309.442	27
309.809	27
310.175	27
310.542	28
310.908	29
311.275	30
311.641	30
312.007	31
312.373	32
312.740	33
313.106	34
313.472	35
313.838	36
314.204	37
314.570	39
314.936	40
315.302	42
315.668	44
316.034	45
316.400	47
316.766	49
317.132	50
317.498	52
317.864	54
318.230	57
318.595	59
318.961	61
319.327	64
319.692	66
320.058	69
320.424	72
320.789	75
321.155	79
321.520	82
321.886	85
322.251	89
322.616	93
322.982	98
323.347	103
323.712	107
324.078	112
324.443	117
324.808	123
325.173	128
325.539	133
325.904	138
326.269	144
326.634	149
326.999	154
327.364	160
327.729	166
328.094	172
328.459	177
328.823	183
329.188	189
329.553	195
329.918	201
330.283	206
330.647	212
331.012	218
331.377	224
331.741	230
332.106	236
332.470	242
332.835	248
333.199	255
333.564	261
333.928	267
334.293	274
334.657	281
335.021	287
335.386	294
335.750	300
336.114	307
336.478	314
336.843	321
337.207	327
337.571	334
337.935	340
338.299	347
338.663	354
339.027	360
339.391	366
339.755	373
340.119	379
340.483	386
340.846	392
341.210	398
341.574	404
341.938	410
342.301	416
342.665	422
343.029	428
343.392	434
343.756	439
344.119	445
344.483	451
344.846	456
345.210	462
345.573	467
345.937	472
346.300	477
346.663	483
347.027	488
347.390	493
347.753	498
348.116	502
348.479	507
348.843	512
349.206	517
349.569	522
349.932	527
350.295	531
350.658	535
351.021	539
351.383	543
351.746	547
352.109	551
352.472	555
352.835	559
353.197	562
353.560	566
353.923	570
354.285	573
354.648	577
355.011	580
355.373	584
355.736	587
356.098	591
356.461	594
356.823	597
357.185	600
357.548	603
357.910	605
358.272	609
358.635	612
358.997	616
359.359	618
359.721	622
360.083	624
360.445	627
360.807	630
361.169	633
361.531	636
361.893	638
362.255	641
362.617	644
362.979	647
363.341	650
363.703	653
364.064	656
364.426	659
364.788	663
365.149	665
365.511	669
365.873	671
366.234	673
366.596	675
366.957	677
367.319	679
367.680	681
368.042	683
368.403	685
368.764	686
369.126	687
369.487	688
369.848	689
370.209	690
370.570	691
370.931	692
371.293	693
371.654	693
372.015	693
372.376	694
372.737	695
373.098	696
373.458	697
373.819	699
374.180	700
374.541	702
374.902	705
375.263	708
375.623	711
375.984	714
376.345	717
376.705	720
377.066	723
377.426	725
377.787	728
378.147	731
378.508	733
378.868	735
379.228	738
379.589	741
379.949	743
380.309	745
380.670	747
381.030	750
381.390	752
381.750	754
382.110	756
382.470	757
382.830	758
383.190	760
383.550	762
383.910	764
384.270	767
384.630	770
384.990	773
385.350	777
385.709	780
386.069	783
386.429	785
386.788	787
387.148	789
387.508	792
387.867	795
388.227	798
388.586	802
388.946	807
389.305	813
389.665	818
390.024	824
390.383	829
390.743	834
391.102	838
391.461	842
391.820	844
392.179	847
392.539	849
392.898	852
393.257	855
393.616	859
393.975	865
394.334	872
394.693	879
395.051	887
395.410	894
395.769	900
396.128	904
396.487	908
396.845	911
397.204	914
397.563	916
397.921	917
398.280	919
398.638	922
398.997	924
399.355	927
399.714	930
400.072	933
400.431	937
400.789	940
401.147	944
401.506	948
401.864	950
402.222	953
402.580	954
402.938	954
403.297	955
403.655	955
404.013	955
404.371	956
404.729	957
405.087	959
405.444	962
405.802	965
406.160	968
406.518	971
406.876	974
407.233	977
407.591	980
407.949	982
408.306	985
408.664	988
409.022	990
409.379	993
409.737	996
410.094	1000
410.451	1004
410.809	1008
411.166	1013
411.523	1018
411.881	1023
412.238	1027
412.595	1032
412.952	1035
413.310	1038
413.667	1041
414.024	1045
414.381	1048
414.738	1052
415.095	1057
415.452	1062
415.809	1066
416.165	1070
416.522	1075
416.879	1081
417.236	1088
417.593	1098
417.949	1108
418.306	1121
418.663	1134
419.019	1148
419.376	1162
419.732	1175
420.089	1187
420.445	1199
420.802	1211
421.158	1223
421.514	1231
421.871	1241
422.227	1250
422.583	1257
422.939	1264
423.295	1272
423.652	1279
424.008	1286
424.364	1292
424.720	1295
425.076	1299
425.432	1303
425.788	1307
426.143	1312
426.499	1319
426.855	1327
427.211	1334
427.567	1343
427.922	1350
428.278	1354
428.634	1357
428.989	1362
429.345	1367
429.700	1374
430.056	1382
430.411	1390
430.767	1400
431.122	1409
431.478	1417
431.833	1423
432.188	1430
432.543	1436
432.899	1441
433.254	1444
433.609	1446
433.964	1446
434.319	1446
434.674	1447
435.029	1449
435.384	1454
435.739	1460
436.094	1469
436.449	1479
436.804	1492
437.158	1505
437.513	1520
437.868	1538
438.223	1554
438.577	1574
438.932	1593
439.287	1615
439.641	1635
439.996	1655
440.350	1676
440.704	1696
441.059	1716
441.413	1737
441.768	1757
442.122	1776
442.476	1794
442.830	1811
443.185	1830
443.539	1846
443.893	1863
444.247	1876
444.601	1887
444.955	1895
445.309	1899
445.663	1903
446.017	1906
446.371	1908
446.724	1908
447.078	1907
447.432	1906
447.786	1903
448.139	1899
448.493	1895
448.847	1890
449.200	1885
449.554	1879
449.907	1874
450.261	1869
450.614	1863
450.968	1858
451.321	1852
451.674	1849
452.027	1844
452.381	1841
452.734	1840
453.087	1837
453.440	1836
453.793	1837
454.146	1840
454.499	1848
454.852	1857
455.205	1868
455.558	1880
455.911	1892
456.264	1905
456.617	1916
456.970	1927
457.322	1936
457.675	1944
458.028	1952
458.380	1957
458.733	1962
459.086	1968
459.438	1976
459.791	1984
460.143	1995
460.496	2011
460.848	2027
461.200	2046
461.553	2065
461.905	2083
462.257	2098
462.609	2112
462.961	2123
463.314	2134
463.666	2141
464.018	2147
464.370	2154
464.722	2163
465.074	2172
465.426	2178
465.777	2186
466.129	2190
466.481	2192
466.833	2192
467.184	2189
467.536	2183
467.888	2174
468.239	2165
468.591	2156
468.943	2148
469.294	2141
469.646	2139
469.997	2139
470.348	2145
470.700	2154
471.051	2169
471.402	2187
471.754	2209
472.105	2233
472.456	2259
472.807	2289
473.158	2322
473.509	2358
473.860	2399
474.211	2439
474.562	2483
474.913	2528
475.264	2576
475.615	2622
475.966	2669
476.316	2714
476.667	2759
477.018	2804
477.368	2852
477.719	2898
478.070	2943
478.420	2985
478.771	3026
479.121	3066
479.472	3107
479.822	3148
480.172	3194
480.523	3248
480.873	3325
481.223	3456
481.573	3654
481.924	3902
482.274	4182
482.624	4476
482.974	4771
483.324	5026
483.674	5218
484.024	5347
484.374	5430
484.724	5481
485.073	5515
485.423	5543
485.773	5568
486.123	5591
486.472	5614
486.822	5634
487.172	5652
487.521	5663
487.871	5664
488.220	5639
488.570	5557
488.919	5410
489.268	5210
489.618	4978
489.967	4729
490.316	4478
490.666	4260
491.015	4103
491.364	4005
491.713	3953
492.062	3931
492.411	3926
492.760	3929
493.109	3935
493.458	3940
493.807	3944
494.156	3946
494.505	3947
494.853	3950
495.202	3957
495.551	3970
495.900	3982
496.248	3997
496.597	4011
496.945	4024
497.294	4036
497.642	4051
497.991	4068
498.339	4091
498.688	4115
499.036	4138
499.384	4158
499.732	4176
500.081	4188
500.429	4198
500.777	4206
501.125	4214
501.473	4221
501.821	4231
502.169	4239
502.517	4244
502.865	4244
503.213	4242
503.561	4238
503.908	4232
504.256	4224
504.604	4215
504.952	4204
505.299	4191
505.647	4174
505.994	4154
506.342	4134
506.689	4113
507.037	4093
507.384	4078
507.732	4065
508.079	4053
508.426	4041
508.774	4031
509.121	4017
509.468	4004
509.815	3989
510.162	3976
510.509	3962
510.856	3947
511.203	3930
511.550	3915
511.897	3901
512.244	3886
512.591	3872
512.938	3858
513.284	3845
513.631	3829
513.978	3814
514.324	3797
514.671	3779
515.018	3761
515.364	3746
515.711	3731
516.057	3715
516.403	3700
516.750	3684
517.096	3666
517.443	3646
517.789	3627
518.135	3608
518.481	3592
518.827	3576
519.173	3558
519.519	3542
519.865	3527
520.211	3513
520.557	3499
520.903	3487
521.249	3475
521.595	3465
521.941	3453
522.287	3443
522.632	3432
522.978	3422
523.324	3413
523.669	3407
524.015	3403
524.360	3404
524.706	3409
525.051	3418
525.397	3430
525.742	3442
526.087	3456
526.433	3469
526.778	3479
527.123	3487
527.468	3492
527.813	3496
528.158	3500
528.504	3507
528.849	3520
529.193	3538
529.538	3559
529.883	3587
530.228	3620
530.573	3658
530.918	3697
531.263	3736
531.607	3771
531.952	3802
532.296	3826
532.641	3845
532.986	3858
533.330	3871
533.675	3884
534.019	3904
534.363	3930
534.708	3962
535.052	4001
535.396	4042
535.741	4082
536.085	4114
536.429	4144
536.773	4167
537.117	4183
537.461	4196
537.805	4206
538.149	4217
538.493	4230
538.837	4245
539.181	4265
539.524	4292
539.868	4325
540.212	4364
540.556	4405
540.899	4447
541.243	4485
541.586	4514
541.930	4534
542.273	4546
542.617	4553
542.960	4560
543.304	4574
543.647	4594
543.990	4624
544.333	4658
544.677	4693
545.020	4726
545.363	4751
545.706	4767
546.049	4776
546.392	4775
546.735	4765
547.078	4753
547.421	4741
547.764	4732
548.106	4724
548.449	4721
548.792	4727
549.135	4742
549.477	4764
549.820	4785
550.162	4800
550.505	4809
550.847	4811
551.190	4805
551.532	4795
551.875	4786
552.217	4779
552.559	4777
552.901	4783
553.244	4793
553.586	4807
553.928	4822
554.270	4833
554.612	4840
554.954	4842
555.296	4839
555.638	4837
555.980	4834
556.322	4835
556.663	4845
557.005	4866
557.347	4898
557.689	4933
558.030	4968
558.372	4998
558.713	5024
559.055	5047
559.396	5068
559.738	5092
560.079	5119
560.421	5153
560.762	5195
561.103	5243
561.444	5299
561.786	5357
562.127	5421
562.468	5491
562.809	5569
563.150	5657
563.491	5753
563.832	5859
564.173	5982
564.514	6126
564.855	6301
565.195	6520
565.536	6786
565.877	7099
566.218	7456
566.558	7861
566.899	8305
567.239	8785
567.580	9287
567.920	9802
568.261	10320
568.601	10850
568.941	11397
569.282	11958
569.622	12539
569.962	13142
570.302	13784
570.643	14443
570.983	15106
571.323	15741
571.663	16348
572.003	16921
572.343	17451
572.683	17943
573.022	18439
573.362	18958
573.702	19493
574.042	20023
574.381	20527
574.721	21002
575.061	21454
575.400	21858
575.740	22210
576.079	22515
576.419	22817
576.758	23165
577.097	23583
577.437	24042
577.776	24535
578.115	25050
578.454	25576
578.794	26053
579.133	26411
579.472	26639
579.811	26749
580.150	26747
580.489	26658
580.828	26531
581.167	26406
581.505	26303
581.844	26210
582.183	26120
582.522	26051
582.860	25998
583.199	25948
583.538	25863
583.876	25696
584.215	25422
584.553	25027
584.891	24522
585.230	23916
585.568	23253
585.906	22587
586.245	21986
586.583	21469
586.921	21039
587.259	20649
587.597	20259
587.935	19856
588.273	19443
588.611	19056
588.949	18709
589.287	18413
589.625	18174
589.963	17979
590.300	17819
590.638	17670
590.976	17507
591.313	17324
591.651	17148
591.989	16995
592.326	16867
592.664	16754
593.001	16657
593.338	16591
593.676	16549
594.013	16539
594.350	16580
594.687	16665
595.025	16762
595.362	16847
595.699	16902
596.036	16928
596.373	16917
596.710	16862
597.047	16778
597.384	16681
597.720	16575
598.057	16488
598.394	16419
598.731	16372
599.067	16352
599.404	16363
599.741	16413
600.077	16490
600.414	16580
600.750	16675
601.087	16743
601.423	16769
601.759	16756
602.096	16712
602.432	16649
602.768	16559
603.104	16442
603.440	16299
603.776	16150
604.112	15990
604.448	15828
604.784	15658
605.120	15477
605.456	15302
605.792	15120
606.128	14931
606.463	14735
606.799	14539
607.135	14360
607.470	14182
607.806	14007
608.142	13837
608.477	13673
608.812	13516
609.148	13358
609.483	13192
609.819	13023
610.154	12862
610.489	12713
610.824	12582
611.159	12470
611.494	12357
611.830	12258
612.165	12161
612.500	12052
612.834	11928
613.169	11789
613.504	11637
613.839	11469
614.174	11280
614.509	11090
614.843	10900
615.178	10720
615.512	10541
615.847	10366
616.182	10192
616.516	10016
616.850	9832
617.185	9640
617.519	9447
617.853	9239
618.188	9025
618.522	8829
618.856	8661
619.190	8516
619.524	8387
619.858	8283
620.192	8201
620.526	8127
620.860	8054
621.194	7984
621.528	7915
621.862	7846
622.195	7765
622.529	7679
622.863	7590
623.196	7501
623.530	7411
623.864	7321
624.197	7230
624.530	7141
624.864	7062
625.197	6978
625.531	6885
625.864	6773
626.197	6654
626.530	6526
626.863	6381
627.196	6225
627.529	6067
627.862	5912
628.195	5759
628.528	5606
628.861	5462
629.194	5330
629.527	5206
629.860	5082
630.192	4961
630.525	4848
630.858	4742
631.190	4641
631.523	4544
631.855	4453
632.188	4374
632.520	4300
632.852	4230
633.185	4158
633.517	4088
633.849	4026
634.182	3968
634.514	3913
634.846	3863
635.178	3819
635.510	3780
635.842	3744
636.174	3710
636.506	3676
636.837	3642
637.169	3610
637.501	3575
637.833	3536
638.164	3494
638.496	3446
638.828	3393
639.159	3333
639.491	3269
639.822	3202
640.154	3135
640.485	3069
640.816	3003
641.147	2938
641.479	2876
641.810	2816
642.141	2757
642.472	2700
642.803	2642
643.134	2588
643.465	2540
643.796	2503
644.127	2475
644.458	2460
644.789	2459
645.119	2471
645.450	2493
645.781	2517
646.111	2542
646.442	2562
646.773	2579
647.103	2591
647.433	2602
647.764	2614
648.094	2629
648.425	2649
648.755	2674
649.085	2702
649.415	2732
649.745	2763
650.075	2795
650.405	2832
650.735	2911
651.065	3492
651.395	5298
651.725	8272
652.055	11912
652.385	15548
652.715	19182
653.044	22819
653.374	26461
653.704	30108
654.033	32893
654.363	34714
654.692	35923
655.022	36709
655.351	37223
655.680	37541
656.010	37714
656.339	37791
656.668	37811
656.997	37800
657.326	37768
657.655	37679
657.984	37078
658.313	35242
658.642	32228
658.971	28538
659.300	24848
659.629	21157
659.958	17468
660.286	13779
660.615	10091
660.944	7273
661.272	5423
661.601	4186
661.929	3370
662.258	2822
662.586	2463
662.915	2244
663.243	2117
663.571	2045
663.899	2001
664.228	1973
664.556	1954
664.884	1941
665.212	1931
665.540	1924
665.868	1920
666.196	1918
666.524	1916
666.852	1917
667.179	1924
667.507	1938
667.835	1959
668.162	1986
668.490	2020
668.818	2061
669.145	2104
669.473	2146
669.800	2186
670.127	2221
670.455	2249
670.782	2274
671.109	2295
671.436	2312
671.764	2326
672.091	2338
672.418	2348
672.745	2356
673.072	2364
673.399	2374
673.726	2383
674.053	2391
674.379	2393
674.706	2392
675.033	2390
675.359	2386
675.686	2379
676.013	2376
676.339	2377
676.666	2384
676.992	2401
677.318	2424
677.645	2451
677.971	2476
678.297	2499
678.624	2522
678.950	2543
679.276	2562
679.602	2582
679.928	2602
680.254	2627
680.580	2659
680.906	2700
681.232	2750
681.558	2803
681.883	2855
682.209	2904
682.535	2949
682.860	2989
683.186	3023
683.511	3050
683.837	3067
684.162	3080
684.488	3090
684.813	3101
685.138	3111
685.464	3119
685.789	3126
686.114	3133
686.439	3143
686.764	3153
687.089	3160
687.414	3159
687.739	3149
688.064	3130
688.389	3104
688.714	3074
689.039	3043
689.363	3009
689.688	2973
690.013	2937
690.337	2906
690.662	2880
690.986	2856
691.311	2831
691.635	2807
691.959	2785
692.284	2770
692.608	2765
692.932	2769
693.256	2778
693.580	2788
693.904	2802
694.228	2820
694.552	2835
694.876	2842
695.200	2839
695.524	2826
695.848	2807
696.172	2784
696.495	2759
696.819	2733
697.143	2706
697.466	2679
697.790	2657
698.113	2641
698.437	2633
698.760	2631
699.083	2629
699.407	2621
699.730	2607
700.053	2585
700.376	2555
700.699	2513
701.022	2460
701.345	2403
701.668	2350
701.991	2306
702.314	2275
702.637	2261
702.960	2266
703.283	2289
703.605	2330
703.928	2386
704.251	2449
704.573	2512
704.896	2569
705.218	2615
705.540	2652
705.863	2681
706.185	2705
706.507	2726
706.830	2745
707.152	2766
707.474	2788
707.796	2813
708.118	2840
708.440	2865
708.762	2887
709.084	2904
709.406	2913
709.728	2915
710.049	2909
710.371	2896
710.693	2876
711.014	2855
711.336	2833
711.658	2814
711.979	2797
712.301	2782
712.622	2765
712.943	2745
713.265	2721
713.586	2696
713.907	2672
714.228	2651
714.549	2634
714.870	2622
715.191	2616
715.512	2615
715.833	2611
716.154	2604
716.475	2591
716.796	2574
717.117	2549
717.437	2521
717.758	2488
718.078	2456
718.399	2423
718.719	2395
719.040	2370
719.360	2351
719.681	2337
720.001	2328
720.321	2323
720.642	2321
720.962	2323
721.282	2329
721.602	2336
721.922	2344
722.242	2355
722.562	2370
722.882	2388
723.202	2405
723.521	2420
723.841	2436
724.161	2452
724.481	2469
724.800	2485
725.120	2507
725.439	2533
725.759	2563
726.078	2597
726.398	2638
726.717	2689
727.036	2746
727.355	2807
727.675	2865
727.994	2921
728.313	2975
728.632	3022
728.951	3060
729.270	3093
729.589	3125
729.908	3163
730.226	3206
730.545	3254
730.864	3306
731.182	3362
731.501	3419
731.820	3472
732.138	3519
732.457	3560
732.775	3598
733.093	3629
733.412	3647
733.730	3651
734.048	3643
734.367	3627
734.685	3605
735.003	3580
735.321	3558
735.639	3539
735.957	3525
736.275	3512
736.593	3493
736.910	3463
737.228	3422
737.546	3369
737.863	3308
738.181	3239
738.499	3168
738.816	3097
739.134	3028
739.451	2957
739.768	2886
740.086	2818
740.403	2755
740.720	2697
741.038	2642
741.355	2589
741.672	2536
741.989	2483
742.306	2427
742.623	2370
742.940	2314
743.257	2263
743.573	2217
743.890	2181
744.207	2154
744.523	2134
744.840	2121
745.157	2113
745.473	2112
745.790	2120
746.106	2137
746.422	2162
746.739	2193
747.055	2230
747.371	2273
747.687	2317
748.004	2359
748.320	2396
748.636	2429
748.952	2462
749.268	2495
749.584	2527
749.899	2555
750.215	2585
750.531	2619
750.847	2655
751.162	2693
751.478	2730
751.793	2768
752.109	2809
752.424	2853
752.740	2897
753.055	2948
753.370	3008
753.686	3078
754.001	3154
754.316	3234
754.631	3317
754.946	3407
755.261	3500
755.576	3591
755.891	3679
756.206	3767
756.521	3859
756.836	3952
757.150	4043
757.465	4123
757.780	4191
758.094	4249
758.409	4293
758.723	4321
759.038	4333
759.352	4333
759.667	4321
759.981	4301
760.295	4280
760.609	4264
760.923	4254
761.238	4249
761.552	4245
761.866	4240
762.180	4233
762.493	4210
762.807	4167
763.121	4100
763.435	4016
763.749	3923
764.062	3836
764.376	3764
764.689	3714
765.003	3688
765.316	3684
765.630	3696
765.943	3718
766.257	3743
766.570	3764
766.883	3770
767.196	3761
767.509	3737
767.822	3702
768.135	3657
768.448	3607
768.761	3554
769.074	3509
769.387	3474
769.700	3453
770.013	3440
770.325	3430
770.638	3414
770.950	3386
771.263	3342
771.575	3279
771.888	3199
772.200	3105
772.513	3004
772.825	2897
773.137	2788
773.449	2680
773.761	2576
774.074	2480
774.386	2393
774.698	2322
775.010	2263
775.321	2221
775.633	2193
775.945	2177
776.257	2168
776.568	2166
776.880	2173
777.192	2189
777.503	2213
777.815	2242
778.126	2280
778.438	2326
778.749	2376
779.060	2423
779.372	2469
779.683	2512
779.994	2552
780.305	2583
780.616	2605
780.927	2618
781.238	2623
781.549	2617
781.860	2600
782.171	2577
782.481	2550
782.792	2523
783.103	2497
783.413	2468
783.724	2438
784.034	2409
784.345	2382
784.655	2358
784.966	2333
785.276	2307
785.586	2281
785.896	2255
786.207	2228
786.517	2199
786.827	2171
787.137	2144
787.447	2119
787.757	2094
788.066	2070
788.376	2047
788.686	2025
788.996	2002
789.305	1979
789.615	1961
789.925	1951
790.234	1948
790.544	1953
790.853	1963
791.162	1972
791.472	1981
791.781	1985
792.090	1981
792.399	1969
792.708	1951
793.017	1930
793.326	1910
793.635	1892
793.944	1874
794.253	1859
794.562	1849
794.871	1842
795.179	1838
795.488	1832
795.797	1822
796.105	1805
796.414	1778
796.722	1742
797.031	1695
797.339	1639
797.647	1576
797.956	1511
798.264	1449
798.572	1398
798.880	1359
799.188	1330
799.496	1309
799.804	1293
800.112	1281
800.420	1271
800.728	1260
801.035	1247
801.343	1233
801.651	1221
801.958	1218
802.266	1223
802.573	1233
802.881	1246
803.188	1262
803.496	1280
803.803	1298
804.110	1315
804.417	1329
804.724	1343
805.032	1355
805.339	1365
805.646	1372
805.953	1375
806.259	1376
806.566	1374
806.873	1368
807.180	1361
807.486	1354
807.793	1345
808.100	1331
808.406	1309
808.713	1278
809.019	1244
809.326	1209
809.632	1175
809.938	1144
810.244	1115
810.551	1091
810.857	1071
811.163	1053
811.469	1034
811.775	1014
812.081	993
812.387	974
812.692	959
812.998	947
813.304	938
813.610	930
813.915	924
814.221	919
814.526	915
814.832	911
815.137	907
815.443	901
815.748	891
816.053	879
816.358	867
816.664	856
816.969	846
817.274	837
817.579	830
817.884	826
818.189	825
818.493	824
818.798	822
819.103	817
819.408	809
819.712	799
820.017	789
820.321	778
820.626	767
820.930	757
821.235	751
821.539	748
821.843	748
822.148	750
822.452	751
822.756	750
823.060	747
823.364	742
823.668	736
823.972	728
824.276	720
824.580	714
824.883	710
825.187	709
825.491	708
825.795	708
826.098	708
826.402	707
826.705	704
827.008	699
827.312	692
827.615	680
827.918	666
828.222	651
828.525	634
828.828	619
829.131	603
829.434	587
829.737	572
830.040	561
830.343	552
830.645	543
830.948	535
831.251	527
831.553	520
831.856	514
832.159	508
832.461	502
832.764	494
833.066	487
833.368	482
833.671	477
833.973	474
834.275	470
834.577	467
834.879	463
835.181	459
835.483	454
835.785	448
836.087	440
836.389	430
836.690	419
836.992	408
837.294	395
837.595	383
837.897	369
838.198	356
838.500	344
838.801	333
839.103	323
839.404	315
839.705	308
840.006	302
840.307	297
840.608	294
840.910	291
841.210	289
841.511	287
841.812	284
842.113	280
842.414	276
842.715	271
843.015	266
843.316	260
843.616	255
843.917	250
844.217	245
844.518	241
844.818	238
845.118	237
845.419	236
845.719	234
846.019	233
846.319	232
846.619	231
846.919	230
847.219	229
847.519	227
847.819	226
848.118	227
848.418	230
848.718	237
849.017	248
849.317	263
849.616	282
849.916	304
850.215	329
850.515	356
850.814	382
851.113	406
851.412	427
851.712	446
852.011	464
852.310	481
852.609	496
852.908	509
853.206	521
853.505	531
853.804	541
854.103	549
854.401	554
854.700	556
854.999	554
855.297	548
855.595	536
855.894	521
856.192	502
856.491	480
856.789	456
857.087	431
857.385	408
857.683	388
857.981	369
858.279	352
858.577	335
858.875	321
859.173	310
859.471	300
859.768	292
860.066	285
860.363	280
860.661	275
860.959	272
861.256	268
861.553	263
861.851	258
862.148	253
862.445	248
862.742	244
863.039	240
863.337	236
863.634	234
863.931	232
864.227	231
864.524	230
864.821	230
865.118	229
865.415	228
865.711	224
866.008	221
866.304	217
866.601	212
866.897	208
867.194	206
867.490	203
867.786	202
868.082	202
868.379	202
868.675	203
868.971	203
869.267	203
869.563	203
869.859	202
870.154	201
870.450	200
870.746	199
871.042	198
871.337	197
871.633	197
871.928	198
872.224	200
872.519	202
872.815	203
873.110	203
873.405	203
873.700	202
873.995	202
874.291	202
874.586	203
874.881	204
875.175	206
875.470	209
875.765	213
876.060	217
876.355	221
876.649	225
876.944	230
877.238	234
877.533	237
877.827	240
878.122	241
878.416	242
878.710	242
879.005	242
879.299	241
879.593	240
879.887	238
880.181	238
880.475	236
880.769	234
881.063	232
881.356	230
881.650	227
881.944	223
882.238	187
882.531	174
882.825	174
883.118	181
883.412	180
883.705	178
883.998	185
884.291	188
884.585	190
884.878	198
>>>>>>>>>> END of Data <<<<<<<<<<