Date	2021年06月15日火曜日 04時40分50秒
Spectrometers	USB2+H05879
ダーク	使用
リファレンス	使用
積分時間[msec]	10
平均回数	280
ｽﾑｰｼﾞﾝｸﾞ	10
Electrical Dark	USE
ピクセル数	2048
計測モード	吸光度
保存開始波長[nm]	190.664
保存終了波長[nm]	884.878
保存ﾋﾟｯﾁ波長[nm]	全波長

>>>>>>>>>> Data Start <<<<<<<<<<<<
190.664	0.000000
191.040	0.000000
191.415	0.000000
191.791	-2.297169
192.166	-0.714229
192.542	-1.030886
192.917	0.000000
193.293	-0.212870
193.668	0.067936
194.044	-1.066785
194.419	0.000000
194.794	-1.385889
195.170	-1.307876
195.545	-1.218425
195.920	-1.093828
196.296	-0.965876
196.671	-0.798982
197.046	-0.643740
197.421	-0.603405
197.796	-0.602905
198.171	-0.565439
198.546	-0.521938
198.922	-0.470247
199.297	-0.442781
199.672	-0.414718
200.047	-0.390030
200.422	-0.363833
200.796	-0.353018
201.171	-0.336075
201.546	-0.330971
201.921	-0.324336
202.296	-0.312889
202.671	-0.286111
203.045	-0.256549
203.420	-0.245455
203.795	-0.223730
204.170	-0.222933
204.544	-0.221606
204.919	-0.220594
205.294	-0.213877
205.668	-0.199725
206.043	-0.185751
206.417	-0.193449
206.792	-0.183535
207.166	-0.181727
207.541	-0.183491
207.915	-0.188973
208.289	-0.170340
208.664	-0.165711
209.038	-0.166552
209.412	-0.149812
209.787	-0.130248
210.161	-0.110080
210.535	-0.115646
210.909	-0.107991
211.284	-0.099241
211.658	-0.104393
212.032	-0.099994
212.406	-0.097670
212.780	-0.096259
213.154	-0.094278
213.528	-0.095568
213.902	-0.094780
214.276	-0.083386
214.650	-0.087975
215.024	-0.085332
215.398	-0.079409
215.772	-0.059448
216.145	-0.062304
216.519	-0.058105
216.893	-0.061577
217.267	-0.067182
217.640	-0.077170
218.014	-0.071408
218.388	-0.064195
218.761	-0.073806
219.135	-0.072732
219.508	-0.075553
219.882	-0.076252
220.256	-0.070964
220.629	-0.062875
221.003	-0.059287
221.376	-0.059336
221.749	-0.063417
222.123	-0.065720
222.496	-0.067534
222.869	-0.059251
223.243	-0.051602
223.616	-0.059555
223.989	-0.070521
224.362	-0.069939
224.736	-0.067296
225.109	-0.062738
225.482	-0.058139
225.855	-0.062885
226.228	-0.065103
226.601	-0.061289
226.974	-0.056597
227.347	-0.047813
227.720	-0.048471
228.093	-0.055489
228.466	-0.064965
228.839	-0.067603
229.212	-0.065306
229.585	-0.066430
229.957	-0.064173
230.330	-0.058999
230.703	-0.056331
231.076	-0.058887
231.448	-0.064745
231.821	-0.060253
232.194	-0.061317
232.566	-0.058681
232.939	-0.068316
233.311	-0.073576
233.684	-0.064790
234.056	-0.059449
234.429	-0.059282
234.801	-0.066408
235.174	-0.072549
235.546	-0.075500
235.918	-0.072073
236.291	-0.064486
236.663	-0.054401
237.035	-0.057712
237.408	-0.052102
237.780	-0.044997
238.152	-0.047944
238.524	-0.052661
238.896	-0.046079
239.268	-0.039928
239.641	-0.036564
240.013	-0.025848
240.385	-0.025190
240.757	-0.020977
241.129	-0.017192
241.500	-0.021285
241.872	-0.024053
242.244	-0.012516
242.616	-0.002216
242.988	0.001690
243.360	0.008808
243.731	0.012192
244.103	0.010949
244.475	0.003959
244.847	0.010772
245.218	0.012629
245.590	0.014306
245.961	0.019908
246.333	0.019097
246.705	0.010303
247.076	0.014554
247.448	0.016571
247.819	0.006911
248.190	0.014035
248.562	0.014884
248.933	0.020809
249.305	0.027562
249.676	0.032376
250.047	0.022048
250.418	0.016362
250.790	0.014190
251.161	0.012841
251.532	0.016267
251.903	0.016118
252.274	0.024616
252.645	0.025761
253.016	0.025976
253.387	0.017326
253.758	0.016009
254.129	0.014236
254.500	0.020230
254.871	0.023323
255.242	0.019712
255.613	0.025996
255.984	0.022596
256.355	0.026727
256.725	0.029331
257.096	0.022937
257.467	0.021347
257.838	0.025891
258.208	0.027004
258.579	0.030611
258.949	0.028217
259.320	0.022999
259.690	0.026706
260.061	0.022766
260.431	0.024768
260.802	0.019308
261.172	0.025759
261.543	0.027970
261.913	0.030908
262.283	0.027306
262.654	0.017529
263.024	0.021066
263.394	0.018553
263.764	0.020136
264.135	0.021021
264.505	0.016063
264.875	0.017369
265.245	0.018676
265.615	0.017912
265.985	0.018483
266.355	0.021219
266.725	0.024221
267.095	0.030685
267.465	0.030020
267.835	0.027652
268.205	0.017344
268.575	0.027129
268.944	0.030652
269.314	0.026332
269.684	0.024900
270.054	0.024640
270.423	0.031639
270.793	0.028129
271.163	0.029426
271.532	0.031752
271.902	0.027698
272.271	0.030102
272.641	0.033811
273.010	0.027673
273.380	0.021380
273.749	0.020685
274.119	0.020545
274.488	0.023948
274.857	0.021461
275.227	0.022321
275.596	0.021088
275.965	0.031862
276.335	0.028743
276.704	0.017791
277.073	0.025262
277.442	0.032131
277.811	0.034607
278.180	0.039872
278.549	0.042935
278.918	0.041099
279.287	0.038736
279.656	0.045162
280.025	0.043856
280.394	0.038851
280.763	0.051101
281.132	0.055930
281.501	0.061763
281.869	0.060212
282.238	0.061788
282.607	0.054926
282.976	0.061261
283.344	0.069820
283.713	0.070903
284.081	0.068930
284.450	0.077761
284.819	0.072868
285.187	0.077763
285.556	0.080658
285.924	0.072901
286.292	0.067341
286.661	0.067750
287.029	0.067608
287.398	0.065635
287.766	0.062545
288.134	0.065596
288.502	0.063186
288.871	0.067098
289.239	0.071862
289.607	0.073906
289.975	0.071954
290.343	0.074431
290.711	0.065856
291.079	0.060889
291.447	0.060671
291.815	0.067690
292.183	0.071768
292.551	0.073941
292.919	0.070731
293.287	0.076286
293.655	0.083446
294.022	0.086181
294.390	0.092976
294.758	0.099326
295.126	0.096307
295.493	0.099098
295.861	0.100141
296.229	0.099407
296.596	0.102872
296.964	0.094289
297.331	0.094746
297.699	0.099966
298.066	0.110561
298.434	0.118425
298.801	0.122704
299.168	0.122595
299.536	0.124598
299.903	0.126168
300.270	0.130726
300.638	0.132909
301.005	0.133885
301.372	0.142690
301.739	0.149226
302.106	0.157055
302.473	0.164879
302.840	0.177104
303.207	0.198506
303.574	0.217707
303.941	0.232359
304.308	0.242145
304.675	0.254612
305.042	0.275288
305.409	0.294287
305.776	0.303619
306.143	0.326283
306.509	0.346645
306.876	0.375454
307.243	0.392831
307.610	0.416502
307.976	0.441864
308.343	0.476003
308.709	0.510969
309.076	0.537270
309.442	0.565674
309.809	0.587805
310.175	0.616763
310.542	0.649484
310.908	0.671313
311.275	0.694027
311.641	0.721193
312.007	0.750182
312.373	0.783667
312.740	0.810633
313.106	0.836553
313.472	0.879648
313.838	0.907258
314.204	0.933529
314.570	0.948310
314.936	0.982235
315.302	1.010625
315.668	1.034370
316.034	1.061122
316.400	1.088076
316.766	1.109264
317.132	1.140292
317.498	1.166098
317.864	1.184833
318.230	1.203022
318.595	1.227564
318.961	1.246628
319.327	1.271644
319.692	1.288055
320.058	1.303171
320.424	1.326360
320.789	1.346343
321.155	1.361036
321.520	1.379880
321.886	1.402304
322.251	1.426365
322.616	1.438869
322.982	1.451801
323.347	1.469989
323.712	1.487035
324.078	1.495866
324.443	1.506830
324.808	1.516583
325.173	1.531542
325.539	1.543015
325.904	1.553083
326.269	1.561718
326.634	1.575085
326.999	1.581650
327.364	1.591110
327.729	1.603507
328.094	1.609594
328.459	1.618339
328.823	1.623660
329.188	1.633494
329.553	1.636925
329.918	1.648836
330.283	1.658497
330.647	1.669352
331.012	1.674788
331.377	1.678449
331.741	1.685670
332.106	1.692865
332.470	1.700501
332.835	1.706900
333.199	1.714971
333.564	1.723720
333.928	1.731202
334.293	1.734043
334.657	1.734409
335.021	1.740650
335.386	1.744093
335.750	1.745828
336.114	1.746719
336.478	1.751265
336.843	1.751218
337.207	1.758190
337.571	1.761289
337.935	1.763223
338.299	1.763050
338.663	1.763441
339.027	1.765869
339.391	1.767144
339.755	1.771834
340.119	1.770027
340.483	1.769621
340.846	1.772838
341.210	1.773704
341.574	1.774167
341.938	1.775380
342.301	1.779481
342.665	1.782046
343.029	1.786236
343.392	1.792079
343.756	1.793157
344.119	1.795548
344.483	1.800510
344.846	1.801306
345.210	1.803211
345.573	1.802110
345.937	1.803648
346.300	1.807556
346.663	1.808850
347.027	1.812600
347.390	1.811231
347.753	1.812427
348.116	1.814271
348.479	1.815658
348.843	1.815164
349.206	1.815772
349.569	1.815320
349.932	1.817361
350.295	1.819810
350.658	1.818112
351.021	1.818803
351.383	1.822988
351.746	1.823388
352.109	1.820951
352.472	1.820337
352.835	1.819555
353.197	1.821432
353.560	1.824473
353.923	1.822844
354.285	1.822312
354.648	1.821848
355.011	1.823589
355.373	1.827219
355.736	1.828596
356.098	1.829161
356.461	1.832182
356.823	1.833774
357.185	1.838126
357.548	1.838743
357.910	1.838594
358.272	1.839806
358.635	1.838440
358.997	1.837759
359.359	1.839624
359.721	1.840923
360.083	1.846338
360.445	1.847625
360.807	1.850289
361.169	1.850063
361.531	1.853659
361.893	1.856024
362.255	1.858745
362.617	1.860503
362.979	1.861855
363.341	1.861370
363.703	1.862003
364.064	1.863757
364.426	1.865937
364.788	1.865622
365.149	1.869340
365.511	1.870103
365.873	1.871523
366.234	1.872330
366.596	1.874567
366.957	1.876009
367.319	1.877584
367.680	1.875056
368.042	1.874315
368.403	1.874590
368.764	1.876866
369.126	1.875427
369.487	1.875966
369.848	1.874912
370.209	1.876073
370.570	1.876171
370.931	1.877701
371.293	1.878265
371.654	1.877674
372.015	1.878027
372.376	1.880712
372.737	1.879951
373.098	1.880268
373.458	1.881168
373.819	1.884558
374.180	1.886884
374.541	1.887076
374.902	1.887965
375.263	1.890991
375.623	1.893291
375.984	1.896696
376.345	1.896940
376.705	1.900348
377.066	1.902133
377.426	1.904146
377.787	1.905019
378.147	1.906611
378.508	1.906569
378.868	1.907408
379.228	1.907879
379.589	1.908436
379.949	1.908298
380.309	1.909882
380.670	1.911224
381.030	1.912245
381.390	1.912929
381.750	1.910873
382.110	1.911935
382.470	1.914598
382.830	1.914835
383.190	1.917889
383.550	1.915404
383.910	1.917401
384.270	1.918624
384.630	1.920924
384.990	1.921447
385.350	1.923759
385.709	1.924947
386.069	1.927553
386.429	1.929067
386.788	1.931994
387.148	1.933713
387.508	1.936754
387.867	1.935732
388.227	1.936661
388.586	1.937789
388.946	1.939912
389.305	1.942473
389.665	1.944338
390.024	1.945204
390.383	1.946850
390.743	1.946933
391.102	1.950169
391.461	1.948648
391.820	1.949827
392.179	1.948165
392.539	1.949488
392.898	1.951627
393.257	1.952141
393.616	1.955613
393.975	1.956491
394.334	1.957772
394.693	1.959451
395.051	1.961436
395.410	1.963243
395.769	1.965163
396.128	1.967361
396.487	1.965418
396.845	1.965202
397.204	1.964395
397.563	1.962566
397.921	1.961950
398.280	1.959678
398.638	1.956923
398.997	1.958615
399.355	1.957654
399.714	1.958592
400.072	1.955867
400.431	1.953757
400.789	1.953929
401.147	1.951917
401.506	1.949838
401.864	1.948486
402.222	1.946083
402.580	1.941817
402.938	1.941096
403.297	1.938766
403.655	1.936727
404.013	1.938112
404.371	1.938073
404.729	1.937120
405.087	1.936696
405.444	1.935090
405.802	1.935782
406.160	1.936483
406.518	1.933448
406.876	1.931046
407.233	1.930419
407.591	1.931680
407.949	1.930414
408.306	1.929361
408.664	1.928063
409.022	1.929320
409.379	1.928583
409.737	1.927931
410.094	1.926785
410.451	1.926040
410.809	1.925754
411.166	1.923823
411.523	1.921835
411.881	1.921275
412.238	1.920062
412.595	1.919831
412.952	1.920109
413.310	1.917386
413.667	1.917410
414.024	1.919188
414.381	1.919177
414.738	1.916302
415.095	1.914087
415.452	1.912782
415.809	1.910656
416.165	1.909452
416.522	1.907560
416.879	1.904902
417.236	1.902879
417.593	1.901346
417.949	1.898542
418.306	1.897957
418.663	1.900431
419.019	1.898177
419.376	1.895377
419.732	1.892974
420.089	1.891946
420.445	1.890128
420.802	1.890555
421.158	1.887675
421.514	1.884904
421.871	1.883409
422.227	1.881851
422.583	1.880049
422.939	1.877350
423.295	1.875301
423.652	1.873127
424.008	1.868863
424.364	1.866940
424.720	1.865246
425.076	1.864409
425.432	1.862718
425.788	1.860055
426.143	1.855214
426.499	1.852951
426.855	1.851155
427.211	1.849328
427.567	1.846056
427.922	1.843372
428.278	1.836690
428.634	1.834218
428.989	1.830899
429.345	1.827239
429.700	1.824907
430.056	1.823872
430.411	1.821650
430.767	1.818500
431.122	1.815742
431.478	1.814054
431.833	1.810931
432.188	1.806365
432.543	1.802892
432.899	1.799059
433.254	1.794623
433.609	1.790771
433.964	1.787066
434.319	1.782409
434.674	1.778219
435.029	1.774492
435.384	1.769463
435.739	1.767199
436.094	1.763947
436.449	1.760933
436.804	1.757378
437.158	1.753241
437.513	1.747982
437.868	1.743372
438.223	1.739453
438.577	1.734406
438.932	1.730247
439.287	1.726140
439.641	1.722382
439.996	1.717291
440.350	1.713395
440.704	1.709992
441.059	1.705379
441.413	1.700230
441.768	1.696166
442.122	1.692084
442.476	1.686789
442.830	1.682479
443.185	1.677874
443.539	1.673208
443.893	1.667872
444.247	1.662789
444.601	1.658329
444.955	1.653434
445.309	1.648440
445.663	1.643097
446.017	1.637996
446.371	1.632005
446.724	1.626023
447.078	1.620869
447.432	1.616031
447.786	1.610243
448.139	1.603466
448.493	1.598300
448.847	1.592866
449.200	1.586766
449.554	1.581746
449.907	1.576863
450.261	1.570793
450.614	1.565473
450.968	1.559118
451.321	1.553565
451.674	1.548279
452.027	1.542009
452.381	1.536367
452.734	1.530613
453.087	1.525189
453.440	1.519103
453.793	1.513620
454.146	1.508287
454.499	1.503142
454.852	1.497185
455.205	1.491622
455.558	1.486637
455.911	1.480549
456.264	1.475069
456.617	1.470135
456.970	1.464704
457.322	1.459598
457.675	1.455426
458.028	1.450616
458.380	1.445636
458.733	1.441134
459.086	1.436532
459.438	1.431436
459.791	1.426097
460.143	1.421306
460.496	1.416343
460.848	1.411597
461.200	1.406949
461.553	1.402127
461.905	1.397117
462.257	1.391869
462.609	1.387340
462.961	1.382797
463.314	1.378433
463.666	1.374017
464.018	1.369107
464.370	1.364734
464.722	1.360213
465.074	1.355104
465.426	1.350941
465.777	1.347055
466.129	1.342781
466.481	1.338391
466.833	1.334923
467.184	1.331457
467.536	1.327568
467.888	1.323462
468.239	1.319168
468.591	1.314374
468.943	1.309501
469.294	1.304493
469.646	1.299804
469.997	1.294644
470.348	1.290151
470.700	1.285825
471.051	1.281751
471.402	1.277802
471.754	1.273605
472.105	1.269538
472.456	1.266091
472.807	1.262333
473.158	1.258846
473.509	1.255625
473.860	1.252474
474.211	1.248929
474.562	1.245442
474.913	1.241701
475.264	1.238293
475.615	1.235104
475.966	1.232080
476.316	1.228832
476.667	1.225633
477.018	1.222798
477.368	1.219532
477.719	1.216224
478.070	1.212841
478.420	1.209660
478.771	1.206583
479.121	1.203424
479.472	1.200174
479.822	1.197084
480.172	1.193857
480.523	1.190397
480.873	1.186604
481.223	1.182514
481.573	1.178479
481.924	1.174505
482.274	1.170790
482.624	1.167366
482.974	1.164305
483.324	1.161534
483.674	1.159229
484.024	1.156922
484.374	1.154741
484.724	1.152593
485.073	1.150511
485.423	1.148510
485.773	1.146287
486.123	1.144162
486.472	1.141880
486.822	1.139745
487.172	1.137585
487.521	1.135423
487.871	1.133266
488.220	1.131019
488.570	1.128595
488.919	1.125737
489.268	1.122237
489.618	1.118448
489.967	1.114031
490.316	1.109067
490.666	1.104033
491.015	1.099208
491.364	1.094799
491.713	1.090584
492.062	1.086938
492.411	1.083353
492.760	1.079839
493.109	1.076420
493.458	1.073017
493.807	1.069901
494.156	1.066560
494.505	1.063006
494.853	1.059593
495.202	1.056206
495.551	1.052821
495.900	1.049497
496.248	1.045966
496.597	1.042793
496.945	1.039646
497.294	1.036457
497.642	1.033201
497.991	1.029817
498.339	1.026478
498.688	1.023354
499.036	1.020418
499.384	1.017347
499.732	1.014180
500.081	1.010963
500.429	1.007863
500.777	1.004880
501.125	1.001808
501.473	0.998815
501.821	0.995907
502.169	0.992996
502.517	0.990185
502.865	0.987366
503.213	0.984443
503.561	0.981753
503.908	0.978976
504.256	0.976059
504.604	0.973253
504.952	0.970489
505.299	0.967795
505.647	0.965021
505.994	0.962105
506.342	0.959204
506.689	0.956380
507.037	0.953640
507.384	0.950830
507.732	0.948095
508.079	0.945174
508.426	0.942457
508.774	0.939767
509.121	0.937208
509.468	0.934701
509.815	0.932099
510.162	0.929533
510.509	0.926972
510.856	0.924476
511.203	0.921929
511.550	0.919392
511.897	0.916792
512.244	0.914364
512.591	0.911802
512.938	0.909341
513.284	0.907024
513.631	0.904453
513.978	0.901987
514.324	0.899448
514.671	0.897220
515.018	0.894772
515.364	0.892447
515.711	0.890037
516.057	0.887609
516.403	0.885271
516.750	0.882803
517.096	0.880560
517.443	0.878297
517.789	0.875975
518.135	0.873606
518.481	0.871257
518.827	0.869038
519.173	0.866836
519.519	0.864534
519.865	0.862363
520.211	0.860119
520.557	0.857685
520.903	0.855378
521.249	0.853007
521.595	0.850798
521.941	0.848282
522.287	0.845911
522.632	0.843321
522.978	0.840878
523.324	0.838571
523.669	0.836179
524.015	0.833690
524.360	0.831098
524.706	0.828638
525.051	0.826286
525.397	0.823860
525.742	0.821515
526.087	0.819115
526.433	0.816818
526.778	0.814587
527.123	0.812194
527.468	0.809875
527.813	0.807733
528.158	0.805488
528.504	0.803158
528.849	0.800673
529.193	0.798293
529.538	0.795803
529.883	0.793310
530.228	0.790506
530.573	0.787879
530.918	0.785258
531.263	0.782869
531.607	0.780453
531.952	0.777942
532.296	0.775407
532.641	0.773023
532.986	0.770454
533.330	0.767816
533.675	0.765290
534.019	0.762571
534.363	0.759933
534.708	0.757227
535.052	0.754456
535.396	0.751832
535.741	0.749286
536.085	0.746542
536.429	0.743740
536.773	0.740937
537.117	0.738193
537.461	0.735498
537.805	0.732544
538.149	0.729367
538.493	0.726138
538.837	0.723074
539.181	0.719875
539.524	0.716666
539.868	0.713498
540.212	0.710351
540.556	0.707262
540.899	0.704024
541.243	0.700904
541.586	0.697731
541.930	0.694528
542.273	0.691331
542.617	0.688022
542.960	0.684512
543.304	0.681031
543.647	0.677539
543.990	0.673947
544.333	0.670259
544.677	0.666608
545.020	0.663050
545.363	0.659598
545.706	0.656145
546.049	0.652619
546.392	0.649157
546.735	0.645590
547.078	0.641884
547.421	0.638199
547.764	0.634332
548.106	0.630431
548.449	0.626435
548.792	0.622475
549.135	0.618471
549.477	0.614442
549.820	0.610579
550.162	0.606691
550.505	0.602785
550.847	0.598812
551.190	0.594698
551.532	0.590476
551.875	0.586074
552.217	0.581578
552.559	0.577159
552.901	0.572820
553.244	0.568415
553.586	0.564182
553.928	0.560193
554.270	0.556220
554.612	0.552316
554.954	0.548441
555.296	0.544452
555.638	0.540303
555.980	0.536041
556.322	0.531533
556.663	0.526932
557.005	0.522116
557.347	0.517505
557.689	0.512960
558.030	0.508373
558.372	0.503946
558.713	0.499519
559.055	0.495133
559.396	0.490638
559.738	0.486131
560.079	0.481535
560.421	0.477075
560.762	0.472660
561.103	0.468209
561.444	0.463929
561.786	0.459698
562.127	0.455460
562.468	0.451202
562.809	0.446968
563.150	0.442514
563.491	0.438025
563.832	0.433307
564.173	0.428559
564.514	0.423606
564.855	0.418524
565.195	0.413460
565.536	0.408341
565.877	0.403291
566.218	0.398356
566.558	0.393566
566.899	0.388948
567.239	0.384588
567.580	0.380527
567.920	0.376765
568.261	0.373310
568.601	0.369981
568.941	0.366790
569.282	0.363788
569.622	0.360846
569.962	0.357863
570.302	0.354904
570.643	0.352071
570.983	0.349376
571.323	0.346798
571.663	0.344269
572.003	0.341791
572.343	0.339257
572.683	0.336615
573.022	0.333870
573.362	0.330999
573.702	0.328120
574.042	0.325297
574.381	0.322547
574.721	0.319855
575.061	0.317271
575.400	0.314828
575.740	0.312446
576.079	0.310096
576.419	0.307643
576.758	0.305095
577.097	0.302458
577.437	0.299728
577.776	0.296953
578.115	0.294231
578.454	0.291612
578.794	0.289254
579.133	0.287168
579.472	0.285255
579.811	0.283503
580.150	0.281768
580.489	0.280002
580.828	0.278097
581.167	0.276109
581.505	0.274088
581.844	0.272100
582.183	0.270087
582.522	0.268118
582.860	0.266221
583.199	0.264424
583.538	0.262717
583.876	0.261038
584.215	0.259384
584.553	0.257720
584.891	0.256073
585.230	0.254369
585.568	0.252617
585.906	0.250806
586.245	0.248966
586.583	0.247238
586.921	0.245616
587.259	0.244171
587.597	0.242808
587.935	0.241405
588.273	0.239894
588.611	0.238205
588.949	0.236380
589.287	0.234491
589.625	0.232587
589.963	0.230784
590.300	0.229036
590.638	0.227428
590.976	0.225843
591.313	0.224248
591.651	0.222676
591.989	0.221099
592.326	0.219618
592.664	0.218263
593.001	0.216939
593.338	0.215720
593.676	0.214580
594.013	0.213479
594.350	0.212373
594.687	0.211291
595.025	0.210321
595.362	0.209310
595.699	0.208287
596.036	0.207256
596.373	0.206241
596.710	0.205170
597.047	0.204059
597.384	0.202968
597.720	0.201812
598.057	0.200702
598.394	0.199610
598.731	0.198490
599.067	0.197388
599.404	0.196252
599.741	0.195163
600.077	0.194130
600.414	0.193172
600.750	0.192307
601.087	0.191477
601.423	0.190634
601.759	0.189794
602.096	0.188911
602.432	0.188101
602.768	0.187243
603.104	0.186402
603.440	0.185535
603.776	0.184740
604.112	0.183930
604.448	0.183120
604.784	0.182390
605.120	0.181638
605.456	0.180899
605.792	0.180223
606.128	0.179516
606.463	0.178862
606.799	0.178132
607.135	0.177414
607.470	0.176695
607.806	0.175934
608.142	0.175191
608.477	0.174493
608.812	0.173811
609.148	0.173149
609.483	0.172460
609.819	0.171804
610.154	0.171070
610.489	0.170357
610.824	0.169621
611.159	0.168939
611.494	0.168258
611.830	0.167629
612.165	0.167093
612.500	0.166551
612.834	0.165988
613.169	0.165454
613.504	0.164879
613.839	0.164306
614.174	0.163743
614.509	0.163142
614.843	0.162547
615.178	0.161983
615.512	0.161462
615.847	0.160914
616.182	0.160430
616.516	0.159924
616.850	0.159453
617.185	0.159015
617.519	0.158556
617.853	0.158108
618.188	0.157519
618.522	0.156914
618.856	0.156226
619.190	0.155517
619.524	0.154852
619.858	0.154231
620.192	0.153669
620.526	0.153112
620.860	0.152632
621.194	0.152087
621.528	0.151558
621.862	0.151072
622.195	0.150592
622.529	0.150060
622.863	0.149591
623.196	0.149071
623.530	0.148616
623.864	0.148139
624.197	0.147649
624.530	0.147149
624.864	0.146707
625.197	0.146339
625.531	0.145952
625.864	0.145531
626.197	0.145073
626.530	0.144659
626.863	0.144195
627.196	0.143672
627.529	0.143177
627.862	0.142667
628.195	0.142153
628.528	0.141626
628.861	0.141081
629.194	0.140600
629.527	0.140082
629.860	0.139583
630.192	0.139061
630.525	0.138501
630.858	0.137951
631.190	0.137409
631.523	0.136845
631.855	0.136194
632.188	0.135594
632.520	0.135007
632.852	0.134470
633.185	0.133945
633.517	0.133414
633.849	0.132935
634.182	0.132476
634.514	0.132068
634.846	0.131680
635.178	0.131361
635.510	0.131017
635.842	0.130699
636.174	0.130372
636.506	0.130076
636.837	0.129720
637.169	0.129329
637.501	0.128984
637.833	0.128756
638.164	0.128455
638.496	0.128138
638.828	0.127765
639.159	0.127354
639.491	0.126914
639.822	0.126431
640.154	0.125949
640.485	0.125333
640.816	0.124745
641.147	0.124256
641.479	0.123633
641.810	0.122998
642.141	0.122454
642.472	0.122009
642.803	0.121432
643.134	0.120849
643.465	0.120323
643.796	0.119782
644.127	0.119370
644.458	0.118892
644.789	0.118328
645.119	0.118011
645.450	0.117812
645.781	0.117812
646.111	0.117898
646.442	0.117889
646.773	0.117903
647.103	0.117774
647.433	0.117731
647.764	0.117549
648.094	0.117316
648.425	0.117211
648.755	0.117117
649.085	0.116952
649.415	0.116737
649.745	0.116741
650.075	0.116683
650.405	0.116573
650.735	0.115102
651.065	0.105914
651.395	0.097413
651.725	0.084826
652.055	0.057998
652.385	0.042760
652.715	0.032913
653.044	0.026032
653.374	0.020988
653.704	0.017135
654.033	0.023253
654.363	0.028819
654.692	0.032056
655.022	0.033984
655.351	0.035160
655.680	0.035854
656.010	0.036224
656.339	0.036387
656.668	0.036419
656.997	0.036384
657.326	0.036302
657.655	0.036213
657.984	0.035798
658.313	0.033222
658.642	0.030309
658.971	0.035191
659.300	0.041417
659.629	0.049647
659.958	0.061024
660.286	0.077777
660.615	0.104922
660.944	0.113463
661.272	0.111851
661.601	0.110681
661.929	0.109788
662.258	0.109147
662.586	0.108675
662.915	0.108108
663.243	0.107509
663.571	0.106838
663.899	0.106313
664.228	0.105965
664.556	0.105652
664.884	0.105307
665.212	0.105052
665.540	0.104853
665.868	0.104715
666.196	0.104597
666.524	0.104368
666.852	0.104160
667.179	0.103921
667.507	0.103819
667.835	0.103624
668.162	0.103504
668.490	0.103369
668.818	0.103217
669.145	0.103207
669.473	0.103142
669.800	0.103312
670.127	0.103365
670.455	0.103495
670.782	0.103569
671.109	0.103541
671.436	0.103662
671.764	0.103708
672.091	0.103709
672.418	0.103678
672.745	0.103584
673.072	0.103575
673.399	0.103519
673.726	0.103357
674.053	0.103231
674.379	0.103058
674.706	0.102933
675.033	0.102687
675.359	0.102512
675.686	0.102355
676.013	0.102168
676.339	0.101988
676.666	0.101688
676.992	0.101491
677.318	0.101256
677.645	0.101067
677.971	0.100920
678.297	0.100771
678.624	0.100652
678.950	0.100474
679.276	0.100354
679.602	0.100150
679.928	0.099913
680.254	0.099712
680.580	0.099511
680.906	0.099333
681.232	0.099147
681.558	0.099151
681.883	0.099223
682.209	0.099235
682.535	0.099282
682.860	0.099260
683.186	0.099258
683.511	0.099197
683.837	0.099054
684.162	0.098977
684.488	0.098824
684.813	0.098735
685.138	0.098511
685.464	0.098356
685.789	0.098254
686.114	0.098091
686.439	0.097999
686.764	0.097843
687.089	0.097737
687.414	0.097708
687.739	0.097681
688.064	0.097632
688.389	0.097462
688.714	0.097252
689.039	0.096955
689.363	0.096709
689.688	0.096460
690.013	0.096179
690.337	0.095977
690.662	0.095821
690.986	0.095730
691.311	0.095675
691.635	0.095534
691.959	0.095442
692.284	0.095253
692.608	0.094945
692.932	0.094750
693.256	0.094585
693.580	0.094526
693.904	0.094422
694.228	0.094348
694.552	0.094291
694.876	0.094253
695.200	0.094165
695.524	0.093982
695.848	0.093823
696.172	0.093602
696.495	0.093332
696.819	0.093133
697.143	0.092849
697.466	0.092540
697.790	0.092141
698.113	0.091770
698.437	0.091357
698.760	0.091045
699.083	0.090847
699.407	0.090710
699.730	0.090548
700.053	0.090429
700.376	0.090275
700.699	0.089993
701.022	0.089597
701.345	0.089112
701.668	0.088439
701.991	0.087700
702.314	0.087024
702.637	0.086381
702.960	0.085634
703.283	0.085018
703.605	0.084445
703.928	0.084118
704.251	0.083906
704.573	0.083728
704.896	0.083577
705.218	0.083448
705.540	0.083249
705.863	0.082943
706.185	0.082596
706.507	0.082081
706.830	0.081523
707.152	0.080948
707.474	0.080460
707.796	0.079987
708.118	0.079553
708.440	0.079283
708.762	0.079089
709.084	0.078867
709.406	0.078640
709.728	0.078488
710.049	0.078293
710.371	0.078025
710.693	0.077658
711.014	0.077267
711.336	0.076893
711.658	0.076564
711.979	0.076291
712.301	0.075980
712.622	0.075749
712.943	0.075480
713.265	0.075347
713.586	0.075225
713.907	0.075080
714.228	0.075044
714.549	0.074929
714.870	0.074851
715.191	0.074700
715.512	0.074647
715.833	0.074587
716.154	0.074471
716.475	0.074339
716.796	0.074133
717.117	0.073874
717.437	0.073530
717.758	0.073146
718.078	0.072736
718.399	0.072223
718.719	0.071728
719.040	0.071281
719.360	0.070872
719.681	0.070550
720.001	0.070246
720.321	0.070001
720.642	0.069698
720.962	0.069254
721.282	0.069050
721.602	0.068764
721.922	0.068554
722.242	0.068184
722.562	0.067902
722.882	0.067656
723.202	0.067425
723.521	0.067258
723.841	0.067140
724.161	0.067019
724.481	0.066943
724.800	0.066806
725.120	0.066652
725.439	0.066501
725.759	0.066339
726.078	0.066235
726.398	0.066098
726.717	0.065967
727.036	0.065833
727.355	0.065836
727.675	0.065926
727.994	0.065983
728.313	0.066076
728.632	0.066103
728.951	0.066055
729.270	0.065936
729.589	0.065780
729.908	0.065499
730.226	0.065199
730.545	0.064865
730.864	0.064545
731.182	0.064246
731.501	0.064020
731.820	0.063877
732.138	0.063714
732.457	0.063483
732.775	0.063278
733.093	0.063131
733.412	0.063018
733.730	0.062828
734.048	0.062612
734.367	0.062309
734.685	0.061957
735.003	0.061508
735.321	0.061094
735.639	0.060765
735.957	0.060426
736.275	0.060101
736.593	0.059951
736.910	0.059764
737.228	0.059640
737.546	0.059538
737.863	0.059383
738.181	0.059110
738.499	0.058854
738.816	0.058603
739.134	0.058377
739.451	0.058119
739.768	0.057912
740.086	0.057551
740.403	0.057261
740.720	0.056932
741.038	0.056580
741.355	0.056167
741.672	0.055801
741.989	0.055466
742.306	0.055032
742.623	0.054608
742.940	0.054138
743.257	0.053481
743.573	0.052904
743.890	0.052319
744.207	0.051726
744.523	0.051214
744.840	0.050751
745.157	0.050258
745.473	0.049758
745.790	0.049353
746.106	0.048904
746.422	0.048471
746.739	0.048100
747.055	0.047792
747.371	0.047515
747.687	0.047419
748.004	0.047374
748.320	0.047363
748.636	0.047287
748.952	0.047177
749.268	0.047171
749.584	0.047200
749.899	0.047197
750.215	0.047159
750.531	0.047072
750.847	0.047041
751.162	0.046953
751.478	0.046956
751.793	0.046893
752.109	0.046785
752.424	0.046661
752.740	0.046548
753.055	0.046541
753.370	0.046541
753.686	0.046626
754.001	0.046759
754.316	0.046887
754.631	0.047018
754.946	0.047095
755.261	0.047203
755.576	0.047247
755.891	0.047226
756.206	0.047083
756.521	0.046942
756.836	0.046862
757.150	0.046844
757.465	0.046781
757.780	0.046806
758.094	0.046831
758.409	0.046911
758.723	0.047001
759.038	0.047010
759.352	0.047052
759.667	0.046956
759.981	0.046830
760.295	0.046562
760.609	0.046286
760.923	0.046016
761.238	0.045647
761.552	0.045369
761.866	0.045115
762.180	0.045015
762.493	0.044908
762.807	0.044872
763.121	0.044831
763.435	0.044731
763.749	0.044524
764.062	0.044314
764.376	0.044011
764.689	0.043669
765.003	0.043287
765.316	0.043044
765.630	0.042987
765.943	0.042833
766.257	0.042710
766.570	0.042629
766.883	0.042504
767.196	0.042279
767.509	0.041940
767.822	0.041727
768.135	0.041409
768.448	0.041095
768.761	0.040691
769.074	0.040358
769.387	0.040047
769.700	0.039768
770.013	0.039539
770.325	0.039339
770.638	0.039205
770.950	0.039071
771.263	0.038983
771.575	0.038869
771.888	0.038561
772.200	0.038204
772.513	0.037825
772.825	0.037470
773.137	0.037062
773.449	0.036773
773.761	0.036447
774.074	0.036218
774.386	0.035905
774.698	0.035768
775.010	0.035421
775.321	0.035126
775.633	0.034784
775.945	0.034639
776.257	0.034540
776.568	0.034439
776.880	0.034430
777.192	0.034346
777.503	0.034325
777.815	0.034272
778.126	0.034251
778.438	0.034298
778.749	0.034458
779.060	0.034679
779.372	0.034791
779.683	0.034903
779.994	0.034975
780.305	0.035093
780.616	0.035249
780.927	0.035401
781.238	0.035347
781.549	0.035453
781.860	0.035581
782.171	0.035756
782.481	0.035835
782.792	0.035817
783.103	0.035823
783.413	0.035821
783.724	0.035761
784.034	0.035672
784.345	0.035543
784.655	0.035439
784.966	0.035341
785.276	0.035283
785.586	0.035106
785.896	0.035060
786.207	0.034990
786.517	0.035068
786.827	0.035161
787.137	0.035099
787.447	0.035024
787.757	0.035104
788.066	0.035070
788.376	0.035109
788.686	0.035080
788.996	0.035060
789.305	0.035033
789.615	0.035011
789.925	0.034889
790.234	0.035015
790.544	0.035082
790.853	0.035150
791.162	0.035276
791.472	0.035439
791.781	0.035581
792.090	0.035699
792.399	0.035735
792.708	0.035770
793.017	0.035670
793.326	0.035479
793.635	0.035391
793.944	0.035270
794.253	0.035117
794.562	0.035041
794.871	0.034908
795.179	0.034750
795.488	0.034563
795.797	0.034542
796.105	0.034449
796.414	0.034504
796.722	0.034378
797.031	0.034360
797.339	0.034313
797.647	0.034026
797.956	0.033805
798.264	0.033258
798.572	0.032912
798.880	0.032507
799.188	0.032133
799.496	0.031925
799.804	0.031830
800.112	0.031718
800.420	0.031719
800.728	0.031715
801.035	0.031565
801.343	0.031280
801.651	0.031058
801.958	0.030996
802.266	0.030901
802.573	0.030993
802.881	0.031040
803.188	0.031081
803.496	0.031213
803.803	0.031423
804.110	0.031711
804.417	0.031737
804.724	0.031771
805.032	0.031868
805.339	0.031948
805.646	0.031995
805.953	0.031839
806.259	0.031860
806.566	0.031708
806.873	0.031650
807.180	0.031587
807.486	0.031719
807.793	0.031853
808.100	0.031951
808.406	0.032028
808.713	0.032064
809.019	0.031775
809.326	0.031513
809.632	0.031359
809.938	0.030877
810.244	0.030369
810.551	0.029948
810.857	0.029634
811.163	0.029572
811.469	0.029349
811.775	0.029090
812.081	0.029153
812.387	0.029278
812.692	0.029260
812.998	0.029514
813.304	0.029477
813.610	0.029533
813.915	0.029530
814.221	0.029456
814.526	0.029635
814.832	0.029592
815.137	0.029566
815.443	0.029749
815.748	0.029775
816.053	0.029717
816.358	0.029662
816.664	0.029574
816.969	0.029599
817.274	0.029845
817.579	0.029862
817.884	0.029839
818.189	0.030030
818.493	0.029894
818.798	0.029947
819.103	0.029723
819.408	0.029352
819.712	0.029295
820.017	0.029268
820.321	0.028981
820.626	0.028999
820.930	0.028605
821.235	0.028448
821.539	0.028226
821.843	0.028124
822.148	0.027969
822.452	0.027949
822.756	0.028184
823.060	0.028338
823.364	0.028635
823.668	0.028630
823.972	0.028727
824.276	0.028687
824.580	0.028485
824.883	0.028758
825.187	0.028769
825.491	0.029092
825.795	0.029264
826.098	0.029414
826.402	0.029337
826.705	0.029568
827.008	0.029367
827.312	0.029593
827.615	0.029448
827.918	0.029383
828.222	0.029097
828.525	0.028941
828.828	0.028903
829.131	0.028728
829.434	0.028758
829.737	0.028123
830.040	0.027539
830.343	0.027070
830.645	0.026966
830.948	0.026922
831.251	0.026353
831.553	0.025895
831.856	0.025437
832.159	0.025539
832.461	0.025308
832.764	0.025325
833.066	0.025032
833.368	0.025077
833.671	0.024578
833.973	0.024617
834.275	0.024397
834.577	0.024455
834.879	0.024589
835.181	0.024188
835.483	0.023789
835.785	0.023349
836.087	0.023320
836.389	0.023251
836.690	0.022666
836.992	0.021841
837.294	0.020844
837.595	0.019968
837.897	0.019238
838.198	0.018539
838.500	0.017743
838.801	0.017117
839.103	0.016415
839.404	0.015914
839.705	0.015386
840.006	0.015174
840.307	0.014782
840.608	0.014843
840.910	0.014744
841.210	0.015026
841.511	0.015149
841.812	0.015466
842.113	0.015515
842.414	0.015068
842.715	0.014675
843.015	0.014352
843.316	0.014382
843.616	0.014782
843.917	0.015059
844.217	0.015298
844.518	0.014874
844.818	0.014514
845.118	0.014423
845.419	0.014533
845.719	0.014261
846.019	0.014055
846.319	0.014182
846.619	0.014596
846.919	0.014758
847.219	0.014737
847.519	0.014370
847.819	0.014261
848.118	0.013886
848.418	0.013239
848.718	0.013156
849.017	0.013403
849.317	0.013377
849.616	0.013416
849.916	0.013570
850.215	0.014144
850.515	0.014287
850.814	0.014826
851.113	0.015187
851.412	0.015633
851.712	0.015654
852.011	0.015920
852.310	0.016460
852.609	0.016448
852.908	0.016400
853.206	0.016410
853.505	0.016814
853.804	0.016924
854.103	0.017199
854.401	0.017396
854.700	0.017550
854.999	0.017553
855.297	0.017694
855.595	0.018013
855.894	0.018122
856.192	0.018141
856.491	0.017861
856.789	0.017773
857.087	0.017563
857.385	0.017335
857.683	0.016940
857.981	0.016749
858.279	0.016401
858.577	0.015437
858.875	0.015066
859.173	0.014539
859.471	0.014405
859.768	0.013930
860.066	0.013416
860.363	0.012599
860.661	0.012037
860.959	0.012179
861.256	0.012315
861.553	0.011846
861.851	0.010790
862.148	0.010263
862.445	0.010050
862.742	0.009836
863.039	0.009422
863.337	0.009188
863.634	0.008912
863.931	0.008394
864.227	0.008246
864.524	0.007981
864.821	0.008420
865.118	0.008304
865.415	0.007875
865.711	0.007498
866.008	0.006498
866.304	0.006742
866.601	0.006865
866.897	0.006760
867.194	0.006421
867.490	0.005714
867.786	0.005424
868.082	0.005920
868.379	0.005868
868.675	0.005325
868.971	0.005382
869.267	0.005543
869.563	0.006045
869.859	0.005935
870.154	0.005598
870.450	0.005029
870.746	0.004877
871.042	0.005212
871.337	0.005245
871.633	0.005301
871.928	0.005094
872.224	0.004879
872.519	0.003716
872.815	0.002999
873.110	0.002891
873.405	0.002686
873.700	0.002374
873.995	0.002190
874.291	0.002012
874.586	0.002480
874.881	0.002189
875.175	0.001401
875.470	0.001303
875.765	0.001012
876.060	0.000794
876.355	0.001186
876.649	0.001294
876.944	0.001465
877.238	0.000785
877.533	0.000324
877.827	0.000987
878.122	0.001479
878.416	0.001903
878.710	0.002680
879.005	0.003033
879.299	0.002558
879.593	0.001955
879.887	0.002391
880.181	0.002357
880.475	0.002559
880.769	0.001978
881.063	0.002177
881.356	0.002637
881.650	0.002372
881.944	0.001824
882.238	-0.011266
882.531	-0.008246
882.825	0.003115
883.118	-0.005313
883.412	0.005783
883.705	-0.003707
883.998	-0.002163
884.291	0.003400
884.585	-0.001528
884.878	-0.004609
>>>>>>>>>> END of Data <<<<<<<<<<
>>>>>>>>>> Raw Data Start <<<<<<<<
190.664	-400
191.040	6
191.415	6
191.791	4
192.166	11
192.542	13
192.917	9
193.293	5
193.668	2
194.044	9
194.419	-10
194.794	10
195.170	10
195.545	10
195.920	11
196.296	11
196.671	11
197.046	11
197.421	12
197.796	13
198.171	13
198.546	14
198.922	14
199.297	14
199.672	14
200.047	15
200.422	15
200.796	15
201.171	15
201.546	15
201.921	15
202.296	15
202.671	16
203.045	16
203.420	16
203.795	16
204.170	16
204.544	16
204.919	16
205.294	16
205.668	16
206.043	15
206.417	15
206.792	15
207.166	15
207.541	15
207.915	15
208.289	15
208.664	14
209.038	14
209.412	15
209.787	14
210.161	14
210.535	14
210.909	14
211.284	14
211.658	14
212.032	14
212.406	14
212.780	13
213.154	13
213.528	13
213.902	13
214.276	13
214.650	13
215.024	13
215.398	13
215.772	13
216.145	13
216.519	13
216.893	13
217.267	13
217.640	14
218.014	14
218.388	14
218.761	14
219.135	15
219.508	15
219.882	15
220.256	15
220.629	15
221.003	15
221.376	15
221.749	15
222.123	15
222.496	15
222.869	15
223.243	15
223.616	15
223.989	15
224.362	16
224.736	15
225.109	15
225.482	15
225.855	15
226.228	15
226.601	15
226.974	15
227.347	15
227.720	15
228.093	15
228.466	15
228.839	15
229.212	15
229.585	14
229.957	14
230.330	15
230.703	15
231.076	15
231.448	15
231.821	15
232.194	15
232.566	15
232.939	15
233.311	14
233.684	14
234.056	14
234.429	14
234.801	14
235.174	15
235.546	15
235.918	15
236.291	15
236.663	15
237.035	15
237.408	16
237.780	16
238.152	16
238.524	16
238.896	16
239.268	16
239.641	16
240.013	16
240.385	16
240.757	16
241.129	16
241.500	16
241.872	16
242.244	16
242.616	15
242.988	15
243.360	15
243.731	15
244.103	15
244.475	15
244.847	16
245.218	15
245.590	15
245.961	15
246.333	15
246.705	16
247.076	15
247.448	16
247.819	16
248.190	16
248.562	16
248.933	16
249.305	16
249.676	16
250.047	16
250.418	17
250.790	17
251.161	17
251.532	16
251.903	16
252.274	16
252.645	16
253.016	16
253.387	16
253.758	17
254.129	17
254.500	17
254.871	17
255.242	17
255.613	16
255.984	16
256.355	16
256.725	16
257.096	16
257.467	16
257.838	16
258.208	16
258.579	16
258.949	16
259.320	17
259.690	17
260.061	17
260.431	17
260.802	17
261.172	17
261.543	17
261.913	17
262.283	17
262.654	18
263.024	17
263.394	17
263.764	17
264.135	18
264.505	18
264.875	18
265.245	18
265.615	18
265.985	18
266.355	18
266.725	18
267.095	18
267.465	18
267.835	18
268.205	18
268.575	17
268.944	17
269.314	17
269.684	17
270.054	17
270.423	17
270.793	17
271.163	17
271.532	17
271.902	17
272.271	17
272.641	17
273.010	17
273.380	17
273.749	17
274.119	18
274.488	18
274.857	18
275.227	18
275.596	18
275.965	18
276.335	18
276.704	19
277.073	18
277.442	18
277.811	19
278.180	19
278.549	18
278.918	19
279.287	19
279.656	19
280.025	19
280.394	19
280.763	19
281.132	19
281.501	19
281.869	18
282.238	18
282.607	18
282.976	18
283.344	17
283.713	17
284.081	17
284.450	17
284.819	17
285.187	17
285.556	17
285.924	17
286.292	18
286.661	17
287.029	17
287.398	17
287.766	18
288.134	18
288.502	18
288.871	18
289.239	18
289.607	18
289.975	18
290.343	18
290.711	18
291.079	19
291.447	19
291.815	19
292.183	18
292.551	18
292.919	18
293.287	18
293.655	18
294.022	18
294.390	18
294.758	18
295.126	17
295.493	17
295.861	17
296.229	17
296.596	17
296.964	17
297.331	18
297.699	18
298.066	17
298.434	18
298.801	17
299.168	17
299.536	17
299.903	17
300.270	17
300.638	17
301.005	18
301.372	18
301.739	18
302.106	18
302.473	18
302.840	18
303.207	18
303.574	18
303.941	18
304.308	18
304.675	18
305.042	18
305.409	18
305.776	18
306.143	18
306.509	18
306.876	18
307.243	18
307.610	19
307.976	19
308.343	18
308.709	18
309.076	18
309.442	18
309.809	18
310.175	18
310.542	18
310.908	19
311.275	19
311.641	19
312.007	19
312.373	19
312.740	19
313.106	20
313.472	19
313.838	19
314.204	19
314.570	20
314.936	20
315.302	20
315.668	20
316.034	20
316.400	20
316.766	20
317.132	20
317.498	20
317.864	20
318.230	20
318.595	20
318.961	20
319.327	20
319.692	20
320.058	21
320.424	21
320.789	21
321.155	21
321.520	21
321.886	21
322.251	21
322.616	21
322.982	22
323.347	22
323.712	22
324.078	23
324.443	23
324.808	24
325.173	24
325.539	24
325.904	25
326.269	25
326.634	26
326.999	26
327.364	27
327.729	27
328.094	27
328.459	28
328.823	28
329.188	28
329.553	29
329.918	29
330.283	29
330.647	29
331.012	30
331.377	30
331.741	31
332.106	31
332.470	31
332.835	31
333.199	32
333.564	32
333.928	32
334.293	32
334.657	33
335.021	33
335.386	34
335.750	35
336.114	35
336.478	36
336.843	36
337.207	37
337.571	37
337.935	38
338.299	38
338.663	39
339.027	39
339.391	40
339.755	40
340.119	41
340.483	42
340.846	42
341.210	43
341.574	44
341.938	44
342.301	44
342.665	45
343.029	45
343.392	45
343.756	46
344.119	46
344.483	46
344.846	46
345.210	47
345.573	48
345.937	48
346.300	48
346.663	48
347.027	49
347.390	49
347.753	50
348.116	50
348.479	50
348.843	51
349.206	51
349.569	52
349.932	52
350.295	52
350.658	53
351.021	53
351.383	53
351.746	54
352.109	54
352.472	55
352.835	55
353.197	55
353.560	56
353.923	56
354.285	57
354.648	57
355.011	57
355.373	57
355.736	57
356.098	58
356.461	57
356.823	58
357.185	57
357.548	58
357.910	58
358.272	58
358.635	59
358.997	59
359.359	59
359.721	59
360.083	59
360.445	59
360.807	59
361.169	59
361.531	59
361.893	59
362.255	59
362.617	59
362.979	59
363.341	60
363.703	60
364.064	60
364.426	60
364.788	60
365.149	60
365.511	60
365.873	60
366.234	61
366.596	60
366.957	60
367.319	60
367.680	61
368.042	61
368.403	61
368.764	61
369.126	62
369.487	62
369.848	62
370.209	62
370.570	62
370.931	62
371.293	62
371.654	62
372.015	62
372.376	62
372.737	62
373.098	62
373.458	62
373.819	62
374.180	62
374.541	62
374.902	62
375.263	62
375.623	62
375.984	61
376.345	62
376.705	62
377.066	62
377.426	61
377.787	62
378.147	62
378.508	62
378.868	62
379.228	62
379.589	62
379.949	62
380.309	62
380.670	62
381.030	62
381.390	62
381.750	63
382.110	63
382.470	63
382.830	63
383.190	62
383.550	63
383.910	63
384.270	63
384.630	63
384.990	63
385.350	63
385.709	63
386.069	63
386.429	63
386.788	62
387.148	62
387.508	62
387.867	62
388.227	62
388.586	63
388.946	63
389.305	63
389.665	63
390.024	63
390.383	63
390.743	64
391.102	63
391.461	64
391.820	64
392.179	64
392.539	64
392.898	64
393.257	64
393.616	64
393.975	64
394.334	64
394.693	64
395.051	65
395.410	65
395.769	65
396.128	65
396.487	65
396.845	65
397.204	65
397.563	66
397.921	66
398.280	66
398.638	67
398.997	66
399.355	67
399.714	67
400.072	67
400.431	67
400.789	68
401.147	68
401.506	68
401.864	69
402.222	69
402.580	70
402.938	69
403.297	70
403.655	70
404.013	69
404.371	69
404.729	69
405.087	69
405.444	70
405.802	70
406.160	70
406.518	70
406.876	70
407.233	71
407.591	70
407.949	71
408.306	71
408.664	71
409.022	71
409.379	71
409.737	71
410.094	71
410.451	71
410.809	71
411.166	72
411.523	72
411.881	72
412.238	73
412.595	73
412.952	73
413.310	73
413.667	73
414.024	73
414.381	73
414.738	73
415.095	74
415.452	74
415.809	74
416.165	75
416.522	75
416.879	76
417.236	76
417.593	77
417.949	78
418.306	78
418.663	79
419.019	80
419.376	81
419.732	82
420.089	83
420.445	84
420.802	84
421.158	85
421.514	86
421.871	87
422.227	87
422.583	88
422.939	89
423.295	89
423.652	90
424.008	91
424.364	91
424.720	92
425.076	92
425.432	92
425.788	92
426.143	93
426.499	94
426.855	94
427.211	95
427.567	96
427.922	96
428.278	98
428.634	98
428.989	99
429.345	100
429.700	100
430.056	101
430.411	102
430.767	103
431.122	103
431.478	104
431.833	105
432.188	106
432.543	107
432.899	108
433.254	109
433.609	109
433.964	110
434.319	110
434.674	111
435.029	112
435.384	113
435.739	113
436.094	114
436.449	115
436.804	117
437.158	118
437.513	120
437.868	123
438.223	124
438.577	127
438.932	129
439.287	132
439.641	134
439.996	136
440.350	139
440.704	141
441.059	144
441.413	146
441.768	149
442.122	151
442.476	154
442.830	156
443.185	159
443.539	162
443.893	164
444.247	167
444.601	169
444.955	171
445.309	172
445.663	174
446.017	176
446.371	177
446.724	179
447.078	180
447.432	181
447.786	183
448.139	184
448.493	185
448.847	186
449.200	188
449.554	188
449.907	189
450.261	190
450.614	191
450.968	193
451.321	194
451.674	195
452.027	196
452.381	198
452.734	199
453.087	201
453.440	202
453.793	204
454.146	206
454.499	209
454.852	212
455.205	215
455.558	218
455.911	221
456.264	225
456.617	228
456.970	231
457.322	234
457.675	236
458.028	239
458.380	242
458.733	244
459.086	246
459.438	249
459.791	253
460.143	256
460.496	260
460.848	264
461.200	268
461.553	273
461.905	278
462.257	282
462.609	286
462.961	290
463.314	293
463.666	297
464.018	300
464.370	303
464.722	306
465.074	310
465.426	313
465.777	316
466.129	319
466.481	322
466.833	324
467.184	325
467.536	326
467.888	327
468.239	328
468.591	329
468.943	330
469.294	332
469.646	334
469.997	337
470.348	340
470.700	344
471.051	348
471.402	353
471.754	359
472.105	365
472.456	372
472.807	379
473.158	386
473.509	394
473.860	403
474.211	412
474.562	422
474.913	432
475.264	443
475.615	453
475.966	463
476.316	473
476.667	484
477.018	494
477.368	505
477.719	516
478.070	526
478.420	537
478.771	547
479.121	557
479.472	567
479.822	577
480.172	588
480.523	602
480.873	619
481.223	647
481.573	688
481.924	739
482.274	796
482.624	856
482.974	917
483.324	970
483.674	1012
484.024	1040
484.374	1061
484.724	1074
485.073	1084
485.423	1093
485.773	1102
486.123	1111
486.472	1119
486.822	1127
487.172	1135
487.521	1141
487.871	1145
488.220	1144
488.570	1133
488.919	1108
489.268	1074
489.618	1033
489.967	989
490.316	944
490.666	905
491.015	879
491.364	864
491.713	858
492.062	858
492.411	862
492.760	867
493.109	873
493.458	879
493.807	884
494.156	889
494.505	894
494.853	900
495.202	906
495.551	914
495.900	922
496.248	930
496.597	938
496.945	945
497.294	953
497.642	961
497.991	971
498.339	981
498.688	992
499.036	1002
499.384	1012
499.732	1021
500.081	1029
500.429	1037
500.777	1044
501.125	1050
501.473	1057
501.821	1065
502.169	1071
502.517	1078
502.865	1082
503.213	1087
503.561	1090
503.908	1094
504.256	1097
504.604	1099
504.952	1101
505.299	1102
505.647	1102
505.994	1102
506.342	1101
506.689	1101
507.037	1100
507.384	1101
507.732	1102
508.079	1104
508.426	1105
508.774	1107
509.121	1108
509.468	1109
509.815	1109
510.162	1110
510.509	1111
510.856	1111
511.203	1110
511.550	1111
511.897	1111
512.244	1111
512.591	1112
512.938	1112
513.284	1112
513.631	1112
513.978	1112
514.324	1111
514.671	1110
515.018	1108
515.364	1108
515.711	1107
516.057	1106
516.403	1106
516.750	1105
517.096	1103
517.443	1101
517.789	1099
518.135	1098
518.481	1097
518.827	1095
519.173	1093
519.519	1092
519.865	1091
520.211	1091
520.557	1091
520.903	1091
521.249	1091
521.595	1091
521.941	1092
522.287	1093
522.632	1093
522.978	1094
523.324	1095
523.669	1097
524.015	1100
524.360	1105
524.706	1110
525.051	1117
525.397	1125
525.742	1133
526.087	1142
526.433	1150
526.778	1158
527.123	1164
527.468	1170
527.813	1175
528.158	1180
528.504	1187
528.849	1195
529.193	1206
529.538	1218
529.883	1232
530.228	1249
530.573	1267
530.918	1286
531.263	1304
531.607	1321
531.952	1338
532.296	1352
532.641	1363
532.986	1373
533.330	1383
533.675	1393
534.019	1406
534.363	1422
534.708	1439
535.052	1460
535.396	1481
535.741	1502
536.085	1521
536.429	1539
536.773	1554
537.117	1567
537.461	1578
537.805	1589
538.149	1602
538.493	1615
538.837	1629
539.181	1644
539.524	1663
539.868	1684
540.212	1708
540.556	1732
540.899	1758
541.243	1781
541.586	1802
541.930	1819
542.273	1833
542.617	1845
542.960	1858
543.304	1874
543.647	1893
543.990	1916
544.333	1942
544.677	1968
545.020	1994
545.363	2015
545.706	2033
546.049	2049
546.392	2060
546.735	2068
547.078	2075
547.421	2082
547.764	2090
548.106	2100
548.449	2112
548.792	2129
549.135	2149
549.477	2173
549.820	2197
550.162	2218
550.505	2237
550.847	2252
551.190	2264
551.532	2276
551.875	2288
552.217	2301
552.559	2317
552.901	2335
553.244	2357
553.586	2381
553.928	2404
554.270	2426
554.612	2445
554.954	2462
555.296	2477
555.638	2493
555.980	2508
556.322	2528
556.663	2551
557.005	2582
557.347	2618
557.689	2657
558.030	2695
558.372	2731
558.713	2765
559.055	2797
559.396	2830
559.738	2864
560.079	2901
560.421	2941
560.762	2986
561.103	3036
561.444	3089
561.786	3145
562.127	3204
562.468	3267
562.809	3336
563.150	3413
563.491	3495
563.832	3586
564.173	3689
564.514	3806
564.855	3947
565.195	4116
565.536	4318
565.877	4551
566.218	4817
566.558	5116
566.899	5444
567.239	5798
567.580	6169
567.920	6552
568.261	6938
568.601	7335
568.941	7746
569.282	8169
569.622	8609
569.962	9068
570.302	9559
570.643	10067
570.983	10579
571.323	11075
571.663	11556
572.003	12014
572.343	12448
572.683	12857
573.022	13275
573.362	13716
573.702	14173
574.042	14631
574.381	15072
574.721	15493
575.061	15898
575.400	16269
575.740	16601
576.079	16899
576.419	17196
576.758	17531
577.097	17924
577.437	18354
577.776	18812
578.115	19290
578.454	19776
578.794	20223
579.133	20572
579.472	20818
579.811	20968
580.150	21030
580.489	21024
580.828	20990
581.167	20960
581.505	20949
581.844	20946
582.183	20942
582.522	20953
582.860	20975
583.199	20995
583.538	20985
583.876	20910
584.215	20747
584.553	20486
584.891	20134
585.230	19698
585.568	19213
585.906	18718
586.245	18274
586.583	17891
586.921	17577
587.259	17291
587.597	17001
587.935	16700
588.273	16391
588.611	16105
588.949	15855
589.287	15648
589.625	15488
589.963	15364
590.300	15267
590.638	15178
590.976	15077
591.313	14955
591.651	14839
591.989	14739
592.326	14660
592.664	14592
593.001	14539
593.338	14509
593.676	14499
594.013	14514
594.350	14577
594.687	14677
595.025	14787
595.362	14888
595.699	14962
596.036	15011
596.373	15027
596.710	15004
597.047	14956
597.384	14896
597.720	14828
598.057	14775
598.394	14737
598.731	14720
599.067	14727
599.404	14761
599.741	14829
600.077	14921
600.414	15022
600.750	15128
601.087	15210
601.423	15253
601.759	15261
602.096	15241
602.432	15202
602.768	15140
603.104	15052
603.440	14941
603.776	14822
604.112	14693
604.448	14564
604.784	14424
605.120	14275
605.456	14132
605.792	13979
606.128	13820
606.463	13655
606.799	13489
607.135	13339
607.470	13190
607.806	13043
608.142	12900
608.477	12762
608.812	12628
609.148	12493
609.483	12351
609.819	12206
610.154	12069
610.489	11942
610.824	11832
611.159	11739
611.494	11645
611.830	11563
612.165	11482
612.500	11390
612.834	11285
613.169	11163
613.504	11029
613.839	10879
614.174	10709
614.509	10537
614.843	10367
615.178	10204
615.512	10043
615.847	9886
616.182	9728
616.516	9570
616.850	9402
617.185	9226
617.519	9048
617.853	8857
618.188	8659
618.522	8478
618.856	8325
619.190	8193
619.524	8077
619.858	7984
620.192	7911
620.526	7847
620.860	7784
621.194	7723
621.528	7663
621.862	7603
622.195	7530
622.529	7452
622.863	7370
623.196	7289
623.530	7206
623.864	7124
624.197	7041
624.530	6960
624.864	6887
625.197	6811
625.531	6724
625.864	6619
626.197	6507
626.530	6386
626.863	6249
627.196	6101
627.529	5950
627.862	5801
628.195	5654
628.528	5509
628.861	5370
629.194	5244
629.527	5125
629.860	5008
630.192	4892
630.525	4783
630.858	4682
631.190	4586
631.523	4494
631.855	4407
632.188	4332
632.520	4262
632.852	4195
633.185	4127
633.517	4061
633.849	4002
634.182	3948
634.514	3897
634.846	3851
635.178	3810
635.510	3774
635.842	3740
636.174	3708
636.506	3675
636.837	3644
637.169	3613
637.501	3580
637.833	3543
638.164	3502
638.496	3456
638.828	3404
639.159	3346
639.491	3283
639.822	3218
640.154	3152
640.485	3087
640.816	3023
641.147	2959
641.479	2897
641.810	2838
642.141	2780
642.472	2723
642.803	2667
643.134	2614
643.465	2568
643.796	2532
644.127	2506
644.458	2493
644.789	2494
645.119	2508
645.450	2532
645.781	2559
646.111	2584
646.442	2608
646.773	2626
647.103	2640
647.433	2652
647.764	2666
648.094	2684
648.425	2705
648.755	2732
649.085	2762
649.415	2795
649.745	2828
650.075	2862
650.405	2901
650.735	2984
651.065	3588
651.395	5461
651.725	8539
652.055	12177
652.385	15810
652.715	19441
653.044	23075
653.374	26714
653.704	30358
654.033	33299
654.363	35171
654.692	36411
655.022	37217
655.351	37745
655.680	38072
656.010	38250
656.339	38330
656.668	38352
656.997	38341
657.326	38309
657.655	38218
657.984	37596
658.313	35693
658.642	32575
658.971	28888
659.300	25201
659.629	21514
659.958	17829
660.286	14143
660.615	10459
660.944	7486
661.272	5586
661.601	4320
661.929	3485
662.258	2924
662.586	2557
662.915	2333
663.243	2203
663.571	2130
663.899	2086
664.228	2058
664.556	2039
664.884	2027
665.212	2017
665.540	2011
665.868	2008
666.196	2006
666.524	2005
666.852	2007
667.179	2016
667.507	2031
667.835	2054
668.162	2084
668.490	2121
668.818	2166
669.145	2212
669.473	2258
669.800	2300
670.127	2337
670.455	2368
670.782	2394
671.109	2417
671.436	2436
671.764	2452
672.091	2465
672.418	2476
672.745	2486
673.072	2495
673.399	2506
673.726	2518
674.053	2528
674.379	2531
674.706	2531
675.033	2530
675.359	2526
675.686	2521
676.013	2519
676.339	2520
676.666	2528
676.992	2547
677.318	2574
677.645	2604
677.971	2632
678.297	2657
678.624	2682
678.950	2706
679.276	2728
679.602	2749
679.928	2771
680.254	2799
680.580	2834
680.906	2879
681.232	2934
681.558	2992
681.883	3049
682.209	3102
682.535	3151
682.860	3196
683.186	3234
683.511	3264
683.837	3283
684.162	3298
684.488	3310
684.813	3322
685.138	3334
685.464	3344
685.789	3353
686.114	3361
686.439	3373
686.764	3386
687.089	3395
687.414	3395
687.739	3385
688.064	3365
688.389	3339
688.714	3309
689.039	3276
689.363	3242
689.688	3204
690.013	3167
690.337	3135
690.662	3108
690.986	3084
691.311	3059
691.635	3034
691.959	3011
692.284	2995
692.608	2991
692.932	2997
693.256	3008
693.580	3020
693.904	3037
694.228	3057
694.552	3075
694.876	3083
695.200	3081
695.524	3068
695.848	3048
696.172	3024
696.495	2998
696.819	2971
697.143	2943
697.466	2915
697.790	2891
698.113	2875
698.437	2868
698.760	2867
699.083	2866
699.407	2858
699.730	2843
700.053	2820
700.376	2788
700.699	2743
701.022	2687
701.345	2625
701.668	2569
701.991	2522
702.314	2489
702.637	2474
702.960	2480
703.283	2507
703.605	2553
703.928	2616
704.251	2686
704.573	2756
704.896	2820
705.218	2871
705.540	2912
705.863	2945
706.185	2972
706.507	2995
706.830	3018
707.152	3041
707.474	3066
707.796	3093
708.118	3123
708.440	3151
708.762	3175
709.084	3195
709.406	3207
709.728	3209
710.049	3202
710.371	3190
710.693	3169
711.014	3146
711.336	3123
711.658	3103
711.979	3085
712.301	3069
712.622	3052
712.943	3031
713.265	3005
713.586	2979
713.907	2954
714.228	2931
714.549	2913
714.870	2902
715.191	2897
715.512	2896
715.833	2892
716.154	2884
716.475	2872
716.796	2853
717.117	2827
717.437	2795
717.758	2760
718.078	2724
718.399	2689
718.719	2659
719.040	2632
719.360	2611
719.681	2597
720.001	2587
720.321	2582
720.642	2580
720.962	2584
721.282	2590
721.602	2599
721.922	2609
722.242	2622
722.562	2639
722.882	2660
723.202	2680
723.521	2697
723.841	2716
724.161	2734
724.481	2753
724.800	2772
725.120	2797
725.439	2827
725.759	2861
726.078	2899
726.398	2946
726.717	3003
727.036	3068
727.355	3137
727.675	3203
727.994	3266
728.313	3327
728.632	3379
728.951	3423
729.270	3461
729.589	3496
729.908	3540
730.226	3589
730.545	3645
730.864	3704
731.182	3767
731.501	3832
731.820	3892
732.138	3946
732.457	3993
732.775	4036
733.093	4070
733.412	4090
733.730	4096
734.048	4088
734.367	4070
734.685	4045
735.003	4018
735.321	3994
735.639	3973
735.957	3958
736.275	3944
736.593	3923
736.910	3891
737.228	3845
737.546	3785
737.863	3716
738.181	3640
738.499	3559
738.816	3480
739.134	3402
739.451	3323
739.768	3243
740.086	3167
740.403	3096
740.720	3031
741.038	2969
741.355	2910
741.672	2852
741.989	2791
742.306	2729
742.623	2664
742.940	2601
743.257	2543
743.573	2492
743.890	2451
744.207	2420
744.523	2399
744.840	2385
745.157	2377
745.473	2377
745.790	2386
746.106	2405
746.422	2434
746.739	2469
747.055	2512
747.371	2560
747.687	2610
748.004	2658
748.320	2699
748.636	2737
748.952	2774
749.268	2812
749.584	2848
749.899	2881
750.215	2914
750.531	2953
750.847	2995
751.162	3038
751.478	3079
751.793	3122
752.109	3168
752.424	3217
752.740	3268
753.055	3324
753.370	3393
753.686	3472
754.001	3557
754.316	3647
754.631	3742
754.946	3843
755.261	3949
755.576	4051
755.891	4150
756.206	4249
756.521	4353
756.836	4458
757.150	4560
757.465	4649
757.780	4725
758.094	4789
758.409	4839
758.723	4870
759.038	4884
759.352	4883
759.667	4870
759.981	4846
760.295	4823
760.609	4804
760.923	4793
761.238	4787
761.552	4783
761.866	4777
762.180	4767
762.493	4742
762.807	4692
763.121	4616
763.435	4521
763.749	4416
764.062	4318
764.376	4237
764.689	4181
765.003	4152
765.316	4148
765.630	4161
765.943	4185
766.257	4214
766.570	4237
766.883	4243
767.196	4233
767.509	4206
767.822	4165
768.135	4113
768.448	4057
768.761	3999
769.074	3947
769.387	3909
769.700	3884
770.013	3870
770.325	3858
770.638	3841
770.950	3809
771.263	3757
771.575	3686
771.888	3595
772.200	3490
772.513	3375
772.825	3255
773.137	3132
773.449	3011
773.761	2894
774.074	2784
774.386	2688
774.698	2606
775.010	2539
775.321	2491
775.633	2460
775.945	2442
776.257	2431
776.568	2428
776.880	2435
777.192	2453
777.503	2479
777.815	2513
778.126	2555
778.438	2608
778.749	2663
779.060	2716
779.372	2767
779.683	2816
779.994	2860
780.305	2895
780.616	2918
780.927	2933
781.238	2939
781.549	2932
781.860	2912
782.171	2885
782.481	2855
782.792	2825
783.103	2795
783.413	2763
783.724	2728
784.034	2695
784.345	2665
784.655	2637
784.966	2609
785.276	2578
785.586	2550
785.896	2520
786.207	2490
786.517	2457
786.827	2424
787.137	2395
787.447	2366
787.757	2338
788.066	2311
788.376	2286
788.686	2261
788.996	2235
789.305	2209
789.615	2189
789.925	2178
790.234	2174
790.544	2179
790.853	2190
791.162	2201
791.472	2210
791.781	2214
792.090	2210
792.399	2196
792.708	2174
793.017	2151
793.326	2129
793.635	2108
793.944	2088
794.253	2071
794.562	2059
794.871	2051
795.179	2046
795.488	2039
795.797	2028
796.105	2010
796.414	1979
796.722	1939
797.031	1886
797.339	1823
797.647	1753
797.956	1679
798.264	1611
798.572	1554
798.880	1510
799.188	1478
799.496	1455
799.804	1437
800.112	1423
800.420	1411
800.728	1400
801.035	1385
801.343	1369
801.651	1355
801.958	1351
802.266	1356
802.573	1367
802.881	1382
803.188	1400
803.496	1420
803.803	1440
804.110	1458
804.417	1475
804.724	1489
805.032	1502
805.339	1513
805.646	1520
805.953	1525
806.259	1525
806.566	1523
806.873	1517
807.180	1510
807.486	1501
807.793	1491
808.100	1476
808.406	1451
808.713	1418
809.019	1379
809.326	1340
809.632	1302
809.938	1267
810.244	1235
810.551	1208
810.857	1186
811.163	1166
811.469	1145
811.775	1123
812.081	1100
812.387	1078
812.692	1061
812.998	1048
813.304	1038
813.610	1030
813.915	1023
814.221	1018
814.526	1012
814.832	1009
815.137	1004
815.443	997
815.748	987
816.053	974
816.358	961
816.664	948
816.969	937
817.274	927
817.579	919
817.884	914
818.189	912
818.493	911
818.798	909
819.103	903
819.408	895
819.712	884
820.017	872
820.321	860
820.626	848
820.930	838
821.235	830
821.539	827
821.843	827
822.148	829
822.452	830
822.756	829
823.060	826
823.364	821
823.668	813
823.972	805
824.276	796
824.580	790
824.883	786
825.187	784
825.491	784
825.795	783
826.098	783
826.402	782
826.705	779
827.008	774
827.312	765
827.615	752
827.918	737
828.222	719
828.525	701
828.828	684
829.131	667
829.434	649
829.737	633
830.040	621
830.343	611
830.645	601
830.948	591
831.251	583
831.553	575
831.856	569
832.159	563
832.461	555
832.764	547
833.066	539
833.368	533
833.671	529
833.973	525
834.275	521
834.577	518
834.879	513
835.181	508
835.483	502
835.785	495
836.087	486
836.389	476
836.690	464
836.992	451
837.294	438
837.595	424
837.897	409
838.198	395
838.500	381
838.801	369
839.103	358
839.404	349
839.705	341
840.006	334
840.307	330
840.608	325
840.910	323
841.210	321
841.511	318
841.812	315
842.113	311
842.414	307
842.715	301
843.015	295
843.316	288
843.616	282
843.917	276
844.217	271
844.518	267
844.818	264
845.118	262
845.419	260
845.719	259
846.019	257
846.319	256
846.619	254
846.919	253
847.219	252
847.519	250
847.819	249
848.118	249
848.418	253
848.718	260
849.017	272
849.317	290
849.616	312
849.916	337
850.215	365
850.515	394
850.814	424
851.113	451
851.412	474
851.712	496
852.011	516
852.310	535
852.609	552
852.908	567
853.206	580
853.505	592
853.804	603
854.103	612
854.401	618
854.700	621
854.999	619
855.297	611
855.595	598
855.894	581
856.192	559
856.491	535
856.789	508
857.087	481
857.385	456
857.683	433
857.981	412
858.279	393
858.577	375
858.875	359
859.173	346
859.471	335
859.768	326
860.066	319
860.363	313
860.661	308
860.959	303
861.256	299
861.553	295
861.851	289
862.148	284
862.445	278
862.742	272
863.039	268
863.337	264
863.634	261
863.931	259
864.227	257
864.524	257
864.821	257
865.118	255
865.415	253
865.711	250
866.008	246
866.304	241
866.601	236
866.897	232
867.194	228
867.490	226
867.786	225
868.082	225
868.379	225
868.675	226
868.971	226
869.267	226
869.563	226
869.859	226
870.154	225
870.450	224
870.746	223
871.042	222
871.337	221
871.633	222
871.928	223
872.224	224
872.519	227
872.815	228
873.110	229
873.405	229
873.700	228
873.995	228
874.291	228
874.586	229
874.881	230
875.175	233
875.470	236
875.765	241
876.060	245
876.355	250
876.649	255
876.944	260
877.238	264
877.533	269
877.827	272
878.122	274
878.416	275
878.710	274
879.005	274
879.299	273
879.593	272
879.887	270
880.181	269
880.475	267
880.769	265
881.063	263
881.356	260
881.650	256
881.944	253
882.238	213
882.531	204
882.825	195
883.118	202
883.412	200
883.705	201
883.998	207
884.291	211
884.585	214
884.878	224
>>>>>>>>>> END of Data <<<<<<<<<<