Date	2021年06月15日火曜日 04時33分02秒
Spectrometers	USB2+H05879
ダーク	使用
リファレンス	使用
積分時間[msec]	10
平均回数	280
ｽﾑｰｼﾞﾝｸﾞ	10
Electrical Dark	USE
ピクセル数	2048
計測モード	吸光度
保存開始波長[nm]	190.664
保存終了波長[nm]	884.878
保存ﾋﾟｯﾁ波長[nm]	全波長

>>>>>>>>>> Data Start <<<<<<<<<<<<
190.664	0.000000
191.040	0.000000
191.415	0.000000
191.791	-2.399586
192.166	-0.563750
192.542	-1.006810
192.917	0.000000
193.293	-0.513227
193.668	-0.439595
194.044	-0.827327
194.419	0.000000
194.794	-1.419103
195.170	-1.343429
195.545	-1.252420
195.920	-1.124882
196.296	-1.014546
196.671	-0.846859
197.046	-0.686680
197.421	-0.638331
197.796	-0.635543
198.171	-0.607257
198.546	-0.563798
198.922	-0.506639
199.297	-0.482859
199.672	-0.465249
200.047	-0.442999
200.422	-0.417328
200.796	-0.406689
201.171	-0.384765
201.546	-0.379562
201.921	-0.365342
202.296	-0.349031
202.671	-0.322580
203.045	-0.299333
203.420	-0.292320
203.795	-0.281747
204.170	-0.272683
204.544	-0.273282
204.919	-0.277581
205.294	-0.271330
205.668	-0.258567
206.043	-0.245916
206.417	-0.251900
206.792	-0.247590
207.166	-0.245068
207.541	-0.240775
207.915	-0.245599
208.289	-0.226841
208.664	-0.221239
209.038	-0.232102
209.412	-0.218720
209.787	-0.206801
210.161	-0.198820
210.535	-0.206545
210.909	-0.197177
211.284	-0.196156
211.658	-0.201705
212.032	-0.204005
212.406	-0.208899
212.780	-0.204365
213.154	-0.205476
213.528	-0.198776
213.902	-0.193729
214.276	-0.185132
214.650	-0.186409
215.024	-0.187076
215.398	-0.185317
215.772	-0.176012
216.145	-0.177963
216.519	-0.174826
216.893	-0.165736
217.267	-0.171564
217.640	-0.176902
218.014	-0.164786
218.388	-0.149808
218.761	-0.155611
219.135	-0.144180
219.508	-0.140935
219.882	-0.145542
220.256	-0.143970
220.629	-0.145424
221.003	-0.147734
221.376	-0.154576
221.749	-0.165966
222.123	-0.170204
222.496	-0.172994
222.869	-0.172170
223.243	-0.171649
223.616	-0.173078
223.989	-0.179658
224.362	-0.176202
224.736	-0.174404
225.109	-0.170222
225.482	-0.163396
225.855	-0.172535
226.228	-0.179414
226.601	-0.184135
226.974	-0.184373
227.347	-0.177775
227.720	-0.178685
228.093	-0.181435
228.466	-0.186865
228.839	-0.186535
229.212	-0.186675
229.585	-0.191640
229.957	-0.188252
230.330	-0.180408
230.703	-0.174034
231.076	-0.175278
231.448	-0.178542
231.821	-0.181162
232.194	-0.180208
232.566	-0.183422
232.939	-0.191050
233.311	-0.199461
233.684	-0.193814
234.056	-0.197219
234.429	-0.188866
234.801	-0.189836
235.174	-0.186990
235.546	-0.184721
235.918	-0.182483
236.291	-0.181316
236.663	-0.169240
237.035	-0.165627
237.408	-0.152193
237.780	-0.147151
238.152	-0.150550
238.524	-0.157265
238.896	-0.148535
239.268	-0.144548
239.641	-0.139700
240.013	-0.132046
240.385	-0.128715
240.757	-0.123624
241.129	-0.118495
241.500	-0.118454
241.872	-0.111666
242.244	-0.110330
242.616	-0.112671
242.988	-0.112641
243.360	-0.101454
243.731	-0.091861
244.103	-0.086489
244.475	-0.090224
244.847	-0.086142
245.218	-0.087779
245.590	-0.088674
245.961	-0.086247
246.333	-0.083900
246.705	-0.088046
247.076	-0.087871
247.448	-0.084922
247.819	-0.087167
248.190	-0.078501
248.562	-0.079494
248.933	-0.077328
249.305	-0.076929
249.676	-0.079137
250.047	-0.082347
250.418	-0.081921
250.790	-0.082523
251.161	-0.084450
251.532	-0.088471
251.903	-0.089077
252.274	-0.087317
252.645	-0.086748
253.016	-0.089700
253.387	-0.091181
253.758	-0.090943
254.129	-0.090922
254.500	-0.088655
254.871	-0.090148
255.242	-0.090097
255.613	-0.095462
255.984	-0.100490
256.355	-0.098061
256.725	-0.095850
257.096	-0.099967
257.467	-0.096988
257.838	-0.095685
258.208	-0.096555
258.579	-0.093688
258.949	-0.097421
259.320	-0.092990
259.690	-0.091766
260.061	-0.088236
260.431	-0.084729
260.802	-0.086111
261.172	-0.083282
261.543	-0.076954
261.913	-0.071393
262.283	-0.071417
262.654	-0.071335
263.024	-0.071223
263.394	-0.064419
263.764	-0.067918
264.135	-0.065358
264.505	-0.070006
264.875	-0.063335
265.245	-0.062817
265.615	-0.060675
265.985	-0.054963
266.355	-0.055972
266.725	-0.056770
267.095	-0.058750
267.465	-0.055515
267.835	-0.062004
268.205	-0.068994
268.575	-0.059377
268.944	-0.057426
269.314	-0.062777
269.684	-0.060528
270.054	-0.066669
270.423	-0.061886
270.793	-0.057236
271.163	-0.058617
271.532	-0.052441
271.902	-0.052785
272.271	-0.049476
272.641	-0.050902
273.010	-0.053479
273.380	-0.059850
273.749	-0.066775
274.119	-0.055847
274.488	-0.046050
274.857	-0.042669
275.227	-0.045637
275.596	-0.042373
275.965	-0.035040
276.335	-0.039181
276.704	-0.042598
277.073	-0.047124
277.442	-0.048328
277.811	-0.042567
278.180	-0.039189
278.549	-0.048963
278.918	-0.047830
279.287	-0.047759
279.656	-0.045893
280.025	-0.047494
280.394	-0.053186
280.763	-0.045444
281.132	-0.038410
281.501	-0.032745
281.869	-0.045539
282.238	-0.054088
282.607	-0.059232
282.976	-0.057704
283.344	-0.057413
283.713	-0.060610
284.081	-0.063123
284.450	-0.059976
284.819	-0.051616
285.187	-0.050706
285.556	-0.051078
285.924	-0.051493
286.292	-0.046306
286.661	-0.048194
287.029	-0.051144
287.398	-0.051835
287.766	-0.052223
288.134	-0.044195
288.502	-0.044867
288.871	-0.043743
289.239	-0.041873
289.607	-0.038121
289.975	-0.029578
290.343	-0.021971
290.711	-0.020481
291.079	-0.018823
291.447	-0.018240
291.815	-0.012847
292.183	-0.009854
292.551	-0.008133
292.919	-0.011013
293.287	-0.003390
293.655	-0.000980
294.022	-0.001290
294.390	0.000294
294.758	0.002157
295.126	0.002791
295.493	0.005022
295.861	0.005504
296.229	-0.003391
296.596	0.000316
296.964	0.002116
297.331	0.002449
297.699	0.008224
298.066	0.007240
298.434	0.011314
298.801	0.013725
299.168	0.016018
299.536	0.019971
299.903	0.021632
300.270	0.023463
300.638	0.033088
301.005	0.035722
301.372	0.039700
301.739	0.045036
302.106	0.051482
302.473	0.061999
302.840	0.071599
303.207	0.088529
303.574	0.101418
303.941	0.119859
304.308	0.127026
304.675	0.135408
305.042	0.153441
305.409	0.166143
305.776	0.182272
306.143	0.196805
306.509	0.214886
306.876	0.233530
307.243	0.253158
307.610	0.272716
307.976	0.292554
308.343	0.316222
308.709	0.340038
309.076	0.367473
309.442	0.394323
309.809	0.415801
310.175	0.438062
310.542	0.460954
310.908	0.477878
311.275	0.496713
311.641	0.518129
312.007	0.541304
312.373	0.565399
312.740	0.585353
313.106	0.603542
313.472	0.625270
313.838	0.645396
314.204	0.660408
314.570	0.674911
314.936	0.688218
315.302	0.703132
315.668	0.714449
316.034	0.727845
316.400	0.741550
316.766	0.749223
317.132	0.760869
317.498	0.770582
317.864	0.777132
318.230	0.783742
318.595	0.789944
318.961	0.797362
319.327	0.805611
319.692	0.810518
320.058	0.812475
320.424	0.818040
320.789	0.822987
321.155	0.826122
321.520	0.829826
321.886	0.835640
322.251	0.839887
322.616	0.843779
322.982	0.845804
323.347	0.848437
323.712	0.851682
324.078	0.852468
324.443	0.853661
324.808	0.854882
325.173	0.857053
325.539	0.858997
325.904	0.861040
326.269	0.862700
326.634	0.863386
326.999	0.862876
327.364	0.864004
327.729	0.865381
328.094	0.865344
328.459	0.865262
328.823	0.865415
329.188	0.866216
329.553	0.865360
329.918	0.866185
330.283	0.866209
330.647	0.867081
331.012	0.867372
331.377	0.866660
331.741	0.866814
332.106	0.867640
332.470	0.867105
332.835	0.866855
333.199	0.866859
333.564	0.866822
333.928	0.866898
334.293	0.866841
334.657	0.866837
335.021	0.866757
335.386	0.866578
335.750	0.865990
336.114	0.865435
336.478	0.865443
336.843	0.865056
337.207	0.865231
337.571	0.864766
337.935	0.864555
338.299	0.863691
338.663	0.863359
339.027	0.863275
339.391	0.863396
339.755	0.863067
340.119	0.862979
340.483	0.862748
340.846	0.862743
341.210	0.862413
341.574	0.862239
341.938	0.862235
342.301	0.862431
342.665	0.862373
343.029	0.862524
343.392	0.862792
343.756	0.863110
344.119	0.863395
344.483	0.863495
344.846	0.863433
345.210	0.863783
345.573	0.863684
345.937	0.863922
346.300	0.864139
346.663	0.864234
347.027	0.864144
347.390	0.864151
347.753	0.864065
348.116	0.864302
348.479	0.864737
348.843	0.864811
349.206	0.864753
349.569	0.864707
349.932	0.864839
350.295	0.865009
350.658	0.865068
351.021	0.865402
351.383	0.865619
351.746	0.865433
352.109	0.865451
352.472	0.865478
352.835	0.865270
353.197	0.865666
353.560	0.865947
353.923	0.865901
354.285	0.865909
354.648	0.865889
355.011	0.865694
355.373	0.865881
355.736	0.865984
356.098	0.865612
356.461	0.865574
356.823	0.865649
357.185	0.865977
357.548	0.865791
357.910	0.865619
358.272	0.865428
358.635	0.865192
358.997	0.865140
359.359	0.865209
359.721	0.864987
360.083	0.864975
360.445	0.865001
360.807	0.864736
361.169	0.864548
361.531	0.864554
361.893	0.864464
362.255	0.864545
362.617	0.864643
362.979	0.864609
363.341	0.864295
363.703	0.864195
364.064	0.864358
364.426	0.864203
364.788	0.863720
365.149	0.863693
365.511	0.863584
365.873	0.863458
366.234	0.863213
366.596	0.863070
366.957	0.862923
367.319	0.862837
367.680	0.862735
368.042	0.862550
368.403	0.862550
368.764	0.862425
369.126	0.862074
369.487	0.861937
369.848	0.861654
370.209	0.861548
370.570	0.861383
370.931	0.861395
371.293	0.861351
371.654	0.861171
372.015	0.861225
372.376	0.861298
372.737	0.861207
373.098	0.861087
373.458	0.861219
373.819	0.861456
374.180	0.861417
374.541	0.861431
374.902	0.861371
375.263	0.861366
375.623	0.861348
375.984	0.861221
376.345	0.861183
376.705	0.861308
377.066	0.861354
377.426	0.861493
377.787	0.861365
378.147	0.861397
378.508	0.861184
378.868	0.861069
379.228	0.860923
379.589	0.860733
379.949	0.860628
380.309	0.860644
380.670	0.860360
381.030	0.859743
381.390	0.859398
381.750	0.859008
382.110	0.858642
382.470	0.858501
382.830	0.858219
383.190	0.857881
383.550	0.857731
383.910	0.857474
384.270	0.857267
384.630	0.856992
384.990	0.856467
385.350	0.856154
385.709	0.855501
386.069	0.855218
386.429	0.854706
386.788	0.854376
387.148	0.854021
387.508	0.853463
387.867	0.852737
388.227	0.852463
388.586	0.852334
388.946	0.852052
389.305	0.851786
389.665	0.851475
390.024	0.851086
390.383	0.850778
390.743	0.850362
391.102	0.849748
391.461	0.849237
391.820	0.848742
392.179	0.848021
392.539	0.847455
392.898	0.846962
393.257	0.846500
393.616	0.845997
393.975	0.845350
394.334	0.844675
394.693	0.844167
395.051	0.843729
395.410	0.843150
395.769	0.842508
396.128	0.841846
396.487	0.841044
396.845	0.840202
397.204	0.839330
397.563	0.838312
397.921	0.837210
398.280	0.836172
398.638	0.835168
398.997	0.834173
399.355	0.832966
399.714	0.831921
400.072	0.830705
400.431	0.829543
400.789	0.828505
401.147	0.827405
401.506	0.826317
401.864	0.825179
402.222	0.823721
402.580	0.822305
402.938	0.821047
403.297	0.819661
403.655	0.818450
404.013	0.817006
404.371	0.815593
404.729	0.814278
405.087	0.813026
405.444	0.811856
405.802	0.810627
406.160	0.809460
406.518	0.808118
406.876	0.806929
407.233	0.805751
407.591	0.804668
407.949	0.803372
408.306	0.801976
408.664	0.800476
409.022	0.799176
409.379	0.797744
409.737	0.796351
410.094	0.794936
410.451	0.793502
410.809	0.792160
411.166	0.790650
411.523	0.789436
411.881	0.788018
412.238	0.786339
412.595	0.784763
412.952	0.783210
413.310	0.781695
413.667	0.780217
414.024	0.778894
414.381	0.777413
414.738	0.775793
415.095	0.774055
415.452	0.772323
415.809	0.770726
416.165	0.769207
416.522	0.767424
416.879	0.765667
417.236	0.763832
417.593	0.761965
417.949	0.760235
418.306	0.758459
418.663	0.756839
419.019	0.755000
419.376	0.753473
419.732	0.751997
420.089	0.750586
420.445	0.749060
420.802	0.747623
421.158	0.745915
421.514	0.744250
421.871	0.742657
422.227	0.741163
422.583	0.739698
422.939	0.738107
423.295	0.736459
423.652	0.734690
424.008	0.733125
424.364	0.731422
424.720	0.729842
425.076	0.728250
425.432	0.726458
425.788	0.724589
426.143	0.722524
426.499	0.720688
426.855	0.718819
427.211	0.717022
427.567	0.715082
427.922	0.713322
428.278	0.711342
428.634	0.709786
428.989	0.707878
429.345	0.706133
429.700	0.704270
430.056	0.702579
430.411	0.700917
430.767	0.699240
431.122	0.697486
431.478	0.695636
431.833	0.693773
432.188	0.691864
432.543	0.690053
432.899	0.688060
433.254	0.686156
433.609	0.684389
433.964	0.682376
434.319	0.680265
434.674	0.678156
435.029	0.676226
435.384	0.674117
435.739	0.672189
436.094	0.670152
436.449	0.668391
436.804	0.666513
437.158	0.664684
437.513	0.662715
437.868	0.660711
438.223	0.658725
438.577	0.656831
438.932	0.655066
439.287	0.653212
439.641	0.651476
439.996	0.649568
440.350	0.647894
440.704	0.646200
441.059	0.644380
441.413	0.642592
441.768	0.640734
442.122	0.638983
442.476	0.637206
442.830	0.635500
443.185	0.633755
443.539	0.632057
443.893	0.630295
444.247	0.628589
444.601	0.626917
444.955	0.625163
445.309	0.623468
445.663	0.621601
446.017	0.619774
446.371	0.617872
446.724	0.616032
447.078	0.614141
447.432	0.612316
447.786	0.610441
448.139	0.608378
448.493	0.606498
448.847	0.604692
449.200	0.602835
449.554	0.601015
449.907	0.599166
450.261	0.597281
450.614	0.595468
450.968	0.593548
451.321	0.591695
451.674	0.589821
452.027	0.587749
452.381	0.585904
452.734	0.583984
453.087	0.582190
453.440	0.580138
453.793	0.578291
454.146	0.576397
454.499	0.574570
454.852	0.572688
455.205	0.570928
455.558	0.569257
455.911	0.567452
456.264	0.565623
456.617	0.563979
456.970	0.562318
457.322	0.560763
457.675	0.559280
458.028	0.557644
458.380	0.556213
458.733	0.554679
459.086	0.553142
459.438	0.551756
459.791	0.550190
460.143	0.548734
460.496	0.547283
460.848	0.545913
461.200	0.544425
461.553	0.543008
461.905	0.541551
462.257	0.540100
462.609	0.538660
462.961	0.537338
463.314	0.536041
463.666	0.534832
464.018	0.533523
464.370	0.532332
464.722	0.531017
465.074	0.529659
465.426	0.528546
465.777	0.527286
466.129	0.526149
466.481	0.524985
466.833	0.523891
467.184	0.522739
467.536	0.521431
467.888	0.520169
468.239	0.518793
468.591	0.517315
468.943	0.515816
469.294	0.514287
469.646	0.512786
469.997	0.511267
470.348	0.509794
470.700	0.508280
471.051	0.506808
471.402	0.505505
471.754	0.504060
472.105	0.502748
472.456	0.501562
472.807	0.500277
473.158	0.499269
473.509	0.498141
473.860	0.497041
474.211	0.495958
474.562	0.494865
474.913	0.493769
475.264	0.492650
475.615	0.491629
475.966	0.490653
476.316	0.489582
476.667	0.488522
477.018	0.487440
477.368	0.486331
477.719	0.485235
478.070	0.484217
478.420	0.483108
478.771	0.481951
479.121	0.480902
479.472	0.479851
479.822	0.478758
480.172	0.477695
480.523	0.476477
480.873	0.475134
481.223	0.473478
481.573	0.471777
481.924	0.470155
482.274	0.468613
482.624	0.467262
482.974	0.466153
483.324	0.465323
483.674	0.464686
484.024	0.464057
484.374	0.463444
484.724	0.462852
485.073	0.462207
485.423	0.461558
485.773	0.460868
486.123	0.460245
486.472	0.459537
486.822	0.458872
487.172	0.458195
487.521	0.457513
487.871	0.456853
488.220	0.456186
488.570	0.455610
488.919	0.454858
489.268	0.453993
489.618	0.453065
489.967	0.451926
490.316	0.450564
490.666	0.448937
491.015	0.447316
491.364	0.445833
491.713	0.444454
492.062	0.443151
492.411	0.442001
492.760	0.440834
493.109	0.439767
493.458	0.438594
493.807	0.437542
494.156	0.436399
494.505	0.435263
494.853	0.434142
495.202	0.432962
495.551	0.431872
495.900	0.430693
496.248	0.429583
496.597	0.428467
496.945	0.427399
497.294	0.426290
497.642	0.425202
497.991	0.424115
498.339	0.422974
498.688	0.421900
499.036	0.420900
499.384	0.419867
499.732	0.418765
500.081	0.417740
500.429	0.416695
500.777	0.415694
501.125	0.414728
501.473	0.413711
501.821	0.412741
502.169	0.411735
502.517	0.410765
502.865	0.409848
503.213	0.408888
503.561	0.408004
503.908	0.407076
504.256	0.406117
504.604	0.405212
504.952	0.404234
505.299	0.403221
505.647	0.402206
505.994	0.401208
506.342	0.400205
506.689	0.399182
507.037	0.398237
507.384	0.397275
507.732	0.396328
508.079	0.395408
508.426	0.394423
508.774	0.393539
509.121	0.392641
509.468	0.391825
509.815	0.390987
510.162	0.390055
510.509	0.389209
510.856	0.388269
511.203	0.387445
511.550	0.386578
511.897	0.385724
512.244	0.384918
512.591	0.384094
512.938	0.383300
513.284	0.382461
513.631	0.381581
513.978	0.380713
514.324	0.379815
514.671	0.378966
515.018	0.378070
515.364	0.377185
515.711	0.376415
516.057	0.375523
516.403	0.374683
516.750	0.373806
517.096	0.372972
517.443	0.372192
517.789	0.371397
518.135	0.370661
518.481	0.369791
518.827	0.369002
519.173	0.368167
519.519	0.367326
519.865	0.366538
520.211	0.365747
520.557	0.364940
520.903	0.364141
521.249	0.363409
521.595	0.362603
521.941	0.361710
522.287	0.360789
522.632	0.359869
522.978	0.358888
523.324	0.357967
523.669	0.357058
524.015	0.356146
524.360	0.355194
524.706	0.354266
525.051	0.353325
525.397	0.352397
525.742	0.351585
526.087	0.350719
526.433	0.349890
526.778	0.349102
527.123	0.348286
527.468	0.347468
527.813	0.346694
528.158	0.345843
528.504	0.344951
528.849	0.344068
529.193	0.343240
529.538	0.342383
529.883	0.341471
530.228	0.340570
530.573	0.339730
530.918	0.338838
531.263	0.338039
531.607	0.337253
531.952	0.336437
532.296	0.335687
532.641	0.334890
532.986	0.334022
533.330	0.333149
533.675	0.332306
534.019	0.331482
534.363	0.330591
534.708	0.329693
535.052	0.328827
535.396	0.328029
535.741	0.327304
536.085	0.326521
536.429	0.325674
536.773	0.324916
537.117	0.324140
537.461	0.323179
537.805	0.322211
538.149	0.321224
538.493	0.320212
538.837	0.319240
539.181	0.318228
539.524	0.317170
539.868	0.316147
540.212	0.315145
540.556	0.314152
540.899	0.313200
541.243	0.312231
541.586	0.311267
541.930	0.310358
542.273	0.309342
542.617	0.308306
542.960	0.307175
543.304	0.306087
543.647	0.304975
543.990	0.303872
544.333	0.302733
544.677	0.301760
545.020	0.300795
545.363	0.299840
545.706	0.298899
546.049	0.297914
546.392	0.296958
546.735	0.296001
547.078	0.294968
547.421	0.293925
547.764	0.292883
548.106	0.291695
548.449	0.290486
548.792	0.289342
549.135	0.288160
549.477	0.287036
549.820	0.285981
550.162	0.284960
550.505	0.283861
550.847	0.282839
551.190	0.281711
551.532	0.280535
551.875	0.279306
552.217	0.278006
552.559	0.276758
552.901	0.275518
553.244	0.274292
553.586	0.273117
553.928	0.271986
554.270	0.270953
554.612	0.269920
554.954	0.268874
555.296	0.267838
555.638	0.266738
555.980	0.265511
556.322	0.264231
556.663	0.262924
557.005	0.261508
557.347	0.260187
557.689	0.258896
558.030	0.257651
558.372	0.256396
558.713	0.255160
559.055	0.253912
559.396	0.252676
559.738	0.251369
560.079	0.249981
560.421	0.248683
560.762	0.247425
561.103	0.246089
561.444	0.244795
561.786	0.243507
562.127	0.242253
562.468	0.240958
562.809	0.239638
563.150	0.238265
563.491	0.236859
563.832	0.235410
564.173	0.233941
564.514	0.232333
564.855	0.230688
565.195	0.228995
565.536	0.227283
565.877	0.225630
566.218	0.223987
566.558	0.222415
566.899	0.220953
567.239	0.219649
567.580	0.218441
567.920	0.217396
568.261	0.216483
568.601	0.215582
568.941	0.214750
569.282	0.213975
569.622	0.213194
569.962	0.212379
570.302	0.211629
570.643	0.210946
570.983	0.210334
571.323	0.209752
571.663	0.209205
572.003	0.208661
572.343	0.208083
572.683	0.207416
573.022	0.206690
573.362	0.205939
573.702	0.205179
574.042	0.204446
574.381	0.203742
574.721	0.203064
575.061	0.202405
575.400	0.201818
575.740	0.201227
576.079	0.200629
576.419	0.199896
576.758	0.199124
577.097	0.198311
577.437	0.197462
577.776	0.196528
578.115	0.195605
578.454	0.194747
578.794	0.194021
579.133	0.193400
579.472	0.192863
579.811	0.192392
580.150	0.191917
580.489	0.191431
580.828	0.190872
581.167	0.190274
581.505	0.189675
581.844	0.189066
582.183	0.188424
582.522	0.187773
582.860	0.187139
583.199	0.186521
583.538	0.185988
583.876	0.185487
584.215	0.185040
584.553	0.184586
584.891	0.184199
585.230	0.183780
585.568	0.183316
585.906	0.182751
586.245	0.182142
586.583	0.181505
586.921	0.180901
587.259	0.180401
587.597	0.179907
587.935	0.179406
588.273	0.178860
588.611	0.178181
588.949	0.177462
589.287	0.176729
589.625	0.175951
589.963	0.175232
590.300	0.174581
590.638	0.173994
590.976	0.173441
591.313	0.172841
591.651	0.172213
591.989	0.171572
592.326	0.170954
592.664	0.170405
593.001	0.169876
593.338	0.169385
593.676	0.168964
594.013	0.168566
594.350	0.168154
594.687	0.167769
595.025	0.167482
595.362	0.167146
595.699	0.166791
596.036	0.166426
596.373	0.166081
596.710	0.165695
597.047	0.165273
597.384	0.164842
597.720	0.164393
598.057	0.163948
598.394	0.163470
598.731	0.163017
599.067	0.162551
599.404	0.162062
599.741	0.161560
600.077	0.161084
600.414	0.160680
600.750	0.160316
601.087	0.159985
601.423	0.159631
601.759	0.159273
602.096	0.158865
602.432	0.158522
602.768	0.158157
603.104	0.157781
603.440	0.157390
603.776	0.157058
604.112	0.156736
604.448	0.156449
604.784	0.156163
605.120	0.155851
605.456	0.155596
605.792	0.155339
606.128	0.155077
606.463	0.154862
606.799	0.154586
607.135	0.154322
607.470	0.154074
607.806	0.153757
608.142	0.153447
608.477	0.153140
608.812	0.152863
609.148	0.152592
609.483	0.152285
609.819	0.152024
610.154	0.151758
610.489	0.151449
610.824	0.151128
611.159	0.150851
611.494	0.150514
611.830	0.150259
612.165	0.150076
612.500	0.149878
612.834	0.149683
613.169	0.149483
613.504	0.149219
613.839	0.148980
614.174	0.148743
614.509	0.148433
614.843	0.148157
615.178	0.147890
615.512	0.147711
615.847	0.147489
616.182	0.147331
616.516	0.147171
616.850	0.147012
617.185	0.146820
617.519	0.146649
617.853	0.146498
618.188	0.146215
618.522	0.145937
618.856	0.145616
619.190	0.145248
619.524	0.144932
619.858	0.144652
620.192	0.144416
620.526	0.144207
620.860	0.144072
621.194	0.143894
621.528	0.143688
621.862	0.143502
622.195	0.143340
622.529	0.143060
622.863	0.142851
623.196	0.142600
623.530	0.142402
623.864	0.142193
624.197	0.141987
624.530	0.141769
624.864	0.141584
625.197	0.141480
625.531	0.141366
625.864	0.141172
626.197	0.140990
626.530	0.140839
626.863	0.140587
627.196	0.140325
627.529	0.140084
627.862	0.139816
628.195	0.139542
628.528	0.139274
628.861	0.138973
629.194	0.138706
629.527	0.138467
629.860	0.138235
630.192	0.137940
630.525	0.137600
630.858	0.137340
631.190	0.137078
631.523	0.136764
631.855	0.136350
632.188	0.136007
632.520	0.135692
632.852	0.135423
633.185	0.135162
633.517	0.134902
633.849	0.134733
634.182	0.134628
634.514	0.134524
634.846	0.134395
635.178	0.134274
635.510	0.134168
635.842	0.134088
636.174	0.133975
636.506	0.133891
636.837	0.133707
637.169	0.133603
637.501	0.133459
637.833	0.133297
638.164	0.133193
638.496	0.133012
638.828	0.132837
639.159	0.132581
639.491	0.132303
639.822	0.132053
640.154	0.131709
640.485	0.131304
640.816	0.130927
641.147	0.130477
641.479	0.129999
641.810	0.129530
642.141	0.129127
642.472	0.128837
642.803	0.128537
643.134	0.128169
643.465	0.127859
643.796	0.127607
644.127	0.127289
644.458	0.127088
644.789	0.126963
645.119	0.126893
645.450	0.127032
645.781	0.127307
646.111	0.127597
646.442	0.127913
646.773	0.128100
647.103	0.128328
647.433	0.128463
647.764	0.128528
648.094	0.128584
648.425	0.128674
648.755	0.128815
649.085	0.128820
649.415	0.128903
649.745	0.129027
650.075	0.129122
650.405	0.129150
650.735	0.127850
651.065	0.119659
651.395	0.112622
651.725	0.100503
652.055	0.068808
652.385	0.050961
652.715	0.039491
653.044	0.031509
653.374	0.025649
653.704	0.021185
654.033	0.029186
654.363	0.035109
654.692	0.038549
655.022	0.040590
655.351	0.041834
655.680	0.042568
656.010	0.042966
656.339	0.043139
656.668	0.043178
656.997	0.043146
657.326	0.043068
657.655	0.042963
657.984	0.042372
658.313	0.039214
658.642	0.035322
658.971	0.040904
659.300	0.048030
659.629	0.057469
659.958	0.070560
660.286	0.089939
660.615	0.121608
660.944	0.126654
661.272	0.125343
661.601	0.124646
661.929	0.124432
662.258	0.124646
662.586	0.124903
662.915	0.125079
663.243	0.124960
663.571	0.124694
663.899	0.124502
664.228	0.124245
664.556	0.124092
664.884	0.123988
665.212	0.123898
665.540	0.123846
665.868	0.123747
666.196	0.123845
666.524	0.123854
666.852	0.123872
667.179	0.123833
667.507	0.123794
667.835	0.123785
668.162	0.123791
668.490	0.123841
668.818	0.123869
669.145	0.123973
669.473	0.124145
669.800	0.124270
670.127	0.124419
670.455	0.124577
670.782	0.124736
671.109	0.124840
671.436	0.125017
671.764	0.125106
672.091	0.125133
672.418	0.125251
672.745	0.125280
673.072	0.125283
673.399	0.125294
673.726	0.125274
674.053	0.125336
674.379	0.125384
674.706	0.125402
675.033	0.125334
675.359	0.125364
675.686	0.125349
676.013	0.125282
676.339	0.125136
676.666	0.125045
676.992	0.125005
677.318	0.125007
677.645	0.124989
677.971	0.124977
678.297	0.124959
678.624	0.125010
678.950	0.125023
679.276	0.124970
679.602	0.124921
679.928	0.124865
680.254	0.124698
680.580	0.124611
680.906	0.124464
681.232	0.124474
681.558	0.124546
681.883	0.124748
682.209	0.124904
682.535	0.125042
682.860	0.125106
683.186	0.125258
683.511	0.125342
683.837	0.125245
684.162	0.125214
684.488	0.125188
684.813	0.125187
685.138	0.125158
685.464	0.125078
685.789	0.125000
686.114	0.124938
686.439	0.124911
686.764	0.124836
687.089	0.124898
687.414	0.124985
687.739	0.125108
688.064	0.125124
688.389	0.125096
688.714	0.125031
689.039	0.124852
689.363	0.124756
689.688	0.124712
690.013	0.124598
690.337	0.124535
690.662	0.124574
690.986	0.124609
691.311	0.124521
691.635	0.124501
691.959	0.124441
692.284	0.124338
692.608	0.124228
692.932	0.124221
693.256	0.124205
693.580	0.124301
693.904	0.124389
694.228	0.124376
694.552	0.124465
694.876	0.124544
695.200	0.124551
695.524	0.124472
695.848	0.124406
696.172	0.124287
696.495	0.124070
696.819	0.123925
697.143	0.123700
697.466	0.123499
697.790	0.123220
698.113	0.123057
698.437	0.122800
698.760	0.122594
699.083	0.122486
699.407	0.122468
699.730	0.122344
700.053	0.122306
700.376	0.122239
700.699	0.121992
701.022	0.121745
701.345	0.121308
701.668	0.120729
701.991	0.120164
702.314	0.119560
702.637	0.119013
702.960	0.118488
703.283	0.118126
703.605	0.117726
703.928	0.117513
704.251	0.117492
704.573	0.117456
704.896	0.117412
705.218	0.117341
705.540	0.117242
705.863	0.116975
706.185	0.116609
706.507	0.116250
706.830	0.115778
707.152	0.115229
707.474	0.114765
707.796	0.114314
708.118	0.113866
708.440	0.113628
708.762	0.113519
709.084	0.113387
709.406	0.113262
709.728	0.113168
710.049	0.113032
710.371	0.112918
710.693	0.112651
711.014	0.112222
711.336	0.111918
711.658	0.111668
711.979	0.111481
712.301	0.111239
712.622	0.111184
712.943	0.111077
713.265	0.110964
713.586	0.110776
713.907	0.110726
714.228	0.110753
714.549	0.110733
714.870	0.110841
715.191	0.110799
715.512	0.110761
715.833	0.110761
716.154	0.110676
716.475	0.110542
716.796	0.110314
717.117	0.110079
717.437	0.109815
717.758	0.109547
718.078	0.109169
718.399	0.108717
718.719	0.108279
719.040	0.107984
719.360	0.107663
719.681	0.107398
720.001	0.107217
720.321	0.107102
720.642	0.106908
720.962	0.106631
721.282	0.106478
721.602	0.106339
721.922	0.106132
722.242	0.105831
722.562	0.105618
722.882	0.105478
723.202	0.105404
723.521	0.105306
723.841	0.105178
724.161	0.105102
724.481	0.105036
724.800	0.104979
725.120	0.104977
725.439	0.104940
725.759	0.104798
726.078	0.104757
726.398	0.104610
726.717	0.104539
727.036	0.104489
727.355	0.104527
727.675	0.104711
727.994	0.104865
728.313	0.104949
728.632	0.105041
728.951	0.105106
729.270	0.105050
729.589	0.104882
729.908	0.104674
730.226	0.104430
730.545	0.104262
730.864	0.103988
731.182	0.103761
731.501	0.103594
731.820	0.103445
732.138	0.103309
732.457	0.103194
732.775	0.103023
733.093	0.102974
733.412	0.102808
733.730	0.102712
734.048	0.102513
734.367	0.102167
734.685	0.101771
735.003	0.101312
735.321	0.100983
735.639	0.100655
735.957	0.100403
736.275	0.100200
736.593	0.100075
736.910	0.099993
737.228	0.099867
737.546	0.099840
737.863	0.099726
738.181	0.099482
738.499	0.099195
738.816	0.098964
739.134	0.098642
739.451	0.098404
739.768	0.098126
740.086	0.097834
740.403	0.097513
740.720	0.097173
741.038	0.096854
741.355	0.096528
741.672	0.096219
741.989	0.095757
742.306	0.095324
742.623	0.094807
742.940	0.094276
743.257	0.093555
743.573	0.092998
743.890	0.092268
744.207	0.091559
744.523	0.091030
744.840	0.090550
745.157	0.090074
745.473	0.089521
745.790	0.089205
746.106	0.088785
746.422	0.088468
746.739	0.088227
747.055	0.087956
747.371	0.087770
747.687	0.087679
748.004	0.087617
748.320	0.087566
748.636	0.087556
748.952	0.087516
749.268	0.087529
749.584	0.087581
749.899	0.087615
750.215	0.087525
750.531	0.087557
750.847	0.087594
751.162	0.087637
751.478	0.087688
751.793	0.087665
752.109	0.087598
752.424	0.087471
752.740	0.087371
753.055	0.087323
753.370	0.087343
753.686	0.087436
754.001	0.087612
754.316	0.087793
754.631	0.087975
754.946	0.088084
755.261	0.088193
755.576	0.088256
755.891	0.088212
756.206	0.088118
756.521	0.087990
756.836	0.087928
757.150	0.087863
757.465	0.087798
757.780	0.087697
758.094	0.087659
758.409	0.087654
758.723	0.087700
759.038	0.087714
759.352	0.087680
759.667	0.087556
759.981	0.087357
760.295	0.087116
760.609	0.086711
760.923	0.086380
761.238	0.086032
761.552	0.085715
761.866	0.085415
762.180	0.085213
762.493	0.085124
762.807	0.084936
763.121	0.084823
763.435	0.084632
763.749	0.084338
764.062	0.084088
764.376	0.083800
764.689	0.083458
765.003	0.083146
765.316	0.082866
765.630	0.082767
765.943	0.082540
766.257	0.082396
766.570	0.082266
766.883	0.082028
767.196	0.081854
767.509	0.081473
767.822	0.081106
768.135	0.080786
768.448	0.080447
768.761	0.080013
769.074	0.079619
769.387	0.079331
769.700	0.079002
770.013	0.078722
770.325	0.078578
770.638	0.078439
770.950	0.078252
771.263	0.078076
771.575	0.077855
771.888	0.077543
772.200	0.077051
772.513	0.076688
772.825	0.076309
773.137	0.075881
773.449	0.075520
773.761	0.075105
774.074	0.074849
774.386	0.074560
774.698	0.074214
775.010	0.073840
775.321	0.073493
775.633	0.073056
775.945	0.072820
776.257	0.072670
776.568	0.072592
776.880	0.072454
777.192	0.072244
777.503	0.072156
777.815	0.072090
778.126	0.072039
778.438	0.072133
778.749	0.072375
779.060	0.072530
779.372	0.072572
779.683	0.072706
779.994	0.072828
780.305	0.072880
780.616	0.072979
780.927	0.073029
781.238	0.073065
781.549	0.073095
781.860	0.073163
782.171	0.073200
782.481	0.073180
782.792	0.073135
783.103	0.073057
783.413	0.073102
783.724	0.073002
784.034	0.072881
784.345	0.072733
784.655	0.072622
784.966	0.072398
785.276	0.072161
785.586	0.071982
785.896	0.071851
786.207	0.071711
786.517	0.071652
786.827	0.071646
787.137	0.071519
787.447	0.071392
787.757	0.071371
788.066	0.071388
788.376	0.071390
788.686	0.071341
788.996	0.071332
789.305	0.071217
789.615	0.071142
789.925	0.070939
790.234	0.070852
790.544	0.070850
790.853	0.070831
791.162	0.070951
791.472	0.071116
791.781	0.071202
792.090	0.071255
792.399	0.071251
792.708	0.071143
793.017	0.070947
793.326	0.070772
793.635	0.070668
793.944	0.070512
794.253	0.070218
794.562	0.069949
794.871	0.069747
795.179	0.069619
795.488	0.069497
795.797	0.069517
796.105	0.069437
796.414	0.069366
796.722	0.069351
797.031	0.069285
797.339	0.069094
797.647	0.068687
797.956	0.068252
798.264	0.067776
798.572	0.067358
798.880	0.067039
799.188	0.066647
799.496	0.066382
799.804	0.066304
800.112	0.066046
800.420	0.066033
800.728	0.066065
801.035	0.065972
801.343	0.065716
801.651	0.065503
801.958	0.065205
802.266	0.064951
802.573	0.064910
802.881	0.064959
803.188	0.064897
803.496	0.065016
803.803	0.065289
804.110	0.065491
804.417	0.065483
804.724	0.065396
805.032	0.065416
805.339	0.065370
805.646	0.065335
805.953	0.065135
806.259	0.065000
806.566	0.064888
806.873	0.064842
807.180	0.064685
807.486	0.064642
807.793	0.064782
808.100	0.064805
808.406	0.064872
808.713	0.064983
809.019	0.064749
809.326	0.064425
809.632	0.064103
809.938	0.063471
810.244	0.062961
810.551	0.062601
810.857	0.062218
811.163	0.062132
811.469	0.061886
811.775	0.061785
812.081	0.061672
812.387	0.061800
812.692	0.061823
812.998	0.062033
813.304	0.061993
813.610	0.062219
813.915	0.062277
814.221	0.062172
814.526	0.062216
814.832	0.062260
815.137	0.061997
815.443	0.062027
815.748	0.062084
816.053	0.062179
816.358	0.062136
816.664	0.062108
816.969	0.061902
817.274	0.062184
817.579	0.062029
817.884	0.061963
818.189	0.062002
818.493	0.062129
818.798	0.062184
819.103	0.062054
819.408	0.061726
819.712	0.061454
820.017	0.061217
820.321	0.060971
820.626	0.060902
820.930	0.060582
821.235	0.060412
821.539	0.060364
821.843	0.060271
822.148	0.060097
822.452	0.060008
822.756	0.060385
823.060	0.060289
823.364	0.060628
823.668	0.060634
823.972	0.060805
824.276	0.060867
824.580	0.060625
824.883	0.060720
825.187	0.060725
825.491	0.060867
825.795	0.061016
826.098	0.061391
826.402	0.061308
826.705	0.061545
827.008	0.061337
827.312	0.061472
827.615	0.061227
827.918	0.060968
828.222	0.060666
828.525	0.060520
828.828	0.060692
829.131	0.060635
829.434	0.060578
829.737	0.059950
830.040	0.059224
830.343	0.058628
830.645	0.058484
830.948	0.058436
831.251	0.057961
831.553	0.057500
831.856	0.057134
832.159	0.057171
832.461	0.057069
832.764	0.057004
833.066	0.056703
833.368	0.056745
833.671	0.056569
833.973	0.056566
834.275	0.056538
834.577	0.056588
834.879	0.056623
835.181	0.056095
835.483	0.055468
835.785	0.055235
836.087	0.055124
836.389	0.055393
836.690	0.055159
836.992	0.054202
837.294	0.053481
837.595	0.052401
837.897	0.051965
838.198	0.051355
838.500	0.050373
838.801	0.049404
839.103	0.048944
839.404	0.048696
839.705	0.048040
840.006	0.047396
840.307	0.047347
840.608	0.047347
840.910	0.047184
841.210	0.047534
841.511	0.047565
841.812	0.047860
842.113	0.047996
842.414	0.047506
842.715	0.046538
843.015	0.045740
843.316	0.045837
843.616	0.044897
843.917	0.045121
844.217	0.044632
844.518	0.044355
844.818	0.043806
845.118	0.043332
845.419	0.043482
845.719	0.043360
846.019	0.043370
846.319	0.043912
846.619	0.043371
846.919	0.043484
847.219	0.043792
847.519	0.042808
847.819	0.043034
848.118	0.042042
848.418	0.041757
848.718	0.041681
849.017	0.042248
849.317	0.043140
849.616	0.043605
849.916	0.044822
850.215	0.045762
850.515	0.047185
850.814	0.047755
851.113	0.048795
851.412	0.049730
851.712	0.049798
852.011	0.049843
852.310	0.050354
852.609	0.050438
852.908	0.050933
853.206	0.050986
853.505	0.051393
853.804	0.051662
854.103	0.051814
854.401	0.052302
854.700	0.052353
854.999	0.052409
855.297	0.052483
855.595	0.052638
855.894	0.052700
856.192	0.052760
856.491	0.052636
856.789	0.052164
857.087	0.051932
857.385	0.051402
857.683	0.050938
857.981	0.050948
858.279	0.050781
858.577	0.049950
858.875	0.049437
859.173	0.048508
859.471	0.048399
859.768	0.047730
860.066	0.046920
860.363	0.046591
860.661	0.045783
860.959	0.045964
861.256	0.046396
861.553	0.046704
861.851	0.046079
862.148	0.045668
862.445	0.044947
862.742	0.044738
863.039	0.043942
863.337	0.043587
863.634	0.042873
863.931	0.041974
864.227	0.041276
864.524	0.040662
864.821	0.040707
865.118	0.040615
865.415	0.040960
865.711	0.040358
866.008	0.039783
866.304	0.040121
866.601	0.039528
866.897	0.039415
867.194	0.038619
867.490	0.038153
867.786	0.037410
868.082	0.037607
868.379	0.037380
868.675	0.037295
868.971	0.037257
869.267	0.037312
869.563	0.038173
869.859	0.037962
870.154	0.038091
870.450	0.038535
870.746	0.038502
871.042	0.038595
871.337	0.038246
871.633	0.038165
871.928	0.038454
872.224	0.038120
872.519	0.038209
872.815	0.038270
873.110	0.038413
873.405	0.038119
873.700	0.037971
873.995	0.037822
874.291	0.037596
874.586	0.038019
874.881	0.038035
875.175	0.037347
875.470	0.037710
875.765	0.037101
876.060	0.037824
876.355	0.038179
876.649	0.038083
876.944	0.038602
877.238	0.039096
877.533	0.039989
877.827	0.040142
878.122	0.040554
878.416	0.041130
878.710	0.041373
879.005	0.041304
879.299	0.041356
879.593	0.041447
879.887	0.041128
880.181	0.041000
880.475	0.041525
880.769	0.041474
881.063	0.041697
881.356	0.042438
881.650	0.042148
881.944	0.042364
882.238	0.039372
882.531	0.034175
882.825	0.025748
883.118	0.029855
883.412	0.045517
883.705	0.038750
883.998	0.038457
884.291	0.043780
884.585	0.037286
884.878	0.044998
>>>>>>>>>> END of Data <<<<<<<<<<
>>>>>>>>>> Raw Data Start <<<<<<<<
190.664	-398
191.040	5
191.415	5
191.791	5
192.166	8
192.542	12
192.917	8
193.293	9
193.668	6
194.044	5
194.419	-9
194.794	10
195.170	11
195.545	11
195.920	11
196.296	12
196.671	12
197.046	13
197.421	13
197.796	14
198.171	15
198.546	15
198.922	15
199.297	15
199.672	16
200.047	17
200.422	17
200.796	17
201.171	17
201.546	17
201.921	17
202.296	17
202.671	17
203.045	17
203.420	18
203.795	18
204.170	18
204.544	18
204.919	18
205.294	18
205.668	18
206.043	18
206.417	17
206.792	17
207.166	17
207.541	17
207.915	17
208.289	17
208.664	16
209.038	17
209.412	17
209.787	17
210.161	17
210.535	18
210.909	18
211.284	18
211.658	18
212.032	17
212.406	17
212.780	17
213.154	17
213.528	17
213.902	17
214.276	17
214.650	17
215.024	17
215.398	17
215.772	17
216.145	17
216.519	17
216.893	17
217.267	17
217.640	17
218.014	17
218.388	17
218.761	17
219.135	17
219.508	17
219.882	17
220.256	18
220.629	18
221.003	18
221.376	18
221.749	19
222.123	19
222.496	19
222.869	19
223.243	19
223.616	19
223.989	19
224.362	20
224.736	20
225.109	20
225.482	20
225.855	20
226.228	20
226.601	20
226.974	20
227.347	20
227.720	20
228.093	20
228.466	20
228.839	20
229.212	20
229.585	19
229.957	19
230.330	19
230.703	19
231.076	20
231.448	20
231.821	19
232.194	19
232.566	19
232.939	19
233.311	19
233.684	19
234.056	20
234.429	19
234.801	19
235.174	19
235.546	19
235.918	20
236.291	20
236.663	20
237.035	20
237.408	20
237.780	20
238.152	20
238.524	20
238.896	20
239.268	20
239.641	20
240.013	20
240.385	20
240.757	20
241.129	20
241.500	20
241.872	20
242.244	20
242.616	20
242.988	20
243.360	20
243.731	19
244.103	19
244.475	19
244.847	19
245.218	19
245.590	19
245.961	19
246.333	20
246.705	20
247.076	20
247.448	20
247.819	20
248.190	20
248.562	20
248.933	20
249.305	20
249.676	21
250.047	21
250.418	21
250.790	21
251.161	21
251.532	21
251.903	21
252.274	21
252.645	21
253.016	21
253.387	21
253.758	21
254.129	21
254.500	21
254.871	22
255.242	22
255.613	22
255.984	22
256.355	21
256.725	21
257.096	21
257.467	21
257.838	21
258.208	21
258.579	21
258.949	22
259.320	22
259.690	22
260.061	22
260.431	22
260.802	22
261.172	22
261.543	22
261.913	22
262.283	22
262.654	22
263.024	21
263.394	21
263.764	21
264.135	22
264.505	22
264.875	22
265.245	22
265.615	22
265.985	21
266.355	21
266.725	22
267.095	22
267.465	22
267.835	22
268.205	22
268.575	21
268.944	21
269.314	21
269.684	21
270.054	21
270.423	21
270.793	21
271.163	21
271.532	21
271.902	21
272.271	20
272.641	20
273.010	21
273.380	21
273.749	21
274.119	21
274.488	21
274.857	21
275.227	21
275.596	21
275.965	21
276.335	21
276.704	22
277.073	22
277.442	22
277.811	22
278.180	22
278.549	23
278.918	23
279.287	23
279.656	23
280.025	23
280.394	24
280.763	24
281.132	23
281.501	23
281.869	23
282.238	23
282.607	24
282.976	23
283.344	23
283.713	23
284.081	23
284.450	23
284.819	23
285.187	23
285.556	23
285.924	23
286.292	23
286.661	23
287.029	23
287.398	23
287.766	23
288.134	23
288.502	23
288.871	23
289.239	23
289.607	23
289.975	23
290.343	23
290.711	22
291.079	22
291.447	22
291.815	22
292.183	22
292.551	22
292.919	22
293.287	22
293.655	22
294.022	22
294.390	22
294.758	22
295.126	22
295.493	22
295.861	22
296.229	22
296.596	22
296.964	22
297.331	22
297.699	22
298.066	22
298.434	22
298.801	22
299.168	22
299.536	22
299.903	22
300.270	22
300.638	22
301.005	22
301.372	22
301.739	23
302.106	23
302.473	23
302.840	23
303.207	23
303.574	23
303.941	23
304.308	23
304.675	24
305.042	23
305.409	24
305.776	24
306.143	24
306.509	24
306.876	25
307.243	25
307.610	26
307.976	26
308.343	26
308.709	27
309.076	27
309.442	27
309.809	27
310.175	28
310.542	28
310.908	29
311.275	30
311.641	31
312.007	31
312.373	32
312.740	33
313.106	33
313.472	34
313.838	35
314.204	36
314.570	37
314.936	39
315.302	40
315.668	41
316.034	43
316.400	44
316.766	46
317.132	47
317.498	49
317.864	51
318.230	53
318.595	55
318.961	57
319.327	58
319.692	61
320.058	64
320.424	66
320.789	69
321.155	72
321.520	75
321.886	78
322.251	81
322.616	84
322.982	88
323.347	92
323.712	96
324.078	100
324.443	105
324.808	110
325.173	114
325.539	118
325.904	123
326.269	127
326.634	132
326.999	137
327.364	142
327.729	147
328.094	152
328.459	157
328.823	162
329.188	167
329.553	172
329.918	177
330.283	182
330.647	187
331.012	192
331.377	197
331.741	202
332.106	207
332.470	212
332.835	217
333.199	223
333.564	228
333.928	234
334.293	239
334.657	245
335.021	250
335.386	256
335.750	262
336.114	268
336.478	274
336.843	280
337.207	286
337.571	291
337.935	297
338.299	304
338.663	310
339.027	315
339.391	321
339.755	327
340.119	333
340.483	338
340.846	344
341.210	350
341.574	355
341.938	361
342.301	366
342.665	372
343.029	377
343.392	382
343.756	387
344.119	392
344.483	398
344.846	403
345.210	408
345.573	413
345.937	417
346.300	422
346.663	427
347.027	432
347.390	436
347.753	441
348.116	446
348.479	450
348.843	454
349.206	459
349.569	463
349.932	468
350.295	472
350.658	475
351.021	479
351.383	483
351.746	487
352.109	490
352.472	494
352.835	498
353.197	501
353.560	505
353.923	508
354.285	512
354.648	515
355.011	519
355.373	522
355.736	525
356.098	529
356.461	532
356.823	536
357.185	538
357.548	542
357.910	545
358.272	548
358.635	552
358.997	555
359.359	558
359.721	561
360.083	564
360.445	567
360.807	571
361.169	574
361.531	577
361.893	580
362.255	583
362.617	585
362.979	589
363.341	592
363.703	596
364.064	599
364.426	602
364.788	606
365.149	609
365.511	612
365.873	615
366.234	618
366.596	620
366.957	623
367.319	625
367.680	627
368.042	629
368.403	631
368.764	633
369.126	634
369.487	636
369.848	638
370.209	639
370.570	640
370.931	641
371.293	642
371.654	643
372.015	644
372.376	645
372.737	646
373.098	648
373.458	649
373.819	650
374.180	653
374.541	655
374.902	658
375.263	661
375.623	664
375.984	667
376.345	670
376.705	673
377.066	676
377.426	678
377.787	681
378.147	684
378.508	686
378.868	689
379.228	692
379.589	694
379.949	697
380.309	699
380.670	702
381.030	705
381.390	707
381.750	709
382.110	711
382.470	713
382.830	714
383.190	716
383.550	718
383.910	720
384.270	723
384.630	726
384.990	730
385.350	734
385.709	737
386.069	740
386.429	743
386.788	746
387.148	748
387.508	751
387.867	754
388.227	758
388.586	762
388.946	767
389.305	772
389.665	778
390.024	783
390.383	789
390.743	793
391.102	797
391.461	801
391.820	804
392.179	807
392.539	809
392.898	812
393.257	815
393.616	819
393.975	825
394.334	831
394.693	838
395.051	846
395.410	853
395.769	859
396.128	864
396.487	868
396.845	871
397.204	873
397.563	876
397.921	878
398.280	880
398.638	882
398.997	885
399.355	888
399.714	891
400.072	895
400.431	898
400.789	902
401.147	906
401.506	909
401.864	912
402.222	915
402.580	916
402.938	916
403.297	917
403.655	917
404.013	917
404.371	919
404.729	920
405.087	923
405.444	925
405.802	928
406.160	932
406.518	935
406.876	937
407.233	940
407.591	943
407.949	945
408.306	948
408.664	950
409.022	952
409.379	955
409.737	958
410.094	962
410.451	966
410.809	970
411.166	975
411.523	979
411.881	984
412.238	989
412.595	993
412.952	997
413.310	1000
413.667	1002
414.024	1007
414.381	1010
414.738	1014
415.095	1018
415.452	1024
415.809	1028
416.165	1031
416.522	1036
416.879	1042
417.236	1050
417.593	1059
417.949	1069
418.306	1081
418.663	1094
419.019	1108
419.376	1122
419.732	1134
420.089	1146
420.445	1157
420.802	1169
421.158	1180
421.514	1189
421.871	1199
422.227	1207
422.583	1214
422.939	1221
423.295	1228
423.652	1235
424.008	1242
424.364	1247
424.720	1251
425.076	1254
425.432	1258
425.788	1262
426.143	1267
426.499	1273
426.855	1281
427.211	1288
427.567	1296
427.922	1302
428.278	1306
428.634	1309
428.989	1314
429.345	1319
429.700	1325
430.056	1333
430.411	1341
430.767	1350
431.122	1359
431.478	1366
431.833	1373
432.188	1380
432.543	1385
432.899	1390
433.254	1394
433.609	1394
433.964	1394
434.319	1395
434.674	1396
435.029	1398
435.384	1403
435.739	1409
436.094	1418
436.449	1427
436.804	1439
437.158	1452
437.513	1466
437.868	1483
438.223	1499
438.577	1517
438.932	1536
439.287	1556
439.641	1575
439.996	1595
440.350	1614
440.704	1633
441.059	1652
441.413	1672
441.768	1691
442.122	1709
442.476	1726
442.830	1743
443.185	1761
443.539	1776
443.893	1792
444.247	1804
444.601	1815
444.955	1822
445.309	1825
445.663	1829
446.017	1831
446.371	1832
446.724	1832
447.078	1831
447.432	1829
447.786	1827
448.139	1824
448.493	1819
448.847	1814
449.200	1808
449.554	1802
449.907	1796
450.261	1791
450.614	1785
450.968	1780
451.321	1774
451.674	1771
452.027	1765
452.381	1763
452.734	1762
453.087	1759
453.440	1759
453.793	1759
454.146	1762
454.499	1769
454.852	1778
455.205	1788
455.558	1799
455.911	1811
456.264	1823
456.617	1834
456.970	1844
457.322	1853
457.675	1861
458.028	1869
458.380	1873
458.733	1878
459.086	1883
459.438	1891
459.791	1899
460.143	1909
460.496	1923
460.848	1938
461.200	1956
461.553	1975
461.905	1992
462.257	2006
462.609	2019
462.961	2030
463.314	2040
463.666	2047
464.018	2053
464.370	2059
464.722	2068
465.074	2076
465.426	2081
465.777	2089
466.129	2093
466.481	2094
466.833	2094
467.184	2091
467.536	2086
467.888	2077
468.239	2069
468.591	2060
468.943	2053
469.294	2047
469.646	2044
469.997	2045
470.348	2050
470.700	2059
471.051	2073
471.402	2091
471.754	2113
472.105	2136
472.456	2160
472.807	2190
473.158	2221
473.509	2256
473.860	2295
474.211	2334
474.562	2376
474.913	2419
475.264	2465
475.615	2509
475.966	2554
476.316	2597
476.667	2640
477.018	2684
477.368	2730
477.719	2775
478.070	2818
478.420	2859
478.771	2899
479.121	2938
479.472	2976
479.822	3016
480.172	3061
480.523	3113
480.873	3187
481.223	3313
481.573	3502
481.924	3741
482.274	4010
482.624	4293
482.974	4576
483.324	4822
483.674	5006
484.024	5130
484.374	5210
484.724	5258
485.073	5291
485.423	5317
485.773	5342
486.123	5364
486.472	5387
486.822	5407
487.172	5423
487.521	5434
487.871	5435
488.220	5412
488.570	5334
488.919	5194
489.268	5003
489.618	4780
489.967	4541
490.316	4301
490.666	4092
491.015	3942
491.364	3848
491.713	3798
492.062	3777
492.411	3772
492.760	3776
493.109	3781
493.458	3787
493.807	3791
494.156	3794
494.505	3796
494.853	3799
495.202	3806
495.551	3819
495.900	3831
496.248	3845
496.597	3859
496.945	3872
497.294	3884
497.642	3899
497.991	3916
498.339	3937
498.688	3962
499.036	3984
499.384	4004
499.732	4022
500.081	4034
500.429	4044
500.777	4052
501.125	4059
501.473	4068
501.821	4077
502.169	4085
502.517	4092
502.865	4092
503.213	4090
503.561	4086
503.908	4081
504.256	4074
504.604	4064
504.952	4054
505.299	4043
505.647	4028
505.994	4009
506.342	3990
506.689	3970
507.037	3952
507.384	3938
507.732	3926
508.079	3915
508.426	3904
508.774	3895
509.121	3882
509.468	3870
509.815	3856
510.162	3843
510.509	3831
510.856	3817
511.203	3802
511.550	3788
511.897	3775
512.244	3761
512.591	3747
512.938	3733
513.284	3721
513.631	3707
513.978	3692
514.324	3676
514.671	3660
515.018	3642
515.364	3628
515.711	3613
516.057	3598
516.403	3583
516.750	3568
517.096	3551
517.443	3532
517.789	3513
518.135	3494
518.481	3480
518.827	3464
519.173	3447
519.519	3433
519.865	3418
520.211	3405
520.557	3392
520.903	3380
521.249	3369
521.595	3359
521.941	3348
522.287	3339
522.632	3329
522.978	3320
523.324	3312
523.669	3306
524.015	3303
524.360	3305
524.706	3310
525.051	3319
525.397	3331
525.742	3344
526.087	3357
526.433	3371
526.778	3381
527.123	3388
527.468	3393
527.813	3397
528.158	3401
528.504	3409
528.849	3421
529.193	3439
529.538	3460
529.883	3488
530.228	3519
530.573	3556
530.918	3594
531.263	3632
531.607	3666
531.952	3697
532.296	3720
532.641	3739
532.986	3751
533.330	3764
533.675	3776
534.019	3795
534.363	3821
534.708	3852
535.052	3890
535.396	3930
535.741	3968
536.085	4000
536.429	4029
536.773	4051
537.117	4066
537.461	4078
537.805	4088
538.149	4100
538.493	4112
538.837	4127
539.181	4146
539.524	4173
539.868	4205
540.212	4242
540.556	4282
540.899	4323
541.243	4359
541.586	4387
541.930	4407
542.273	4418
542.617	4424
542.960	4431
543.304	4444
543.647	4463
543.990	4492
544.333	4526
544.677	4559
545.020	4591
545.363	4614
545.706	4629
546.049	4637
546.392	4635
546.735	4624
547.078	4612
547.421	4599
547.764	4589
548.106	4581
548.449	4579
548.792	4584
549.135	4598
549.477	4618
549.820	4639
550.162	4653
550.505	4661
550.847	4662
551.190	4655
551.532	4646
551.875	4636
552.217	4629
552.559	4626
552.901	4631
553.244	4641
553.586	4654
553.928	4668
554.270	4679
554.612	4685
554.954	4686
555.296	4683
555.638	4680
555.980	4677
556.322	4677
556.663	4686
557.005	4705
557.347	4735
557.689	4769
558.030	4801
558.372	4830
558.713	4853
559.055	4875
559.396	4895
559.738	4918
560.079	4944
560.421	4976
560.762	5016
561.103	5063
561.444	5117
561.786	5173
562.127	5235
562.468	5302
562.809	5377
563.150	5462
563.491	5554
563.832	5656
564.173	5774
564.514	5913
564.855	6082
565.195	6293
565.536	6551
565.877	6852
566.218	7196
566.558	7587
566.899	8015
567.239	8477
567.580	8960
567.920	9457
568.261	9956
568.601	10466
568.941	10993
569.282	11534
569.622	12095
569.962	12677
570.302	13296
570.643	13932
570.983	14571
571.323	15185
571.663	15772
572.003	16324
572.343	16837
572.683	17311
573.022	17791
573.362	18293
573.702	18811
574.042	19325
574.381	19814
574.721	20274
575.061	20712
575.400	21105
575.740	21447
576.079	21743
576.419	22037
576.758	22376
577.097	22782
577.437	23227
577.776	23706
578.115	24209
578.454	24718
578.794	25181
579.133	25530
579.472	25754
579.811	25862
580.150	25863
580.489	25780
580.828	25659
581.167	25541
581.505	25444
581.844	25359
582.183	25275
582.522	25212
582.860	25165
583.199	25120
583.538	25041
583.876	24883
584.215	24621
584.553	24244
584.891	23758
585.230	23175
585.568	22537
585.906	21894
586.245	21314
586.583	20815
586.921	20402
587.259	20026
587.597	19651
587.935	19263
588.273	18865
588.611	18492
588.949	18158
589.287	17874
589.625	17645
589.963	17460
590.300	17307
590.638	17165
590.976	17010
591.313	16835
591.651	16667
591.989	16520
592.326	16398
592.664	16292
593.001	16203
593.338	16143
593.676	16105
594.013	16096
594.350	16139
594.687	16225
595.025	16320
595.362	16406
595.699	16462
596.036	16491
596.373	16482
596.710	16432
597.047	16354
597.384	16263
597.720	16163
598.057	16079
598.394	16016
598.731	15973
599.067	15957
599.404	15970
599.741	16021
600.077	16100
600.414	16189
600.750	16284
601.087	16354
601.423	16381
601.759	16372
602.096	16333
602.432	16273
602.768	16189
603.104	16077
603.440	15942
603.776	15798
604.112	15643
604.448	15486
604.784	15321
605.120	15148
605.456	14979
605.792	14804
606.128	14620
606.463	14431
606.799	14241
607.135	14067
607.470	13896
607.806	13727
608.142	13562
608.477	13405
608.812	13252
609.148	13099
609.483	12939
609.819	12775
610.154	12617
610.489	12473
610.824	12346
611.159	12239
611.494	12131
611.830	12035
612.165	11940
612.500	11836
612.834	11717
613.169	11581
613.504	11434
613.839	11270
614.174	11085
614.509	10900
614.843	10716
615.178	10541
615.512	10366
615.847	10196
616.182	10026
616.516	9855
616.850	9675
617.185	9489
617.519	9300
617.853	9097
618.188	8887
618.522	8695
618.856	8531
619.190	8389
619.524	8263
619.858	8162
620.192	8082
620.526	8010
620.860	7939
621.194	7870
621.528	7804
621.862	7737
622.195	7657
622.529	7573
622.863	7486
623.196	7399
623.530	7310
623.864	7222
624.197	7133
624.530	7047
624.864	6969
625.197	6887
625.531	6795
625.864	6686
626.197	6569
626.530	6442
626.863	6301
627.196	6148
627.529	5993
627.862	5840
628.195	5689
628.528	5539
628.861	5396
629.194	5267
629.527	5144
629.860	5023
630.192	4904
630.525	4793
630.858	4689
631.190	4590
631.523	4494
631.855	4405
632.188	4328
632.520	4255
632.852	4186
633.185	4116
633.517	4048
633.849	3986
634.182	3929
634.514	3875
634.846	3827
635.178	3784
635.510	3746
635.842	3711
636.174	3677
636.506	3643
636.837	3610
637.169	3578
637.501	3543
637.833	3506
638.164	3464
638.496	3417
638.828	3365
639.159	3306
639.491	3243
639.822	3177
640.154	3110
640.485	3045
640.816	2980
641.147	2916
641.479	2855
641.810	2796
642.141	2738
642.472	2681
642.803	2624
643.134	2570
643.465	2524
643.796	2486
644.127	2460
644.458	2446
644.789	2445
645.119	2458
645.450	2479
645.781	2503
646.111	2527
646.442	2548
646.773	2565
647.103	2577
647.433	2588
647.764	2599
648.094	2615
648.425	2635
648.755	2659
649.085	2688
649.415	2718
649.745	2749
650.075	2782
650.405	2818
650.735	2898
651.065	3476
651.395	5273
651.725	8237
652.055	11878
652.385	15514
652.715	19149
653.044	22786
653.374	26429
653.704	30076
654.033	32848
654.363	34666
654.692	35871
655.022	36655
655.351	37169
655.680	37488
656.010	37661
656.339	37739
656.668	37759
656.997	37749
657.326	37717
657.655	37629
657.984	37031
658.313	35204
658.642	32201
658.971	28510
659.300	24820
659.629	21130
659.958	17441
660.286	13752
660.615	10065
660.944	7262
661.272	5415
661.601	4183
661.929	3370
662.258	2822
662.586	2463
662.915	2243
663.243	2117
663.571	2044
663.899	2000
664.228	1973
664.556	1954
664.884	1941
665.212	1932
665.540	1925
665.868	1922
666.196	1919
666.524	1917
666.852	1918
667.179	1925
667.507	1940
667.835	1961
668.162	1989
668.490	2024
668.818	2065
669.145	2108
669.473	2151
669.800	2191
670.127	2227
670.455	2256
670.782	2280
671.109	2301
671.436	2319
671.764	2334
672.091	2346
672.418	2356
672.745	2364
673.072	2373
673.399	2383
673.726	2394
674.053	2402
674.379	2405
674.706	2403
675.033	2401
675.359	2397
675.686	2391
676.013	2388
676.339	2389
676.666	2396
676.992	2413
677.318	2437
677.645	2464
677.971	2490
678.297	2513
678.624	2536
678.950	2557
679.276	2577
679.602	2597
679.928	2617
680.254	2643
680.580	2675
680.906	2717
681.232	2768
681.558	2822
681.883	2875
682.209	2924
682.535	2970
682.860	3012
683.186	3046
683.511	3073
683.837	3091
684.162	3104
684.488	3115
684.813	3126
685.138	3136
685.464	3145
685.789	3152
686.114	3160
686.439	3170
686.764	3182
687.089	3189
687.414	3189
687.739	3178
688.064	3158
688.389	3133
688.714	3104
689.039	3072
689.363	3039
689.688	3002
690.013	2967
690.337	2935
690.662	2909
690.986	2885
691.311	2862
691.635	2838
691.959	2816
692.284	2801
692.608	2796
692.932	2801
693.256	2809
693.580	2820
693.904	2835
694.228	2853
694.552	2868
694.876	2875
695.200	2873
695.524	2860
695.848	2841
696.172	2818
696.495	2793
696.819	2768
697.143	2741
697.466	2714
697.790	2691
698.113	2675
698.437	2667
698.760	2666
699.083	2664
699.407	2656
699.730	2643
700.053	2621
700.376	2590
700.699	2548
701.022	2495
701.345	2438
701.668	2384
701.991	2340
702.314	2309
702.637	2294
702.960	2300
703.283	2323
703.605	2365
703.928	2422
704.251	2486
704.573	2551
704.896	2608
705.218	2655
705.540	2693
705.863	2723
706.185	2748
706.507	2769
706.830	2789
707.152	2810
707.474	2833
707.796	2858
708.118	2886
708.440	2911
708.762	2933
709.084	2951
709.406	2961
709.728	2962
710.049	2956
710.371	2943
710.693	2924
711.014	2902
711.336	2881
711.658	2862
711.979	2845
712.301	2830
712.622	2813
712.943	2793
713.265	2769
713.586	2744
713.907	2721
714.228	2700
714.549	2683
714.870	2671
715.191	2666
715.512	2665
715.833	2661
716.154	2654
716.475	2642
716.796	2625
717.117	2601
717.437	2571
717.758	2538
718.078	2505
718.399	2473
718.719	2444
719.040	2419
719.360	2399
719.681	2385
720.001	2376
720.321	2371
720.642	2369
720.962	2371
721.282	2376
721.602	2383
721.922	2392
722.242	2404
722.562	2420
722.882	2439
723.202	2455
723.521	2471
723.841	2488
724.161	2505
724.481	2522
724.800	2539
725.120	2561
725.439	2588
725.759	2619
726.078	2653
726.398	2696
726.717	2748
727.036	2807
727.355	2869
727.675	2929
727.994	2987
728.313	3042
728.632	3089
728.951	3129
729.270	3163
729.589	3195
729.908	3235
730.226	3279
730.545	3329
730.864	3382
731.182	3440
731.501	3498
731.820	3553
732.138	3602
732.457	3644
732.775	3683
733.093	3714
733.412	3732
733.730	3737
734.048	3729
734.367	3713
734.685	3691
735.003	3666
735.321	3643
735.639	3625
735.957	3610
736.275	3597
736.593	3577
736.910	3547
737.228	3504
737.546	3450
737.863	3386
738.181	3317
738.499	3244
738.816	3171
739.134	3100
739.451	3029
739.768	2956
740.086	2887
740.403	2822
740.720	2762
741.038	2706
741.355	2652
741.672	2598
741.989	2544
742.306	2487
742.623	2429
742.940	2372
743.257	2319
743.573	2272
743.890	2235
744.207	2208
744.523	2189
744.840	2176
745.157	2169
745.473	2169
745.790	2177
746.106	2194
746.422	2220
746.739	2251
747.055	2290
747.371	2333
747.687	2379
748.004	2422
748.320	2461
748.636	2494
748.952	2528
749.268	2563
749.584	2595
749.899	2625
750.215	2656
750.531	2690
750.847	2728
751.162	2766
751.478	2803
751.793	2842
752.109	2884
752.424	2929
752.740	2975
753.055	3026
753.370	3088
753.686	3160
754.001	3238
754.316	3319
754.631	3405
754.946	3497
755.261	3593
755.576	3686
755.891	3776
756.206	3866
756.521	3960
756.836	4056
757.150	4149
757.465	4230
757.780	4300
758.094	4360
758.409	4405
758.723	4434
759.038	4447
759.352	4447
759.667	4435
759.981	4414
760.295	4393
760.609	4377
760.923	4368
761.238	4362
761.552	4359
761.866	4354
762.180	4346
762.493	4322
762.807	4278
763.121	4210
763.435	4124
763.749	4029
764.062	3940
764.376	3866
764.689	3815
765.003	3788
765.316	3784
765.630	3797
765.943	3820
766.257	3846
766.570	3867
766.883	3874
767.196	3864
767.509	3840
767.822	3804
768.135	3757
768.448	3706
768.761	3653
769.074	3606
769.387	3571
769.700	3549
770.013	3536
770.325	3525
770.638	3509
770.950	3480
771.263	3434
771.575	3369
771.888	3286
772.200	3191
772.513	3086
772.825	2976
773.137	2864
773.449	2754
773.761	2647
774.074	2547
774.386	2459
774.698	2385
775.010	2324
775.321	2281
775.633	2252
775.945	2236
776.257	2227
776.568	2224
776.880	2231
777.192	2248
777.503	2272
777.815	2303
778.126	2342
778.438	2390
778.749	2440
779.060	2490
779.372	2537
779.683	2581
779.994	2622
780.305	2654
780.616	2676
780.927	2690
781.238	2694
781.549	2689
781.860	2671
782.171	2647
782.481	2620
782.792	2592
783.103	2565
783.413	2535
783.724	2504
784.034	2474
784.345	2446
784.655	2421
784.966	2395
785.276	2368
785.586	2342
785.896	2315
786.207	2288
786.517	2258
786.827	2229
787.137	2202
787.447	2176
787.757	2150
788.066	2126
788.376	2103
788.686	2080
788.996	2056
789.305	2033
789.615	2014
789.925	2004
790.234	2002
790.544	2007
790.853	2017
791.162	2027
791.472	2036
791.781	2040
792.090	2036
792.399	2024
792.708	2004
793.017	1983
793.326	1963
793.635	1943
793.944	1925
794.253	1910
794.562	1900
794.871	1893
795.179	1888
795.488	1882
795.797	1871
796.105	1854
796.414	1826
796.722	1789
797.031	1740
797.339	1683
797.647	1618
797.956	1551
798.264	1488
798.572	1435
798.880	1395
799.188	1365
799.496	1344
799.804	1327
800.112	1315
800.420	1304
800.728	1293
801.035	1280
801.343	1264
801.651	1252
801.958	1249
802.266	1254
802.573	1265
802.881	1278
803.188	1295
803.496	1314
803.803	1332
804.110	1349
804.417	1364
804.724	1378
805.032	1391
805.339	1401
805.646	1408
805.953	1412
806.259	1413
806.566	1411
806.873	1406
807.180	1399
807.486	1392
807.793	1382
808.100	1368
808.406	1346
808.713	1314
809.019	1278
809.326	1242
809.632	1208
809.938	1175
810.244	1146
810.551	1121
810.857	1100
811.163	1082
811.469	1062
811.775	1042
812.081	1020
812.387	1001
812.692	985
812.998	973
813.304	963
813.610	955
813.915	949
814.221	944
814.526	939
814.832	935
815.137	932
815.443	926
815.748	916
816.053	904
816.358	891
816.664	880
816.969	870
817.274	860
817.579	853
817.884	849
818.189	847
818.493	846
818.798	844
819.103	838
819.408	830
819.712	821
820.017	810
820.321	799
820.626	788
820.930	778
821.235	771
821.539	768
821.843	768
822.148	770
822.452	771
822.756	770
823.060	768
823.364	763
823.668	756
823.972	748
824.276	739
824.580	733
824.883	730
825.187	729
825.491	728
825.795	728
826.098	728
826.402	727
826.705	724
827.008	719
827.312	711
827.615	699
827.918	685
828.222	669
828.525	652
828.828	636
829.131	619
829.434	603
829.737	589
830.040	577
830.343	568
830.645	559
830.948	550
831.251	542
831.553	535
831.856	529
832.159	523
832.461	516
832.764	509
833.066	502
833.368	496
833.671	491
833.973	488
834.275	484
834.577	481
834.879	477
835.181	472
835.483	467
835.785	460
836.087	452
836.389	442
836.690	431
836.992	419
837.294	407
837.595	394
837.897	380
838.198	366
838.500	353
838.801	342
839.103	332
839.404	324
839.705	316
840.006	310
840.307	306
840.608	302
840.910	299
841.210	298
841.511	295
841.812	292
842.113	289
842.414	285
842.715	280
843.015	274
843.316	268
843.616	263
843.917	257
844.217	253
844.518	249
844.818	246
845.118	245
845.419	243
845.719	242
846.019	241
846.319	239
846.619	238
846.919	237
847.219	236
847.519	235
847.819	233
848.118	234
848.418	236
848.718	243
849.017	255
849.317	271
849.616	291
849.916	313
850.215	339
850.515	366
850.814	393
851.113	417
851.412	438
851.712	458
852.011	477
852.310	495
852.609	511
852.908	524
853.206	536
853.505	547
853.804	557
854.103	565
854.401	571
854.700	573
854.999	571
855.297	564
855.595	552
855.894	536
856.192	516
856.491	494
856.789	470
857.087	445
857.385	421
857.683	400
857.981	381
858.279	363
858.577	346
858.875	331
859.173	320
859.471	310
859.768	302
860.066	295
860.363	289
860.661	285
860.959	280
861.256	277
861.553	272
861.851	267
862.148	261
862.445	256
862.742	251
863.039	247
863.337	244
863.634	241
863.931	240
864.227	239
864.524	238
864.821	238
865.118	237
865.415	235
865.711	232
866.008	228
866.304	223
866.601	219
866.897	215
867.194	212
867.490	210
867.786	209
868.082	209
868.379	209
868.675	210
868.971	210
869.267	210
869.563	210
869.859	210
870.154	209
870.450	207
870.746	206
871.042	205
871.337	205
871.633	205
871.928	206
872.224	208
872.519	209
872.815	211
873.110	211
873.405	211
873.700	210
873.995	210
874.291	210
874.586	211
874.881	212
875.175	214
875.470	217
875.765	221
876.060	225
876.355	230
876.649	234
876.944	238
877.238	242
877.533	245
877.827	248
878.122	250
878.416	251
878.710	251
879.005	251
879.299	249
879.593	248
879.887	247
880.181	246
880.475	244
880.769	242
881.063	240
881.356	237
881.650	234
881.944	230
882.238	190
882.531	185
882.825	185
883.118	186
883.412	182
883.705	182
883.998	189
884.291	192
884.585	195
884.878	200
>>>>>>>>>> END of Data <<<<<<<<<<