Date	2021年06月15日火曜日 04時35分05秒
Spectrometers	USB2+H05879
ダーク	使用
リファレンス	使用
積分時間[msec]	10
平均回数	280
ｽﾑｰｼﾞﾝｸﾞ	10
Electrical Dark	USE
ピクセル数	2048
計測モード	吸光度
保存開始波長[nm]	190.664
保存終了波長[nm]	884.878
保存ﾋﾟｯﾁ波長[nm]	全波長

>>>>>>>>>> Data Start <<<<<<<<<<<<
190.664	0.000000
191.040	0.000000
191.415	0.000000
191.791	-2.491370
192.166	-0.632133
192.542	-0.918670
192.917	0.000000
193.293	-0.217284
193.668	-0.203196
194.044	-1.037397
194.419	0.000000
194.794	-1.326401
195.170	-1.235361
195.545	-1.135333
195.920	-1.012677
196.296	-0.897758
196.671	-0.737221
197.046	-0.588469
197.421	-0.548961
197.796	-0.550346
198.171	-0.509851
198.546	-0.471102
198.922	-0.427958
199.297	-0.405071
199.672	-0.391907
200.047	-0.378768
200.422	-0.352702
200.796	-0.339595
201.171	-0.314425
201.546	-0.314768
201.921	-0.305198
202.296	-0.301042
202.671	-0.279339
203.045	-0.256593
203.420	-0.245666
203.795	-0.225940
204.170	-0.215046
204.544	-0.209643
204.919	-0.209590
205.294	-0.201155
205.668	-0.182753
206.043	-0.173545
206.417	-0.177672
206.792	-0.173346
207.166	-0.171191
207.541	-0.159656
207.915	-0.159538
208.289	-0.152094
208.664	-0.147650
209.038	-0.151605
209.412	-0.136106
209.787	-0.116781
210.161	-0.098084
210.535	-0.102954
210.909	-0.094139
211.284	-0.093951
211.658	-0.105583
212.032	-0.107119
212.406	-0.112332
212.780	-0.116217
213.154	-0.124173
213.528	-0.127105
213.902	-0.126207
214.276	-0.116151
214.650	-0.111990
215.024	-0.095205
215.398	-0.092637
215.772	-0.084380
216.145	-0.079634
216.519	-0.071637
216.893	-0.074308
217.267	-0.081963
217.640	-0.092763
218.014	-0.080405
218.388	-0.070466
218.761	-0.078030
219.135	-0.063154
219.508	-0.055850
219.882	-0.062619
220.256	-0.051091
220.629	-0.038330
221.003	-0.033918
221.376	-0.038203
221.749	-0.038878
222.123	-0.032041
222.496	-0.035452
222.869	-0.040482
223.243	-0.037277
223.616	-0.033371
223.989	-0.037868
224.362	-0.035469
224.736	-0.030277
225.109	-0.019906
225.482	-0.017968
225.855	-0.026840
226.228	-0.024655
226.601	-0.023173
226.974	-0.027668
227.347	-0.022992
227.720	-0.017932
228.093	-0.026544
228.466	-0.035336
228.839	-0.031967
229.212	-0.033317
229.585	-0.045064
229.957	-0.049073
230.330	-0.048186
230.703	-0.042278
231.076	-0.045894
231.448	-0.053986
231.821	-0.053231
232.194	-0.054468
232.566	-0.059144
232.939	-0.070080
233.311	-0.073522
233.684	-0.065553
234.056	-0.067849
234.429	-0.061194
234.801	-0.064709
235.174	-0.065333
235.546	-0.062501
235.918	-0.065248
236.291	-0.056439
236.663	-0.053202
237.035	-0.048262
237.408	-0.035773
237.780	-0.031080
238.152	-0.028044
238.524	-0.037771
238.896	-0.038191
239.268	-0.034705
239.641	-0.038843
240.013	-0.031204
240.385	-0.026572
240.757	-0.021094
241.129	-0.019460
241.500	-0.026127
241.872	-0.022708
242.244	-0.023717
242.616	-0.024409
242.988	-0.019568
243.360	-0.017321
243.731	-0.008616
244.103	-0.017249
244.475	-0.021737
244.847	-0.014810
245.218	-0.011175
245.590	-0.007453
245.961	-0.011001
246.333	-0.004200
246.705	-0.004331
247.076	0.010239
247.448	0.018137
247.819	0.013406
248.190	0.022239
248.562	0.023417
248.933	0.027162
249.305	0.032278
249.676	0.031595
250.047	0.029921
250.418	0.034353
250.790	0.030428
251.161	0.034743
251.532	0.030567
251.903	0.036479
252.274	0.042475
252.645	0.041014
253.016	0.031178
253.387	0.019807
253.758	0.026577
254.129	0.023428
254.500	0.031215
254.871	0.019901
255.242	0.017170
255.613	0.014187
255.984	0.009812
256.355	0.012723
256.725	0.012471
257.096	0.009873
257.467	0.008722
257.838	0.007833
258.208	0.008002
258.579	0.015431
258.949	0.011547
259.320	0.020325
259.690	0.021134
260.061	0.026643
260.431	0.034223
260.802	0.037378
261.172	0.042775
261.543	0.038727
261.913	0.035135
262.283	0.024485
262.654	0.022437
263.024	0.022529
263.394	0.026350
263.764	0.028373
264.135	0.030858
264.505	0.029347
264.875	0.033474
265.245	0.036584
265.615	0.041283
265.985	0.042335
266.355	0.044577
266.725	0.045546
267.095	0.044330
267.465	0.045116
267.835	0.039549
268.205	0.030033
268.575	0.034385
268.944	0.037739
269.314	0.037227
269.684	0.043220
270.054	0.045529
270.423	0.047274
270.793	0.051901
271.163	0.051385
271.532	0.047571
271.902	0.045748
272.271	0.052258
272.641	0.048974
273.010	0.042972
273.380	0.039694
273.749	0.040536
274.119	0.038287
274.488	0.044851
274.857	0.043646
275.227	0.041978
275.596	0.038844
275.965	0.047255
276.335	0.048494
276.704	0.041570
277.073	0.041547
277.442	0.045863
277.811	0.051769
278.180	0.056486
278.549	0.057183
278.918	0.056051
279.287	0.058223
279.656	0.058566
280.025	0.055285
280.394	0.050153
280.763	0.054712
281.132	0.051856
281.501	0.051712
281.869	0.051973
282.238	0.049481
282.607	0.045468
282.976	0.047011
283.344	0.053890
283.713	0.050142
284.081	0.049381
284.450	0.060578
284.819	0.065038
285.187	0.066702
285.556	0.070224
285.924	0.065338
286.292	0.061150
286.661	0.060525
287.029	0.059528
287.398	0.065177
287.766	0.063153
288.134	0.072847
288.502	0.071975
288.871	0.078908
289.239	0.082091
289.607	0.076778
289.975	0.077041
290.343	0.080612
290.711	0.080467
291.079	0.080517
291.447	0.086383
291.815	0.090606
292.183	0.088014
292.551	0.090398
292.919	0.092945
293.287	0.091619
293.655	0.099739
294.022	0.097507
294.390	0.104946
294.758	0.105213
295.126	0.097975
295.493	0.103936
295.861	0.099592
296.229	0.098325
296.596	0.100084
296.964	0.101190
297.331	0.103266
297.699	0.104791
298.066	0.106718
298.434	0.111851
298.801	0.113054
299.168	0.109810
299.536	0.112399
299.903	0.114685
300.270	0.119683
300.638	0.124737
301.005	0.132165
301.372	0.133317
301.739	0.143588
302.106	0.145395
302.473	0.156779
302.840	0.168437
303.207	0.191427
303.574	0.209473
303.941	0.224631
304.308	0.233909
304.675	0.247836
305.042	0.265474
305.409	0.279358
305.776	0.298048
306.143	0.314875
306.509	0.332050
306.876	0.356123
307.243	0.379604
307.610	0.404682
307.976	0.418044
308.343	0.438400
308.709	0.459529
309.076	0.492042
309.442	0.517604
309.809	0.542383
310.175	0.563567
310.542	0.585205
310.908	0.597841
311.275	0.616295
311.641	0.638547
312.007	0.668732
312.373	0.689216
312.740	0.713149
313.106	0.736084
313.472	0.760384
313.838	0.787845
314.204	0.807760
314.570	0.818251
314.936	0.832526
315.302	0.847778
315.668	0.866543
316.034	0.884815
316.400	0.906804
316.766	0.916741
317.132	0.933275
317.498	0.945500
317.864	0.956751
318.230	0.969710
318.595	0.984393
318.961	0.994049
319.327	1.006809
319.692	1.012114
320.058	1.020236
320.424	1.026127
320.789	1.032508
321.155	1.039971
321.520	1.043059
321.886	1.051262
322.251	1.059411
322.616	1.063154
322.982	1.068277
323.347	1.073032
323.712	1.074926
324.078	1.075710
324.443	1.080616
324.808	1.082594
325.173	1.085050
325.539	1.087385
325.904	1.088833
326.269	1.089070
326.634	1.090971
326.999	1.091924
327.364	1.093761
327.729	1.095569
328.094	1.096387
328.459	1.097991
328.823	1.097957
329.188	1.099377
329.553	1.098791
329.918	1.100166
330.283	1.102659
330.647	1.103678
331.012	1.104298
331.377	1.105232
331.741	1.105115
332.106	1.104693
332.470	1.104290
332.835	1.105251
333.199	1.105304
333.564	1.105958
333.928	1.106805
334.293	1.107630
334.657	1.106821
335.021	1.106972
335.386	1.107104
335.750	1.107239
336.114	1.106842
336.478	1.107137
336.843	1.106490
337.207	1.107291
337.571	1.107475
337.935	1.106882
338.299	1.105844
338.663	1.105217
339.027	1.105426
339.391	1.105935
339.755	1.105805
340.119	1.105885
340.483	1.105942
340.846	1.106456
341.210	1.106771
341.574	1.107269
341.938	1.107634
342.301	1.108507
342.665	1.108681
343.029	1.108692
343.392	1.109328
343.756	1.109665
344.119	1.109744
344.483	1.110256
344.846	1.110155
345.210	1.110720
345.573	1.111037
345.937	1.112129
346.300	1.112924
346.663	1.113449
347.027	1.113644
347.390	1.113873
347.753	1.114036
348.116	1.113789
348.479	1.114427
348.843	1.114007
349.206	1.113635
349.569	1.113419
349.932	1.113484
350.295	1.113519
350.658	1.113853
351.021	1.114108
351.383	1.114339
351.746	1.114176
352.109	1.114568
352.472	1.114531
352.835	1.113936
353.197	1.113890
353.560	1.113820
353.923	1.113528
354.285	1.113306
354.648	1.113312
355.011	1.113293
355.373	1.113506
355.736	1.114083
356.098	1.113828
356.461	1.114609
356.823	1.114725
357.185	1.115213
357.548	1.115397
357.910	1.115454
358.272	1.114767
358.635	1.114189
358.997	1.113995
359.359	1.114411
359.721	1.114100
360.083	1.114722
360.445	1.115013
360.807	1.115182
361.169	1.115048
361.531	1.115165
361.893	1.115005
362.255	1.115527
362.617	1.115978
362.979	1.116147
363.341	1.115727
363.703	1.115928
364.064	1.115658
364.426	1.115802
364.788	1.115539
365.149	1.115801
365.511	1.115910
365.873	1.116254
366.234	1.116441
366.596	1.116734
366.957	1.116889
367.319	1.117170
367.680	1.116861
368.042	1.116660
368.403	1.116855
368.764	1.116863
369.126	1.116581
369.487	1.116612
369.848	1.115908
370.209	1.115768
370.570	1.115713
370.931	1.115708
371.293	1.115409
371.654	1.115184
372.015	1.115356
372.376	1.115136
372.737	1.114910
373.098	1.114852
373.458	1.114800
373.819	1.115264
374.180	1.115240
374.541	1.114929
374.902	1.114752
375.263	1.114539
375.623	1.114664
375.984	1.114745
376.345	1.114479
376.705	1.114884
377.066	1.115211
377.426	1.115154
377.787	1.114696
378.147	1.114426
378.508	1.114067
378.868	1.114123
379.228	1.113896
379.589	1.113314
379.949	1.113515
380.309	1.113346
380.670	1.113048
381.030	1.112658
381.390	1.112173
381.750	1.111435
382.110	1.110892
382.470	1.110415
382.830	1.110037
383.190	1.109803
383.550	1.108896
383.910	1.108598
384.270	1.108082
384.630	1.107710
384.990	1.107711
385.350	1.107606
385.709	1.107108
386.069	1.107198
386.429	1.106461
386.788	1.106409
387.148	1.105952
387.508	1.105318
387.867	1.104625
388.227	1.104051
388.586	1.103582
388.946	1.102887
389.305	1.102856
389.665	1.102635
390.024	1.102164
390.383	1.101809
390.743	1.100993
391.102	1.100510
391.461	1.099980
391.820	1.099443
392.179	1.098337
392.539	1.097342
392.898	1.096635
393.257	1.095872
393.616	1.095060
393.975	1.094302
394.334	1.093369
394.693	1.092777
395.051	1.092156
395.410	1.091445
395.769	1.090992
396.128	1.090317
396.487	1.089442
396.845	1.088059
397.204	1.087103
397.563	1.085971
397.921	1.084968
398.280	1.083725
398.638	1.082585
398.997	1.081334
399.355	1.079905
399.714	1.078834
400.072	1.077642
400.431	1.076250
400.789	1.075018
401.147	1.073603
401.506	1.072234
401.864	1.070891
402.222	1.069385
402.580	1.067325
402.938	1.065925
403.297	1.064277
403.655	1.062870
404.013	1.061308
404.371	1.060140
404.729	1.058601
405.087	1.057169
405.444	1.055610
405.802	1.054234
406.160	1.052595
406.518	1.050840
406.876	1.049504
407.233	1.047797
407.591	1.046193
407.949	1.044582
408.306	1.042927
408.664	1.041205
409.022	1.039858
409.379	1.038012
409.737	1.036145
410.094	1.034542
410.451	1.032682
410.809	1.030864
411.166	1.029037
411.523	1.027685
411.881	1.026040
412.238	1.024212
412.595	1.022179
412.952	1.020533
413.310	1.018780
413.667	1.017313
414.024	1.015883
414.381	1.013999
414.738	1.012300
415.095	1.010358
415.452	1.008554
415.809	1.006763
416.165	1.005024
416.522	1.002835
416.879	1.000841
417.236	0.998847
417.593	0.996866
417.949	0.994756
418.306	0.992676
418.663	0.991085
419.019	0.988998
419.376	0.986938
419.732	0.985024
420.089	0.983426
420.445	0.981547
420.802	0.979946
421.158	0.977931
421.514	0.976134
421.871	0.974294
422.227	0.972443
422.583	0.970762
422.939	0.968732
423.295	0.967025
423.652	0.965183
424.008	0.963243
424.364	0.961305
424.720	0.959443
425.076	0.957611
425.432	0.955623
425.788	0.953444
426.143	0.951200
426.499	0.949001
426.855	0.946918
427.211	0.944741
427.567	0.942647
427.922	0.940503
428.278	0.937923
428.634	0.936056
428.989	0.934019
429.345	0.932063
429.700	0.930064
430.056	0.928160
430.411	0.926346
430.767	0.924215
431.122	0.922076
431.478	0.920172
431.833	0.918089
432.188	0.915897
432.543	0.913688
432.899	0.911392
433.254	0.909286
433.609	0.906786
433.964	0.904368
434.319	0.901908
434.674	0.899424
435.029	0.897088
435.384	0.894825
435.739	0.892749
436.094	0.890373
436.449	0.888217
436.804	0.885978
437.158	0.883672
437.513	0.881344
437.868	0.878915
438.223	0.876654
438.577	0.874228
438.932	0.871968
439.287	0.869813
439.641	0.867714
439.996	0.865499
440.350	0.863477
440.704	0.861239
441.059	0.859159
441.413	0.857098
441.768	0.854905
442.122	0.852994
442.476	0.850798
442.830	0.848676
443.185	0.846648
443.539	0.844676
443.893	0.842549
444.247	0.840567
444.601	0.838587
444.955	0.836419
445.309	0.834423
445.663	0.832180
446.017	0.830185
446.371	0.827960
446.724	0.825689
447.078	0.823620
447.432	0.821474
447.786	0.819189
448.139	0.816938
448.493	0.814760
448.847	0.812500
449.200	0.810269
449.554	0.808059
449.907	0.805919
450.261	0.803619
450.614	0.801498
450.968	0.799156
451.321	0.796885
451.674	0.794590
452.027	0.792211
452.381	0.790019
452.734	0.787793
453.087	0.785642
453.440	0.783321
453.793	0.781206
454.146	0.778914
454.499	0.776602
454.852	0.774355
455.205	0.772225
455.558	0.770177
455.911	0.768078
456.264	0.766031
456.617	0.764094
456.970	0.762205
457.322	0.760353
457.675	0.758570
458.028	0.756712
458.380	0.755104
458.733	0.753445
459.086	0.751625
459.438	0.749952
459.791	0.748129
460.143	0.746305
460.496	0.744567
460.848	0.742793
461.200	0.740956
461.553	0.739216
461.905	0.737437
462.257	0.735655
462.609	0.734062
462.961	0.732402
463.314	0.730782
463.666	0.729149
464.018	0.727533
464.370	0.725883
464.722	0.724270
465.074	0.722643
465.426	0.721093
465.777	0.719553
466.129	0.718054
466.481	0.716644
466.833	0.715224
467.184	0.713866
467.536	0.712319
467.888	0.710703
468.239	0.709054
468.591	0.707297
468.943	0.705655
469.294	0.703872
469.646	0.702150
469.997	0.700272
470.348	0.698531
470.700	0.696780
471.051	0.695125
471.402	0.693528
471.754	0.691970
472.105	0.690456
472.456	0.688993
472.807	0.687538
473.158	0.686102
473.509	0.684739
473.860	0.683417
474.211	0.682208
474.562	0.680918
474.913	0.679572
475.264	0.678288
475.615	0.677053
475.966	0.675841
476.316	0.674458
476.667	0.673129
477.018	0.671879
477.368	0.670632
477.719	0.669447
478.070	0.668227
478.420	0.666947
478.771	0.665612
479.121	0.664324
479.472	0.663085
479.822	0.661821
480.172	0.660587
480.523	0.659210
480.873	0.657562
481.223	0.655718
481.573	0.653965
481.924	0.652309
482.274	0.650706
482.624	0.649189
482.974	0.647977
483.324	0.646970
483.674	0.646141
484.024	0.645257
484.374	0.644406
484.724	0.643567
485.073	0.642734
485.423	0.641947
485.773	0.641136
486.123	0.640338
486.472	0.639508
486.822	0.638690
487.172	0.637921
487.521	0.637072
487.871	0.636331
488.220	0.635614
488.570	0.634889
488.919	0.633884
489.268	0.632678
489.618	0.631410
489.967	0.629940
490.316	0.628172
490.666	0.626246
491.015	0.624372
491.364	0.622688
491.713	0.621127
492.062	0.619713
492.411	0.618337
492.760	0.617020
493.109	0.615721
493.458	0.614443
493.807	0.613263
494.156	0.611944
494.505	0.610613
494.853	0.609289
495.202	0.607938
495.551	0.606650
495.900	0.605281
496.248	0.603914
496.597	0.602567
496.945	0.601280
497.294	0.600015
497.642	0.598751
497.991	0.597416
498.339	0.596125
498.688	0.594985
499.036	0.593861
499.384	0.592704
499.732	0.591478
500.081	0.590272
500.429	0.589073
500.777	0.587890
501.125	0.586709
501.473	0.585603
501.821	0.584465
502.169	0.583390
502.517	0.582293
502.865	0.581147
503.213	0.580015
503.561	0.578939
503.908	0.577927
504.256	0.576802
504.604	0.575760
504.952	0.574609
505.299	0.573527
505.647	0.572427
505.994	0.571222
506.342	0.570021
506.689	0.568809
507.037	0.567672
507.384	0.566488
507.732	0.565420
508.079	0.564357
508.426	0.563272
508.774	0.562108
509.121	0.561012
509.468	0.559953
509.815	0.558933
510.162	0.557944
510.509	0.556969
510.856	0.556022
511.203	0.554977
511.550	0.554020
511.897	0.552972
512.244	0.552026
512.591	0.550980
512.938	0.549991
513.284	0.549010
513.631	0.548039
513.978	0.547024
514.324	0.546036
514.671	0.544978
515.018	0.543882
515.364	0.542842
515.711	0.541795
516.057	0.540815
516.403	0.539839
516.750	0.538851
517.096	0.537808
517.443	0.536752
517.789	0.535748
518.135	0.534728
518.481	0.533773
518.827	0.532742
519.173	0.531794
519.519	0.530803
519.865	0.529877
520.211	0.528929
520.557	0.527967
520.903	0.526973
521.249	0.525961
521.595	0.524939
521.941	0.523943
522.287	0.522908
522.632	0.521758
522.978	0.520722
523.324	0.519700
523.669	0.518668
524.015	0.517556
524.360	0.516442
524.706	0.515411
525.051	0.514322
525.397	0.513251
525.742	0.512208
526.087	0.511263
526.433	0.510295
526.778	0.509394
527.123	0.508422
527.468	0.507399
527.813	0.506464
528.158	0.505456
528.504	0.504438
528.849	0.503385
529.193	0.502412
529.538	0.501369
529.883	0.500368
530.228	0.499232
530.573	0.498186
530.918	0.497139
531.263	0.496141
531.607	0.495223
531.952	0.494279
532.296	0.493334
532.641	0.492387
532.986	0.491325
533.330	0.490216
533.675	0.489171
534.019	0.488070
534.363	0.486977
534.708	0.485920
535.052	0.484912
535.396	0.483908
535.741	0.483037
536.085	0.482069
536.429	0.481040
536.773	0.480082
537.117	0.479021
537.461	0.477866
537.805	0.476646
538.149	0.475375
538.493	0.474181
538.837	0.472965
539.181	0.471656
539.524	0.470418
539.868	0.469188
540.212	0.467977
540.556	0.466765
540.899	0.465517
541.243	0.464348
541.586	0.463224
541.930	0.462038
542.273	0.460808
542.617	0.459548
542.960	0.458235
543.304	0.456932
543.647	0.455632
543.990	0.454270
544.333	0.452962
544.677	0.451761
545.020	0.450572
545.363	0.449401
545.706	0.448175
546.049	0.446936
546.392	0.445740
546.735	0.444501
547.078	0.443226
547.421	0.441952
547.764	0.440655
548.106	0.439278
548.449	0.437858
548.792	0.436474
549.135	0.435099
549.477	0.433714
549.820	0.432470
550.162	0.431168
550.505	0.429842
550.847	0.428543
551.190	0.427146
551.532	0.425758
551.875	0.424265
552.217	0.422689
552.559	0.421168
552.901	0.419657
553.244	0.418253
553.586	0.416910
553.928	0.415564
554.270	0.414261
554.612	0.413014
554.954	0.411745
555.296	0.410445
555.638	0.409129
555.980	0.407639
556.322	0.406148
556.663	0.404610
557.005	0.402929
557.347	0.401361
557.689	0.399841
558.030	0.398278
558.372	0.396723
558.713	0.395185
559.055	0.393714
559.396	0.392220
559.738	0.390661
560.079	0.389141
560.421	0.387562
560.762	0.386066
561.103	0.384571
561.444	0.383138
561.786	0.381638
562.127	0.380174
562.468	0.378681
562.809	0.377140
563.150	0.375562
563.491	0.373981
563.832	0.372320
564.173	0.370588
564.514	0.368761
564.855	0.366931
565.195	0.365057
565.536	0.363287
565.877	0.361484
566.218	0.359651
566.558	0.357943
566.899	0.356299
567.239	0.354770
567.580	0.353380
567.920	0.352098
568.261	0.350941
568.601	0.349844
568.941	0.348794
569.282	0.347845
569.622	0.346906
569.962	0.345934
570.302	0.345005
570.643	0.344158
570.983	0.343346
571.323	0.342602
571.663	0.341856
572.003	0.341094
572.343	0.340335
572.683	0.339462
573.022	0.338542
573.362	0.337582
573.702	0.336645
574.042	0.335777
574.381	0.334906
574.721	0.334053
575.061	0.333220
575.400	0.332454
575.740	0.331688
576.079	0.330922
576.419	0.330025
576.758	0.329120
577.097	0.328195
577.437	0.327247
577.776	0.326226
578.115	0.325254
578.454	0.324321
578.794	0.323503
579.133	0.322775
579.472	0.322095
579.811	0.321449
580.150	0.320804
580.489	0.320174
580.828	0.319456
581.167	0.318707
581.505	0.318016
581.844	0.317294
582.183	0.316552
582.522	0.315814
582.860	0.315073
583.199	0.314372
583.538	0.313733
583.876	0.313118
584.215	0.312487
584.553	0.311869
584.891	0.311277
585.230	0.310628
585.568	0.309925
585.906	0.309184
586.245	0.308421
586.583	0.307682
586.921	0.307050
587.259	0.306521
587.597	0.305977
587.935	0.305413
588.273	0.304776
588.611	0.303953
588.949	0.303154
589.287	0.302347
589.625	0.301532
589.963	0.300777
590.300	0.300050
590.638	0.299430
590.976	0.298765
591.313	0.298101
591.651	0.297381
591.989	0.296665
592.326	0.295967
592.664	0.295374
593.001	0.294773
593.338	0.294247
593.676	0.293785
594.013	0.293301
594.350	0.292845
594.687	0.292452
595.025	0.292115
595.362	0.291719
595.699	0.291310
596.036	0.290836
596.373	0.290367
596.710	0.289872
597.047	0.289343
597.384	0.288832
597.720	0.288273
598.057	0.287750
598.394	0.287227
598.731	0.286694
599.067	0.286153
599.404	0.285637
599.741	0.285099
600.077	0.284631
600.414	0.284172
600.750	0.283758
601.087	0.283384
601.423	0.282942
601.759	0.282487
602.096	0.282012
602.432	0.281590
602.768	0.281158
603.104	0.280739
603.440	0.280303
603.776	0.279874
604.112	0.279458
604.448	0.279084
604.784	0.278720
605.120	0.278326
605.456	0.277985
605.792	0.277659
606.128	0.277323
606.463	0.277001
606.799	0.276653
607.135	0.276278
607.470	0.275929
607.806	0.275543
608.142	0.275152
608.477	0.274819
608.812	0.274445
609.148	0.274101
609.483	0.273706
609.819	0.273350
610.154	0.272964
610.489	0.272566
610.824	0.272172
611.159	0.271825
611.494	0.271448
611.830	0.271146
612.165	0.270910
612.500	0.270622
612.834	0.270357
613.169	0.270064
613.504	0.269736
613.839	0.269392
614.174	0.269062
614.509	0.268687
614.843	0.268339
615.178	0.268053
615.512	0.267775
615.847	0.267538
616.182	0.267298
616.516	0.267074
616.850	0.266829
617.185	0.266560
617.519	0.266311
617.853	0.266067
618.188	0.265725
618.522	0.265360
618.856	0.264976
619.190	0.264596
619.524	0.264249
619.858	0.263920
620.192	0.263663
620.526	0.263401
620.860	0.263214
621.194	0.262936
621.528	0.262680
621.862	0.262439
622.195	0.262173
622.529	0.261829
622.863	0.261522
623.196	0.261178
623.530	0.260897
623.864	0.260588
624.197	0.260359
624.530	0.260087
624.864	0.259847
625.197	0.259688
625.531	0.259445
625.864	0.259227
626.197	0.258942
626.530	0.258760
626.863	0.258460
627.196	0.258108
627.529	0.257748
627.862	0.257333
628.195	0.256993
628.528	0.256703
628.861	0.256307
629.194	0.255978
629.527	0.255720
629.860	0.255403
630.192	0.255039
630.525	0.254655
630.858	0.254348
631.190	0.254011
631.523	0.253656
631.855	0.253179
632.188	0.252759
632.520	0.252467
632.852	0.252076
633.185	0.251750
633.517	0.251341
633.849	0.251084
634.182	0.250854
634.514	0.250705
634.846	0.250606
635.178	0.250497
635.510	0.250289
635.842	0.250135
636.174	0.249965
636.506	0.249759
636.837	0.249552
637.169	0.249435
637.501	0.249181
637.833	0.249031
638.164	0.248813
638.496	0.248649
638.828	0.248409
639.159	0.248095
639.491	0.247752
639.822	0.247403
640.154	0.246989
640.485	0.246513
640.816	0.245998
641.147	0.245532
641.479	0.245002
641.810	0.244544
642.141	0.244056
642.472	0.243647
642.803	0.243269
643.134	0.242791
643.465	0.242322
643.796	0.241977
644.127	0.241692
644.458	0.241550
644.789	0.241305
645.119	0.241223
645.450	0.241244
645.781	0.241476
646.111	0.241722
646.442	0.241946
646.773	0.242071
647.103	0.242091
647.433	0.242145
647.764	0.242186
648.094	0.242140
648.425	0.242241
648.755	0.242287
649.085	0.242250
649.415	0.242214
649.745	0.242333
650.075	0.242480
650.405	0.242578
650.735	0.241211
651.065	0.233111
651.395	0.226607
651.725	0.212375
652.055	0.173169
652.385	0.134698
652.715	0.105141
653.044	0.085263
653.374	0.071000
653.704	0.073120
654.033	0.087247
654.363	0.095571
654.692	0.100390
655.022	0.103227
655.351	0.104955
655.680	0.105972
656.010	0.106521
656.339	0.106752
656.668	0.106793
656.997	0.106730
657.326	0.106597
657.655	0.106380
657.984	0.105014
658.313	0.099292
658.642	0.091173
658.971	0.092726
659.300	0.104184
659.629	0.124723
659.958	0.154124
660.286	0.199810
660.615	0.234015
660.944	0.232254
661.272	0.230636
661.601	0.230327
661.929	0.231193
662.258	0.232614
662.586	0.234042
662.915	0.234872
663.243	0.235289
663.571	0.235182
663.899	0.235194
664.228	0.235119
664.556	0.235022
664.884	0.234845
665.212	0.234758
665.540	0.234641
665.868	0.234721
666.196	0.234744
666.524	0.234808
666.852	0.234673
667.179	0.234568
667.507	0.234534
667.835	0.234611
668.162	0.234645
668.490	0.234728
668.818	0.234741
669.145	0.234915
669.473	0.235129
669.800	0.235389
670.127	0.235533
670.455	0.235640
670.782	0.235666
671.109	0.235588
671.436	0.235663
671.764	0.235733
672.091	0.235821
672.418	0.235930
672.745	0.235909
673.072	0.235910
673.399	0.235890
673.726	0.235862
674.053	0.235926
674.379	0.235908
674.706	0.235840
675.033	0.235772
675.359	0.235762
675.686	0.235750
676.013	0.235618
676.339	0.235415
676.666	0.235205
676.992	0.235137
677.318	0.235249
677.645	0.235209
677.971	0.235261
678.297	0.235192
678.624	0.235155
678.950	0.235059
679.276	0.234931
679.602	0.234797
679.928	0.234677
680.254	0.234468
680.580	0.234378
680.906	0.234306
681.232	0.234288
681.558	0.234362
681.883	0.234487
682.209	0.234551
682.535	0.234611
682.860	0.234644
683.186	0.234764
683.511	0.234712
683.837	0.234615
684.162	0.234524
684.488	0.234445
684.813	0.234370
685.138	0.234289
685.464	0.234197
685.789	0.234127
686.114	0.234077
686.439	0.234055
686.764	0.234026
687.089	0.234105
687.414	0.234190
687.739	0.234211
688.064	0.234141
688.389	0.234048
688.714	0.233899
689.039	0.233761
689.363	0.233664
689.688	0.233546
690.013	0.233266
690.337	0.233209
690.662	0.233231
690.986	0.233226
691.311	0.233161
691.635	0.233142
691.959	0.233071
692.284	0.232927
692.608	0.232827
692.932	0.232757
693.256	0.232752
693.580	0.232754
693.904	0.232750
694.228	0.232714
694.552	0.232715
694.876	0.232728
695.200	0.232622
695.524	0.232458
695.848	0.232302
696.172	0.232051
696.495	0.231738
696.819	0.231605
697.143	0.231293
697.466	0.230954
697.790	0.230592
698.113	0.230375
698.437	0.230098
698.760	0.229940
699.083	0.229840
699.407	0.229796
699.730	0.229616
700.053	0.229510
700.376	0.229296
700.699	0.228949
701.022	0.228577
701.345	0.228039
701.668	0.227423
701.991	0.226883
702.314	0.226331
702.637	0.225805
702.960	0.225300
703.283	0.225033
703.605	0.224728
703.928	0.224628
704.251	0.224659
704.573	0.224677
704.896	0.224599
705.218	0.224503
705.540	0.224293
705.863	0.224007
706.185	0.223570
706.507	0.223132
706.830	0.222534
707.152	0.222028
707.474	0.221522
707.796	0.221066
708.118	0.220724
708.440	0.220550
708.762	0.220301
709.084	0.220045
709.406	0.219840
709.728	0.219657
710.049	0.219376
710.371	0.219122
710.693	0.218816
711.014	0.218399
711.336	0.218089
711.658	0.217773
711.979	0.217544
712.301	0.217349
712.622	0.217182
712.943	0.216970
713.265	0.216839
713.586	0.216689
713.907	0.216610
714.228	0.216634
714.549	0.216603
714.870	0.216552
715.191	0.216517
715.512	0.216526
715.833	0.216568
716.154	0.216466
716.475	0.216347
716.796	0.216165
717.117	0.215861
717.437	0.215482
717.758	0.215083
718.078	0.214521
718.399	0.214159
718.719	0.213705
719.040	0.213269
719.360	0.212916
719.681	0.212634
720.001	0.212390
720.321	0.212221
720.642	0.212000
720.962	0.211721
721.282	0.211585
721.602	0.211437
721.922	0.211165
722.242	0.210979
722.562	0.210732
722.882	0.210563
723.202	0.210419
723.521	0.210288
723.841	0.210145
724.161	0.210061
724.481	0.209973
724.800	0.209914
725.120	0.209726
725.439	0.209555
725.759	0.209503
726.078	0.209489
726.398	0.209443
726.717	0.209407
727.036	0.209445
727.355	0.209506
727.675	0.209620
727.994	0.209630
728.313	0.209766
728.632	0.209837
728.951	0.209731
729.270	0.209566
729.589	0.209369
729.908	0.209145
730.226	0.208934
730.545	0.208728
730.864	0.208463
731.182	0.208242
731.501	0.208075
731.820	0.207987
732.138	0.207892
732.457	0.207649
732.775	0.207457
733.093	0.207270
733.412	0.207117
733.730	0.206882
734.048	0.206630
734.367	0.206261
734.685	0.205905
735.003	0.205364
735.321	0.204990
735.639	0.204683
735.957	0.204432
736.275	0.204217
736.593	0.204091
736.910	0.203974
737.228	0.203796
737.546	0.203682
737.863	0.203470
738.181	0.203174
738.499	0.202808
738.816	0.202485
739.134	0.202219
739.451	0.201931
739.768	0.201757
740.086	0.201378
740.403	0.201088
740.720	0.200750
741.038	0.200468
741.355	0.200128
741.672	0.199829
741.989	0.199361
742.306	0.198914
742.623	0.198459
742.940	0.197805
743.257	0.197026
743.573	0.196237
743.890	0.195609
744.207	0.194981
744.523	0.194512
744.840	0.194128
745.157	0.193662
745.473	0.193211
745.790	0.192855
746.106	0.192383
746.422	0.191841
746.739	0.191548
747.055	0.191218
747.371	0.190919
747.687	0.190806
748.004	0.190742
748.320	0.190700
748.636	0.190627
748.952	0.190512
749.268	0.190402
749.584	0.190454
749.899	0.190445
750.215	0.190416
750.531	0.190377
750.847	0.190352
751.162	0.190277
751.478	0.190202
751.793	0.190117
752.109	0.190017
752.424	0.189871
752.740	0.189841
753.055	0.189891
753.370	0.189830
753.686	0.189857
754.001	0.190008
754.316	0.190130
754.631	0.190210
754.946	0.190327
755.261	0.190406
755.576	0.190487
755.891	0.190428
756.206	0.190275
756.521	0.190154
756.836	0.190108
757.150	0.190001
757.465	0.189931
757.780	0.189863
758.094	0.189828
758.409	0.189813
758.723	0.189808
759.038	0.189710
759.352	0.189624
759.667	0.189393
759.981	0.189236
760.295	0.188986
760.609	0.188666
760.923	0.188355
761.238	0.187981
761.552	0.187609
761.866	0.187244
762.180	0.186961
762.493	0.186882
762.807	0.186754
763.121	0.186526
763.435	0.186257
763.749	0.186010
764.062	0.185626
764.376	0.185302
764.689	0.184904
765.003	0.184606
765.316	0.184327
765.630	0.184277
765.943	0.184070
766.257	0.183967
766.570	0.183731
766.883	0.183476
767.196	0.183121
767.509	0.182653
767.822	0.182233
768.135	0.181776
768.448	0.181458
768.761	0.181016
769.074	0.180529
769.387	0.180122
769.700	0.179813
770.013	0.179557
770.325	0.179304
770.638	0.179199
770.950	0.179016
771.263	0.178862
771.575	0.178527
771.888	0.178105
772.200	0.177626
772.513	0.177110
772.825	0.176562
773.137	0.176100
773.449	0.175678
773.761	0.175282
774.074	0.174900
774.386	0.174602
774.698	0.174299
775.010	0.173792
775.321	0.173477
775.633	0.173112
775.945	0.172915
776.257	0.172765
776.568	0.172463
776.880	0.172316
777.192	0.172107
777.503	0.171816
777.815	0.171669
778.126	0.171695
778.438	0.171779
778.749	0.171946
779.060	0.172082
779.372	0.172187
779.683	0.172234
779.994	0.172279
780.305	0.172305
780.616	0.172421
780.927	0.172460
781.238	0.172323
781.549	0.172311
781.860	0.172321
782.171	0.172299
782.481	0.172225
782.792	0.172099
783.103	0.172090
783.413	0.172001
783.724	0.171841
784.034	0.171757
784.345	0.171550
784.655	0.171326
784.966	0.171118
785.276	0.170812
785.586	0.170601
785.896	0.170486
786.207	0.170342
786.517	0.170272
786.827	0.170123
787.137	0.169876
787.447	0.169726
787.757	0.169824
788.066	0.169776
788.376	0.169632
788.686	0.169571
788.996	0.169546
789.305	0.169488
789.615	0.169379
789.925	0.169186
790.234	0.169149
790.544	0.169215
790.853	0.169195
791.162	0.169249
791.472	0.169321
791.781	0.169377
792.090	0.169392
792.399	0.169313
792.708	0.169106
793.017	0.168867
793.326	0.168741
793.635	0.168665
793.944	0.168351
794.253	0.168063
794.562	0.167843
794.871	0.167667
795.179	0.167544
795.488	0.167361
795.797	0.167283
796.105	0.167135
796.414	0.167205
796.722	0.167065
797.031	0.166806
797.339	0.166532
797.647	0.166138
797.956	0.165623
798.264	0.164952
798.572	0.164509
798.880	0.164025
799.188	0.163801
799.496	0.163439
799.804	0.163274
800.112	0.163062
800.420	0.163087
800.728	0.162947
801.035	0.162833
801.343	0.162429
801.651	0.161981
801.958	0.161649
802.266	0.161494
802.573	0.161527
802.881	0.161451
803.188	0.161399
803.496	0.161626
803.803	0.161802
804.110	0.161966
804.417	0.161978
804.724	0.162020
805.032	0.161978
805.339	0.161897
805.646	0.161848
805.953	0.161771
806.259	0.161665
806.566	0.161423
806.873	0.161246
807.180	0.161170
807.486	0.161122
807.793	0.161239
808.100	0.161400
808.406	0.161438
808.713	0.161336
809.019	0.160872
809.326	0.160447
809.632	0.160065
809.938	0.159440
810.244	0.158933
810.551	0.158464
810.857	0.158092
811.163	0.157864
811.469	0.157581
811.775	0.157591
812.081	0.157437
812.387	0.157408
812.692	0.157340
812.998	0.157411
813.304	0.157430
813.610	0.157597
813.915	0.157452
814.221	0.157365
814.526	0.157293
814.832	0.157375
815.137	0.157301
815.443	0.157315
815.748	0.157273
816.053	0.157262
816.358	0.157125
816.664	0.157114
816.969	0.156880
817.274	0.156976
817.579	0.157038
817.884	0.156902
818.189	0.156595
818.493	0.156601
818.798	0.156649
819.103	0.156483
819.408	0.156390
819.712	0.156294
820.017	0.155741
820.321	0.155683
820.626	0.155726
820.930	0.155501
821.235	0.155283
821.539	0.155219
821.843	0.155335
822.148	0.155359
822.452	0.155454
822.756	0.155558
823.060	0.155519
823.364	0.155815
823.668	0.155793
823.972	0.155745
824.276	0.155797
824.580	0.155850
824.883	0.155740
825.187	0.155660
825.491	0.155760
825.795	0.155784
826.098	0.155816
826.402	0.155997
826.705	0.156052
827.008	0.155747
827.312	0.155571
827.615	0.155101
827.918	0.154669
828.222	0.154289
828.525	0.154033
828.828	0.153894
829.131	0.153829
829.434	0.153616
829.737	0.153073
830.040	0.152506
830.343	0.151949
830.645	0.151831
830.948	0.151452
831.251	0.151104
831.553	0.150851
831.856	0.150579
832.159	0.150532
832.461	0.150303
832.764	0.150307
833.066	0.150249
833.368	0.150311
833.671	0.150073
833.973	0.150207
834.275	0.150242
834.577	0.150085
834.879	0.149988
835.181	0.149829
835.483	0.149376
835.785	0.148965
836.087	0.148820
836.389	0.148652
836.690	0.148032
836.992	0.147142
837.294	0.146233
837.595	0.145661
837.897	0.144758
838.198	0.144047
838.500	0.143119
838.801	0.142443
839.103	0.141687
839.404	0.140729
839.705	0.140285
840.006	0.140228
840.307	0.139932
840.608	0.139426
840.910	0.139890
841.210	0.140043
841.511	0.139787
841.812	0.139485
842.113	0.139406
842.414	0.139063
842.715	0.138954
843.015	0.138672
843.316	0.138071
843.616	0.138094
843.917	0.137788
844.217	0.137871
844.518	0.137308
844.818	0.136893
845.118	0.137223
845.419	0.137563
845.719	0.137585
846.019	0.136510
846.319	0.136178
846.619	0.135713
846.919	0.136470
847.219	0.135942
847.519	0.134929
847.819	0.134814
848.118	0.134397
848.418	0.134678
848.718	0.134460
849.017	0.134683
849.317	0.135362
849.616	0.136171
849.916	0.137093
850.215	0.137926
850.515	0.138862
850.814	0.139550
851.113	0.140355
851.412	0.140664
851.712	0.141038
852.011	0.141193
852.310	0.142186
852.609	0.142683
852.908	0.142668
853.206	0.142648
853.505	0.143074
853.804	0.143460
854.103	0.143668
854.401	0.144105
854.700	0.144066
854.999	0.143852
855.297	0.143709
855.595	0.143665
855.894	0.143769
856.192	0.143583
856.491	0.143294
856.789	0.143050
857.087	0.142720
857.385	0.142285
857.683	0.141784
857.981	0.141143
858.279	0.140701
858.577	0.139625
858.875	0.139175
859.173	0.138968
859.471	0.139008
859.768	0.138543
860.066	0.138380
860.363	0.137525
860.661	0.136972
860.959	0.137065
861.256	0.137665
861.553	0.138045
861.851	0.137649
862.148	0.137347
862.445	0.136785
862.742	0.136657
863.039	0.135626
863.337	0.135629
863.634	0.135068
863.931	0.134116
864.227	0.133839
864.524	0.133805
864.821	0.133459
865.118	0.132517
865.415	0.132415
865.711	0.131689
866.008	0.130896
866.304	0.130499
866.601	0.130775
866.897	0.130372
867.194	0.129813
867.490	0.129159
867.786	0.128605
868.082	0.128611
868.379	0.127783
868.675	0.128325
868.971	0.128066
869.267	0.128444
869.563	0.128120
869.859	0.128339
870.154	0.129207
870.450	0.129222
870.746	0.128763
871.042	0.129361
871.337	0.129295
871.633	0.129431
871.928	0.129048
872.224	0.128688
872.519	0.127591
872.815	0.127185
873.110	0.127083
873.405	0.127135
873.700	0.127068
873.995	0.126358
874.291	0.126118
874.586	0.127071
874.881	0.126820
875.175	0.127137
875.470	0.126923
875.765	0.127054
876.060	0.127327
876.355	0.127496
876.649	0.127385
876.944	0.127724
877.238	0.127971
877.533	0.128525
877.827	0.128973
878.122	0.129701
878.416	0.130047
878.710	0.130959
879.005	0.131262
879.299	0.131040
879.593	0.130637
879.887	0.130373
880.181	0.130252
880.475	0.130860
880.769	0.130247
881.063	0.130397
881.356	0.130361
881.650	0.130622
881.944	0.130675
882.238	0.115724
882.531	0.123724
882.825	0.114853
883.118	0.106483
883.412	0.135499
883.705	0.122491
883.998	0.132110
884.291	0.133513
884.585	0.135424
884.878	0.131725
>>>>>>>>>> END of Data <<<<<<<<<<
>>>>>>>>>> Raw Data Start <<<<<<<<
190.664	-394
191.040	10
191.415	10
191.791	6
192.166	9
192.542	10
192.917	4
193.293	5
193.668	3
194.044	8
194.419	-11
194.794	8
195.170	8
195.545	8
195.920	9
196.296	9
196.671	9
197.046	10
197.421	11
197.796	11
198.171	12
198.546	12
198.922	13
199.297	13
199.672	14
200.047	14
200.422	15
200.796	15
201.171	15
201.546	15
201.921	15
202.296	15
202.671	15
203.045	16
203.420	16
203.795	16
204.170	16
204.544	15
204.919	15
205.294	15
205.668	15
206.043	15
206.417	15
206.792	15
207.166	15
207.541	14
207.915	14
208.289	14
208.664	14
209.038	14
209.412	14
209.787	14
210.161	14
210.535	14
210.909	14
211.284	14
211.658	14
212.032	14
212.406	14
212.780	14
213.154	14
213.528	14
213.902	14
214.276	14
214.650	14
215.024	14
215.398	14
215.772	14
216.145	14
216.519	14
216.893	14
217.267	14
217.640	14
218.014	14
218.388	14
218.761	14
219.135	14
219.508	14
219.882	14
220.256	14
220.629	14
221.003	14
221.376	14
221.749	14
222.123	14
222.496	14
222.869	14
223.243	14
223.616	14
223.989	14
224.362	14
224.736	14
225.109	14
225.482	14
225.855	14
226.228	14
226.601	14
226.974	14
227.347	14
227.720	14
228.093	14
228.466	14
228.839	14
229.212	14
229.585	14
229.957	14
230.330	14
230.703	14
231.076	14
231.448	15
231.821	14
232.194	14
232.566	15
232.939	15
233.311	14
233.684	14
234.056	15
234.429	14
234.801	14
235.174	15
235.546	15
235.918	15
236.291	15
236.663	15
237.035	15
237.408	15
237.780	15
238.152	15
238.524	15
238.896	16
239.268	16
239.641	16
240.013	16
240.385	16
240.757	16
241.129	16
241.500	16
241.872	16
242.244	16
242.616	16
242.988	16
243.360	16
243.731	16
244.103	16
244.475	16
244.847	16
245.218	16
245.590	16
245.961	16
246.333	16
246.705	16
247.076	16
247.448	16
247.819	16
248.190	16
248.562	16
248.933	16
249.305	16
249.676	16
250.047	16
250.418	16
250.790	16
251.161	16
251.532	16
251.903	16
252.274	15
252.645	16
253.016	16
253.387	16
253.758	16
254.129	16
254.500	16
254.871	17
255.242	17
255.613	17
255.984	17
256.355	16
256.725	16
257.096	17
257.467	16
257.838	16
258.208	17
258.579	17
258.949	17
259.320	17
259.690	17
260.061	17
260.431	17
260.802	17
261.172	16
261.543	17
261.913	17
262.283	17
262.654	17
263.024	17
263.394	17
263.764	17
264.135	18
264.505	18
264.875	18
265.245	17
265.615	17
265.985	17
266.355	17
266.725	17
267.095	17
267.465	17
267.835	17
268.205	17
268.575	17
268.944	17
269.314	17
269.684	17
270.054	16
270.423	16
270.793	16
271.163	16
271.532	16
271.902	16
272.271	16
272.641	16
273.010	16
273.380	17
273.749	17
274.119	17
274.488	17
274.857	17
275.227	17
275.596	18
275.965	17
276.335	18
276.704	18
277.073	18
277.442	18
277.811	18
278.180	18
278.549	18
278.918	18
279.287	18
279.656	18
280.025	18
280.394	19
280.763	19
281.132	19
281.501	19
281.869	19
282.238	18
282.607	18
282.976	18
283.344	18
283.713	18
284.081	18
284.450	18
284.819	18
285.187	18
285.556	18
285.924	18
286.292	18
286.661	18
287.029	17
287.398	18
287.766	18
288.134	17
288.502	17
288.871	17
289.239	17
289.607	18
289.975	18
290.343	18
290.711	18
291.079	18
291.447	18
291.815	18
292.183	18
292.551	17
292.919	17
293.287	18
293.655	17
294.022	18
294.390	17
294.758	17
295.126	17
295.493	17
295.861	17
296.229	17
296.596	17
296.964	17
297.331	17
297.699	18
298.066	18
298.434	18
298.801	18
299.168	18
299.536	18
299.903	18
300.270	18
300.638	18
301.005	18
301.372	18
301.739	18
302.106	18
302.473	18
302.840	18
303.207	18
303.574	18
303.941	18
304.308	18
304.675	18
305.042	18
305.409	18
305.776	18
306.143	18
306.509	19
306.876	19
307.243	19
307.610	19
307.976	20
308.343	20
308.709	20
309.076	20
309.442	20
309.809	20
310.175	21
310.542	21
310.908	22
311.275	23
311.641	23
312.007	23
312.373	24
312.740	24
313.106	25
313.472	25
313.838	25
314.204	26
314.570	27
314.936	28
315.302	29
315.668	29
316.034	30
316.400	30
316.766	31
317.132	32
317.498	33
317.864	34
318.230	34
318.595	35
318.961	36
319.327	37
319.692	38
320.058	39
320.424	41
320.789	42
321.155	44
321.520	46
321.886	47
322.251	49
322.616	51
322.982	53
323.347	55
323.712	57
324.078	60
324.443	62
324.808	65
325.173	67
325.539	70
325.904	73
326.269	75
326.634	78
326.999	81
327.364	84
327.729	86
328.094	89
328.459	92
328.823	95
329.188	97
329.553	100
329.918	103
330.283	106
330.647	108
331.012	111
331.377	114
331.741	117
332.106	120
332.470	123
332.835	126
333.199	129
333.564	132
333.928	135
334.293	137
334.657	141
335.021	144
335.386	147
335.750	150
336.114	154
336.478	157
336.843	160
337.207	164
337.571	167
337.935	170
338.299	174
338.663	177
339.027	180
339.391	184
339.755	187
340.119	190
340.483	193
340.846	196
341.210	199
341.574	202
341.938	205
342.301	208
342.665	211
343.029	214
343.392	217
343.756	220
344.119	223
344.483	225
344.846	228
345.210	231
345.573	234
345.937	236
346.300	238
346.663	241
347.027	243
347.390	246
347.753	248
348.116	251
348.479	253
348.843	256
349.206	259
349.569	261
349.932	264
350.295	266
350.658	268
351.021	270
351.383	272
351.746	274
352.109	276
352.472	278
352.835	281
353.197	283
353.560	285
353.923	287
354.285	289
354.648	292
355.011	293
355.373	295
355.736	297
356.098	299
356.461	300
356.823	302
357.185	303
357.548	305
357.910	306
358.272	309
358.635	311
358.997	313
359.359	314
359.721	316
360.083	318
360.445	319
360.807	320
361.169	322
361.531	324
361.893	326
362.255	327
362.617	328
362.979	330
363.341	332
363.703	334
364.064	336
364.426	337
364.788	339
365.149	341
365.511	342
365.873	344
366.234	345
366.596	346
366.957	347
367.319	348
367.680	349
368.042	350
368.403	351
368.764	352
369.126	353
369.487	354
369.848	355
370.209	356
370.570	357
370.931	357
371.293	358
371.654	359
372.015	359
372.376	360
372.737	360
373.098	361
373.458	362
373.819	363
374.180	364
374.541	365
374.902	367
375.263	369
375.623	371
375.984	372
376.345	374
376.705	375
377.066	377
377.426	378
377.787	380
378.147	382
378.508	383
378.868	385
379.228	386
379.589	388
379.949	389
380.309	391
380.670	392
381.030	394
381.390	395
381.750	397
382.110	398
382.470	399
382.830	400
383.190	401
383.550	402
383.910	404
384.270	406
384.630	408
384.990	410
385.350	411
385.709	413
386.069	414
386.429	416
386.788	417
387.148	419
387.508	420
387.867	422
388.227	425
388.586	427
388.946	430
389.305	433
389.665	436
390.024	439
390.383	442
390.743	445
391.102	448
391.461	450
391.820	451
392.179	453
392.539	455
392.898	457
393.257	459
393.616	462
393.975	465
394.334	469
394.693	473
395.051	477
395.410	482
395.769	485
396.128	487
396.487	490
396.845	492
397.204	494
397.563	495
397.921	496
398.280	498
398.638	499
398.997	501
399.355	503
399.714	505
400.072	507
400.431	509
400.789	511
401.147	514
401.506	516
401.864	518
402.222	520
402.580	521
402.938	521
403.297	522
403.655	522
404.013	523
404.371	523
404.729	524
405.087	526
405.444	528
405.802	530
406.160	532
406.518	535
406.876	536
407.233	538
407.591	540
407.949	542
408.306	544
408.664	546
409.022	547
409.379	549
409.737	551
410.094	554
410.451	557
410.809	560
411.166	563
411.523	566
411.881	569
412.238	572
412.595	575
412.952	577
413.310	579
413.667	581
414.024	583
414.381	586
414.738	588
415.095	591
415.452	594
415.809	597
416.165	599
416.522	603
416.879	607
417.236	611
417.593	617
417.949	623
418.306	631
418.663	638
419.019	647
419.376	655
419.732	663
420.089	670
420.445	678
420.802	685
421.158	692
421.514	697
421.871	703
422.227	708
422.583	713
422.939	718
423.295	722
423.652	727
424.008	731
424.364	735
424.720	737
425.076	740
425.432	742
425.788	745
426.143	748
426.499	753
426.855	757
427.211	762
427.567	767
427.922	771
428.278	775
428.634	777
428.989	780
429.345	784
429.700	788
430.056	793
430.411	798
430.767	804
431.122	810
431.478	815
431.833	819
432.188	824
432.543	828
432.899	831
433.254	834
433.609	836
433.964	836
434.319	838
434.674	839
435.029	841
435.384	844
435.739	848
436.094	854
436.449	860
436.804	868
437.158	877
437.513	886
437.868	897
438.223	908
438.577	920
438.932	932
439.287	945
439.641	957
439.996	970
440.350	982
440.704	995
441.059	1007
441.413	1020
441.768	1033
442.122	1044
442.476	1056
442.830	1067
443.185	1078
443.539	1088
443.893	1099
444.247	1107
444.601	1115
444.955	1120
445.309	1123
445.663	1126
446.017	1128
446.371	1129
446.724	1130
447.078	1130
447.432	1130
447.786	1130
448.139	1128
448.493	1126
448.847	1124
449.200	1121
449.554	1119
449.907	1116
450.261	1114
450.614	1110
450.968	1109
451.321	1106
451.674	1105
452.027	1103
452.381	1102
452.734	1102
453.087	1101
453.440	1102
453.793	1103
454.146	1106
454.499	1111
454.852	1118
455.205	1125
455.558	1133
455.911	1141
456.264	1149
456.617	1157
456.970	1164
457.322	1170
457.675	1176
458.028	1181
458.380	1185
458.733	1188
459.086	1192
459.438	1198
459.791	1204
460.143	1211
460.496	1221
460.848	1232
461.200	1244
461.553	1257
461.905	1269
462.257	1279
462.609	1288
462.961	1296
463.314	1303
463.666	1309
464.018	1313
464.370	1318
464.722	1325
465.074	1331
465.426	1336
465.777	1342
466.129	1345
466.481	1347
466.833	1348
467.184	1347
467.536	1344
467.888	1340
468.239	1335
468.591	1330
468.943	1326
469.294	1323
469.646	1322
469.997	1323
470.348	1327
470.700	1334
471.051	1344
471.402	1356
471.754	1371
472.105	1386
472.456	1403
472.807	1423
473.158	1444
473.509	1468
473.860	1494
474.211	1520
474.562	1548
474.913	1577
475.264	1608
475.615	1637
475.966	1667
476.316	1697
476.667	1726
477.018	1756
477.368	1786
477.719	1816
478.070	1845
478.420	1872
478.771	1899
479.121	1926
479.472	1952
479.822	1979
480.172	2009
480.523	2044
480.873	2094
481.223	2177
481.573	2302
481.924	2459
482.274	2637
482.624	2824
482.974	3011
483.324	3173
483.674	3297
484.024	3380
484.374	3434
484.724	3468
485.073	3491
485.423	3510
485.773	3527
486.123	3543
486.472	3559
486.822	3574
487.172	3585
487.521	3594
487.871	3595
488.220	3580
488.570	3530
488.919	3439
489.268	3315
489.618	3170
489.967	3014
490.316	2857
490.666	2720
491.015	2622
491.364	2561
491.713	2528
492.062	2516
492.411	2513
492.760	2517
493.109	2521
493.458	2526
493.807	2530
494.156	2532
494.505	2535
494.853	2538
495.202	2544
495.551	2553
495.900	2563
496.248	2574
496.597	2584
496.945	2594
497.294	2604
497.642	2614
497.991	2627
498.339	2643
498.688	2660
499.036	2675
499.384	2690
499.732	2702
500.081	2711
500.429	2719
500.777	2726
501.125	2732
501.473	2738
501.821	2745
502.169	2751
502.517	2757
502.865	2758
503.213	2758
503.561	2756
503.908	2753
504.256	2750
504.604	2744
504.952	2739
505.299	2732
505.647	2722
505.994	2710
506.342	2699
506.689	2687
507.037	2675
507.384	2667
507.732	2660
508.079	2653
508.426	2647
508.774	2642
509.121	2634
509.468	2627
509.815	2619
510.162	2611
510.509	2603
510.856	2594
511.203	2585
511.550	2576
511.897	2568
512.244	2559
512.591	2552
512.938	2543
513.284	2536
513.631	2527
513.978	2517
514.324	2507
514.671	2497
515.018	2486
515.364	2477
515.711	2469
516.057	2459
516.403	2450
516.750	2440
517.096	2430
517.443	2418
517.789	2406
518.135	2395
518.481	2385
518.827	2376
519.173	2365
519.519	2356
519.865	2346
520.211	2338
520.557	2330
520.903	2323
521.249	2317
521.595	2311
521.941	2304
522.287	2299
522.632	2293
522.978	2287
523.324	2282
523.669	2279
524.015	2278
524.360	2280
524.706	2284
525.051	2291
525.397	2300
525.742	2310
526.087	2320
526.433	2330
526.778	2337
527.123	2343
527.468	2348
527.813	2351
528.158	2355
528.504	2361
528.849	2370
529.193	2383
529.538	2399
529.883	2419
530.228	2442
530.573	2469
530.918	2496
531.263	2524
531.607	2548
531.952	2570
532.296	2588
532.641	2601
532.986	2612
533.330	2621
533.675	2631
534.019	2646
534.363	2665
534.708	2688
535.052	2716
535.396	2745
535.741	2772
536.085	2796
536.429	2817
536.773	2834
537.117	2846
537.461	2856
537.805	2865
538.149	2875
538.493	2885
538.837	2897
539.181	2912
539.524	2932
539.868	2956
540.212	2984
540.556	3013
540.899	3044
541.243	3071
541.586	3092
541.930	3108
542.273	3117
542.617	3123
542.960	3129
543.304	3140
543.647	3155
543.990	3177
544.333	3202
544.677	3228
545.020	3252
545.363	3270
545.706	3283
546.049	3290
546.392	3290
546.735	3285
547.078	3278
547.421	3271
547.764	3265
548.106	3261
548.449	3261
548.792	3267
549.135	3278
549.477	3295
549.820	3310
550.162	3323
550.505	3331
550.847	3333
551.190	3330
551.532	3326
551.875	3320
552.217	3318
552.559	3318
552.901	3323
553.244	3331
553.586	3342
553.928	3354
554.270	3364
554.612	3370
554.954	3372
555.296	3372
555.638	3372
555.980	3371
556.322	3374
556.663	3381
557.005	3398
557.347	3421
557.689	3447
558.030	3473
558.372	3496
558.713	3516
559.055	3533
559.396	3550
559.738	3568
560.079	3588
560.421	3614
560.762	3645
561.103	3680
561.444	3721
561.786	3764
562.127	3810
562.468	3861
562.809	3918
563.150	3981
563.491	4050
563.832	4127
564.173	4215
564.514	4319
564.855	4445
565.195	4601
565.536	4790
565.877	5011
566.218	5266
566.558	5553
566.899	5869
567.239	6210
567.580	6567
567.920	6935
568.261	7305
568.601	7683
568.941	8074
569.282	8475
569.622	8890
569.962	9321
570.302	9780
570.643	10252
570.983	10727
571.323	11183
571.663	11621
572.003	12034
572.343	12417
572.683	12773
573.022	13133
573.362	13510
573.702	13898
574.042	14282
574.381	14649
574.721	14995
575.061	15325
575.400	15622
575.740	15882
576.079	16107
576.419	16332
576.758	16588
577.097	16893
577.437	17227
577.776	17586
578.115	17961
578.454	18341
578.794	18689
579.133	18953
579.472	19125
579.811	19214
580.150	19222
580.489	19166
580.828	19083
581.167	19002
581.505	18934
581.844	18875
582.183	18817
582.522	18774
582.860	18744
583.199	18714
583.538	18660
583.876	18547
584.215	18360
584.553	18085
584.891	17731
585.230	17305
585.568	16838
585.906	16364
586.245	15936
586.583	15567
586.921	15259
587.259	14978
587.597	14700
587.935	14412
588.273	14117
588.611	13843
588.949	13595
589.287	13384
589.625	13214
589.963	13077
590.300	12964
590.638	12859
590.976	12746
591.313	12617
591.651	12494
591.989	12386
592.326	12297
592.664	12218
593.001	12153
593.338	12109
593.676	12082
594.013	12078
594.350	12111
594.687	12176
595.025	12249
595.362	12315
595.699	12358
596.036	12383
596.373	12380
596.710	12346
597.047	12290
597.384	12224
597.720	12152
598.057	12091
598.394	12044
598.731	12014
599.067	12005
599.404	12015
599.741	12055
600.077	12114
600.414	12182
600.750	12256
601.087	12309
601.423	12332
601.759	12328
602.096	12300
602.432	12258
602.768	12196
603.104	12113
603.440	12012
603.776	11906
604.112	11792
604.448	11676
604.784	11554
605.120	11426
605.456	11301
605.792	11170
606.128	11033
606.463	10893
606.799	10752
607.135	10623
607.470	10496
607.806	10370
608.142	10248
608.477	10129
608.812	10016
609.148	9902
609.483	9783
609.819	9661
610.154	9545
610.489	9437
610.824	9343
611.159	9263
611.494	9182
611.830	9111
612.165	9040
612.500	8963
612.834	8874
613.169	8773
613.504	8663
613.839	8541
614.174	8403
614.509	8264
614.843	8125
615.178	7993
615.512	7862
615.847	7734
616.182	7606
616.516	7478
616.850	7342
617.185	7203
617.519	7060
617.853	6907
618.188	6749
618.522	6604
618.856	6481
619.190	6373
619.524	6278
619.858	6202
620.192	6141
620.526	6087
620.860	6034
621.194	5983
621.528	5933
621.862	5884
622.195	5824
622.529	5761
622.863	5696
623.196	5631
623.530	5565
623.864	5499
624.197	5432
624.530	5366
624.864	5307
625.197	5246
625.531	5177
625.864	5094
626.197	5006
626.530	4910
626.863	4803
627.196	4687
627.529	4570
627.862	4455
628.195	4341
628.528	4227
628.861	4118
629.194	4021
629.527	3927
629.860	3835
630.192	3745
630.525	3661
630.858	3581
631.190	3506
631.523	3434
631.855	3366
632.188	3308
632.520	3252
632.852	3200
633.185	3147
633.517	3096
633.849	3049
634.182	3006
634.514	2965
634.846	2929
635.178	2896
635.510	2867
635.842	2841
636.174	2815
636.506	2790
636.837	2765
637.169	2740
637.501	2714
637.833	2686
638.164	2654
638.496	2618
638.828	2579
639.159	2534
639.491	2486
639.822	2436
640.154	2385
640.485	2336
640.816	2287
641.147	2238
641.479	2191
641.810	2145
642.141	2101
642.472	2058
642.803	2014
643.134	1974
643.465	1939
643.796	1911
644.127	1890
644.458	1879
644.789	1879
645.119	1889
645.450	1906
645.781	1925
646.111	1943
646.442	1960
646.773	1973
647.103	1983
647.433	1992
647.764	2001
648.094	2013
648.425	2029
648.755	2048
649.085	2070
649.415	2094
649.745	2118
650.075	2143
650.405	2170
650.735	2232
651.065	2677
651.395	4056
651.725	6366
652.055	9341
652.385	12793
652.715	16463
653.044	20133
653.374	23808
653.704	26686
654.033	28737
654.363	30160
654.692	31110
655.022	31732
655.351	32141
655.680	32396
656.010	32534
656.339	32597
656.668	32614
656.997	32608
657.326	32584
657.655	32516
657.984	32057
658.313	30656
658.642	28315
658.971	25303
659.300	21810
659.629	18099
659.958	14389
660.286	10678
660.615	7769
660.944	5694
661.272	4249
661.601	3280
661.929	2635
662.258	2201
662.586	1916
662.915	1742
663.243	1642
663.571	1585
663.899	1550
664.228	1528
664.556	1514
664.884	1504
665.212	1497
665.540	1491
665.868	1488
666.196	1487
666.524	1485
666.852	1486
667.179	1492
667.507	1503
667.835	1519
668.162	1541
668.490	1568
668.818	1600
669.145	1633
669.473	1666
669.800	1697
670.127	1724
670.455	1747
670.782	1766
671.109	1783
671.436	1797
671.764	1809
672.091	1818
672.418	1826
672.745	1833
673.072	1840
673.399	1848
673.726	1856
674.053	1862
674.379	1864
674.706	1863
675.033	1862
675.359	1859
675.686	1854
676.013	1852
676.339	1853
676.666	1859
676.992	1873
677.318	1890
677.645	1912
677.971	1932
678.297	1950
678.624	1968
678.950	1985
679.276	2001
679.602	2016
679.928	2032
680.254	2052
680.580	2077
680.906	2110
681.232	2150
681.558	2192
681.883	2233
682.209	2272
682.535	2308
682.860	2340
683.186	2367
683.511	2389
683.837	2403
684.162	2414
684.488	2422
684.813	2431
685.138	2439
685.464	2446
685.789	2452
686.114	2458
686.439	2466
686.764	2474
687.089	2480
687.414	2480
687.739	2472
688.064	2457
688.389	2438
688.714	2416
689.039	2391
689.363	2365
689.688	2337
690.013	2310
690.337	2285
690.662	2265
690.986	2247
691.311	2229
691.635	2210
691.959	2193
692.284	2181
692.608	2178
692.932	2181
693.256	2188
693.580	2197
693.904	2209
694.228	2223
694.552	2236
694.876	2241
695.200	2240
695.524	2230
695.848	2216
696.172	2198
696.495	2180
696.819	2160
697.143	2140
697.466	2119
697.790	2102
698.113	2089
698.437	2083
698.760	2082
699.083	2081
699.407	2075
699.730	2064
700.053	2047
700.376	2024
700.699	1992
701.022	1951
701.345	1907
701.668	1865
701.991	1830
702.314	1806
702.637	1794
702.960	1798
703.283	1816
703.605	1849
703.928	1893
704.251	1942
704.573	1993
704.896	2038
705.218	2075
705.540	2105
705.863	2128
706.185	2148
706.507	2165
706.830	2181
707.152	2197
707.474	2215
707.796	2235
708.118	2256
708.440	2276
708.762	2294
709.084	2309
709.406	2317
709.728	2318
710.049	2314
710.371	2305
710.693	2290
711.014	2273
711.336	2257
711.658	2242
711.979	2229
712.301	2216
712.622	2204
712.943	2188
713.265	2170
713.586	2150
713.907	2132
714.228	2116
714.549	2102
714.870	2094
715.191	2090
715.512	2089
715.833	2085
716.154	2080
716.475	2071
716.796	2058
717.117	2038
717.437	2016
717.758	1991
718.078	1965
718.399	1940
718.719	1917
719.040	1898
719.360	1883
719.681	1872
720.001	1865
720.321	1861
720.642	1859
720.962	1861
721.282	1866
721.602	1871
721.922	1878
722.242	1887
722.562	1900
722.882	1914
723.202	1928
723.521	1941
723.841	1954
724.161	1967
724.481	1980
724.800	1994
725.120	2012
725.439	2034
725.759	2058
726.078	2085
726.398	2118
726.717	2159
727.036	2204
727.355	2253
727.675	2301
727.994	2346
728.313	2390
728.632	2427
728.951	2459
729.270	2486
729.589	2512
729.908	2543
730.226	2578
730.545	2617
730.864	2659
731.182	2704
731.501	2750
731.820	2793
732.138	2831
732.457	2865
732.775	2895
733.093	2921
733.412	2935
733.730	2940
734.048	2934
734.367	2921
734.685	2904
735.003	2885
735.321	2867
735.639	2853
735.957	2841
736.275	2831
736.593	2815
736.910	2791
737.228	2759
737.546	2716
737.863	2667
738.181	2612
738.499	2555
738.816	2498
739.134	2443
739.451	2386
739.768	2329
740.086	2275
740.403	2223
740.720	2176
741.038	2132
741.355	2089
741.672	2047
741.989	2004
742.306	1959
742.623	1913
742.940	1869
743.257	1827
743.573	1792
743.890	1762
744.207	1740
744.523	1725
744.840	1715
745.157	1709
745.473	1708
745.790	1715
746.106	1728
746.422	1749
746.739	1775
747.055	1805
747.371	1840
747.687	1876
748.004	1910
748.320	1940
748.636	1967
748.952	1995
749.268	2022
749.584	2048
749.899	2071
750.215	2096
750.531	2123
750.847	2153
751.162	2184
751.478	2214
751.793	2245
752.109	2278
752.424	2313
752.740	2349
753.055	2390
753.370	2439
753.686	2496
754.001	2558
754.316	2622
754.631	2691
754.946	2763
755.261	2839
755.576	2913
755.891	2984
756.206	3055
756.521	3130
756.836	3206
757.150	3279
757.465	3344
757.780	3399
758.094	3446
758.409	3482
758.723	3505
759.038	3516
759.352	3517
759.667	3508
759.981	3491
760.295	3474
760.609	3461
760.923	3453
761.238	3449
761.552	3447
761.866	3444
762.180	3438
762.493	3420
762.807	3384
763.121	3331
763.435	3263
763.749	3188
764.062	3119
764.376	3060
764.689	3020
765.003	2999
765.316	2996
765.630	3006
765.943	3023
766.257	3044
766.570	3061
766.883	3067
767.196	3060
767.509	3042
767.822	3014
768.135	2977
768.448	2937
768.761	2895
769.074	2859
769.387	2831
769.700	2814
770.013	2803
770.325	2795
770.638	2783
770.950	2760
771.263	2723
771.575	2672
771.888	2607
772.200	2531
772.513	2449
772.825	2363
773.137	2274
773.449	2187
773.761	2102
774.074	2023
774.386	1953
774.698	1894
775.010	1846
775.321	1812
775.633	1789
775.945	1776
776.257	1769
776.568	1767
776.880	1773
777.192	1786
777.503	1806
777.815	1831
778.126	1862
778.438	1900
778.749	1940
779.060	1980
779.372	2017
779.683	2053
779.994	2085
780.305	2111
780.616	2128
780.927	2140
781.238	2144
781.549	2140
781.860	2126
782.171	2107
782.481	2085
782.792	2064
783.103	2042
783.413	2019
783.724	1994
784.034	1970
784.345	1948
784.655	1929
784.966	1908
785.276	1887
785.586	1866
785.896	1845
786.207	1823
786.517	1800
786.827	1777
787.137	1756
787.447	1735
787.757	1714
788.066	1695
788.376	1677
788.686	1659
788.996	1640
789.305	1621
789.615	1606
789.925	1598
790.234	1596
790.544	1600
790.853	1608
791.162	1617
791.472	1624
791.781	1627
792.090	1624
792.399	1615
792.708	1600
793.017	1583
793.326	1566
793.635	1551
793.944	1537
794.253	1525
794.562	1516
794.871	1511
795.179	1507
795.488	1502
795.797	1494
796.105	1481
796.414	1458
796.722	1428
797.031	1390
797.339	1345
797.647	1293
797.956	1239
798.264	1189
798.572	1148
798.880	1116
799.188	1092
799.496	1074
799.804	1062
800.112	1052
800.420	1043
800.728	1035
801.035	1024
801.343	1012
801.651	1003
801.958	1000
802.266	1004
802.573	1012
802.881	1023
803.188	1037
803.496	1052
803.803	1067
804.110	1080
804.417	1093
804.724	1103
805.032	1113
805.339	1122
805.646	1127
805.953	1130
806.259	1131
806.566	1130
806.873	1126
807.180	1120
807.486	1114
807.793	1107
808.100	1096
808.406	1077
808.713	1053
809.019	1024
809.326	996
809.632	968
809.938	942
810.244	919
810.551	899
810.857	882
811.163	868
811.469	852
811.775	835
812.081	818
812.387	803
812.692	790
812.998	781
813.304	773
813.610	767
813.915	762
814.221	758
814.526	755
814.832	751
815.137	748
815.443	744
815.748	736
816.053	726
816.358	716
816.664	707
816.969	699
817.274	692
817.579	685
817.884	682
818.189	681
818.493	681
818.798	679
819.103	675
819.408	668
819.712	660
820.017	652
820.321	643
820.626	634
820.930	625
821.235	620
821.539	617
821.843	617
822.148	618
822.452	619
822.756	619
823.060	616
823.364	612
823.668	607
823.972	601
824.276	594
824.580	589
824.883	586
825.187	586
825.491	585
825.795	585
826.098	586
826.402	584
826.705	582
827.008	578
827.312	573
827.615	563
827.918	552
828.222	539
828.525	526
828.828	513
829.131	500
829.434	487
829.737	475
830.040	466
830.343	458
830.645	451
830.948	444
831.251	437
831.553	431
831.856	427
832.159	422
832.461	416
832.764	410
833.066	404
833.368	400
833.671	396
833.973	393
834.275	390
834.577	388
834.879	384
835.181	380
835.483	376
835.785	371
836.087	364
836.389	357
836.690	348
836.992	338
837.294	328
837.595	318
837.897	307
838.198	296
838.500	285
838.801	276
839.103	268
839.404	262
839.705	256
840.006	251
840.307	247
840.608	244
840.910	242
841.210	240
841.511	239
841.812	237
842.113	234
842.414	231
842.715	226
843.015	221
843.316	217
843.616	212
843.917	208
844.217	204
844.518	201
844.818	199
845.118	197
845.419	196
845.719	195
846.019	194
846.319	193
846.619	192
846.919	191
847.219	191
847.519	190
847.819	189
848.118	189
848.418	191
848.718	197
849.017	206
849.317	219
849.616	235
849.916	253
850.215	274
850.515	296
850.814	318
851.113	338
851.412	356
851.712	372
852.011	387
852.310	401
852.609	413
852.908	424
853.206	434
853.505	443
853.804	450
854.103	457
854.401	462
854.700	464
854.999	463
855.297	457
855.595	448
855.894	435
856.192	419
856.491	401
856.789	381
857.087	361
857.385	342
857.683	325
857.981	309
858.279	295
858.577	281
858.875	270
859.173	260
859.471	252
859.768	245
860.066	239
860.363	234
860.661	231
860.959	227
861.256	224
861.553	220
861.851	216
862.148	212
862.445	207
862.742	203
863.039	200
863.337	197
863.634	195
863.931	194
864.227	193
864.524	192
864.821	192
865.118	192
865.415	190
865.711	188
866.008	184
866.304	181
866.601	177
866.897	174
867.194	172
867.490	170
867.786	169
868.082	169
868.379	170
868.675	170
868.971	171
869.267	170
869.563	171
869.859	170
870.154	169
870.450	168
870.746	167
871.042	166
871.337	166
871.633	167
871.928	167
872.224	169
872.519	170
872.815	172
873.110	172
873.405	172
873.700	171
873.995	171
874.291	171
874.586	172
874.881	173
875.175	174
875.470	177
875.765	180
876.060	183
876.355	187
876.649	191
876.944	194
877.238	197
877.533	200
877.827	202
878.122	204
878.416	205
878.710	204
879.005	204
879.299	203
879.593	202
879.887	201
880.181	200
880.475	199
880.769	197
881.063	196
881.356	194
881.650	191
881.944	188
882.238	159
882.531	150
882.825	151
883.118	156
883.412	148
883.705	150
883.998	152
884.291	156
884.585	156
884.878	164
>>>>>>>>>> END of Data <<<<<<<<<<