Date	2021年06月15日火曜日 04時47分01秒
Spectrometers	USB2+H05879
ダーク	使用
リファレンス	使用
積分時間[msec]	10
平均回数	280
ｽﾑｰｼﾞﾝｸﾞ	10
Electrical Dark	USE
ピクセル数	2048
計測モード	吸光度
保存開始波長[nm]	190.664
保存終了波長[nm]	884.878
保存ﾋﾟｯﾁ波長[nm]	全波長

>>>>>>>>>> Data Start <<<<<<<<<<<<
190.664	0.000000
191.040	0.000000
191.415	0.000000
191.791	-2.660455
192.166	-0.429015
192.542	-0.933391
192.917	0.000000
193.293	-0.665692
193.668	-0.452766
194.044	-1.009721
194.419	0.000000
194.794	-1.402393
195.170	-1.335564
195.545	-1.260828
195.920	-1.118398
196.296	-1.001334
196.671	-0.835110
197.046	-0.672344
197.421	-0.606231
197.796	-0.604528
198.171	-0.562201
198.546	-0.519400
198.922	-0.471372
199.297	-0.442381
199.672	-0.420126
200.047	-0.401769
200.422	-0.371292
200.796	-0.362631
201.171	-0.341114
201.546	-0.340589
201.921	-0.325187
202.296	-0.306612
202.671	-0.283329
203.045	-0.254456
203.420	-0.236764
203.795	-0.222395
204.170	-0.215821
204.544	-0.211509
204.919	-0.217998
205.294	-0.214383
205.668	-0.194974
206.043	-0.190053
206.417	-0.192088
206.792	-0.181503
207.166	-0.182261
207.541	-0.175399
207.915	-0.179297
208.289	-0.169682
208.664	-0.168071
209.038	-0.161365
209.412	-0.148400
209.787	-0.136262
210.161	-0.124883
210.535	-0.122138
210.909	-0.114045
211.284	-0.107234
211.658	-0.113523
212.032	-0.113584
212.406	-0.118905
212.780	-0.117338
213.154	-0.123772
213.528	-0.118770
213.902	-0.110305
214.276	-0.092576
214.650	-0.095930
215.024	-0.092976
215.398	-0.096080
215.772	-0.083834
216.145	-0.079025
216.519	-0.069646
216.893	-0.070233
217.267	-0.072148
217.640	-0.082201
218.014	-0.078307
218.388	-0.069491
218.761	-0.076651
219.135	-0.071901
219.508	-0.080121
219.882	-0.089293
220.256	-0.082011
220.629	-0.072894
221.003	-0.072060
221.376	-0.080931
221.749	-0.088551
222.123	-0.103676
222.496	-0.100379
222.869	-0.094287
223.243	-0.090792
223.616	-0.091269
223.989	-0.100433
224.362	-0.092929
224.736	-0.093221
225.109	-0.093106
225.482	-0.083053
225.855	-0.085869
226.228	-0.089813
226.601	-0.084244
226.974	-0.084758
227.347	-0.069377
227.720	-0.066815
228.093	-0.075999
228.466	-0.082615
228.839	-0.078924
229.212	-0.078083
229.585	-0.083048
229.957	-0.078321
230.330	-0.079988
230.703	-0.074716
231.076	-0.075371
231.448	-0.078747
231.821	-0.069168
232.194	-0.072338
232.566	-0.080510
232.939	-0.082465
233.311	-0.092119
233.684	-0.089243
234.056	-0.089266
234.429	-0.083879
234.801	-0.075344
235.174	-0.075412
235.546	-0.070335
235.918	-0.070631
236.291	-0.071223
236.663	-0.066196
237.035	-0.067763
237.408	-0.058309
237.780	-0.049029
238.152	-0.048225
238.524	-0.054683
238.896	-0.046941
239.268	-0.039304
239.641	-0.045114
240.013	-0.040512
240.385	-0.032735
240.757	-0.027957
241.129	-0.023394
241.500	-0.025657
241.872	-0.024038
242.244	-0.026124
242.616	-0.034790
242.988	-0.037741
243.360	-0.032121
243.731	-0.023620
244.103	-0.019112
244.475	-0.021897
244.847	-0.011851
245.218	-0.006593
245.590	-0.002060
245.961	-0.002267
246.333	-0.001603
246.705	-0.005478
247.076	-0.009311
247.448	-0.001914
247.819	-0.002723
248.190	0.004676
248.562	-0.003139
248.933	0.000648
249.305	0.006610
249.676	0.011418
250.047	0.008082
250.418	0.007487
250.790	0.010835
251.161	0.011553
251.532	0.007401
251.903	0.007284
252.274	0.016528
252.645	0.020888
253.016	0.014161
253.387	0.003413
253.758	-0.000975
254.129	0.001117
254.500	0.003784
254.871	0.002805
255.242	-0.000153
255.613	-0.004572
255.984	-0.005012
256.355	0.002143
256.725	0.002684
257.096	0.003624
257.467	0.002291
257.838	0.006371
258.208	0.008317
258.579	0.005557
258.949	0.001644
259.320	0.008950
259.690	0.009480
260.061	0.008670
260.431	0.013458
260.802	0.019772
261.172	0.027047
261.543	0.038593
261.913	0.039604
262.283	0.039752
262.654	0.038305
263.024	0.037432
263.394	0.047701
263.764	0.048362
264.135	0.045250
264.505	0.043170
264.875	0.036924
265.245	0.035324
265.615	0.030226
265.985	0.032494
266.355	0.039108
266.725	0.037426
267.095	0.035837
267.465	0.036544
267.835	0.028337
268.205	0.017559
268.575	0.017273
268.944	0.018668
269.314	0.014233
269.684	0.013732
270.054	0.006223
270.423	0.012646
270.793	0.012311
271.163	0.003837
271.532	0.000821
271.902	0.006942
272.271	0.019254
272.641	0.027769
273.010	0.023847
273.380	0.024046
273.749	0.025189
274.119	0.027378
274.488	0.038662
274.857	0.040826
275.227	0.043233
275.596	0.050422
275.965	0.055490
276.335	0.052212
276.704	0.051586
277.073	0.047724
277.442	0.050358
277.811	0.056827
278.180	0.057250
278.549	0.061216
278.918	0.062990
279.287	0.061555
279.656	0.058721
280.025	0.048787
280.394	0.041949
280.763	0.048924
281.132	0.057010
281.501	0.059832
281.869	0.052054
282.238	0.045491
282.607	0.041924
282.976	0.040795
283.344	0.037321
283.713	0.029256
284.081	0.032268
284.450	0.037753
284.819	0.047345
285.187	0.055151
285.556	0.055759
285.924	0.054042
286.292	0.047600
286.661	0.048021
287.029	0.047456
287.398	0.049591
287.766	0.046204
288.134	0.050367
288.502	0.049597
288.871	0.046770
289.239	0.042731
289.607	0.042969
289.975	0.046785
290.343	0.053741
290.711	0.053990
291.079	0.051924
291.447	0.056244
291.815	0.049718
292.183	0.047748
292.551	0.046061
292.919	0.042827
293.287	0.045523
293.655	0.050719
294.022	0.055886
294.390	0.064530
294.758	0.073440
295.126	0.075944
295.493	0.083228
295.861	0.086375
296.229	0.085853
296.596	0.087328
296.964	0.089262
297.331	0.099855
297.699	0.102368
298.066	0.100493
298.434	0.106290
298.801	0.112526
299.168	0.118641
299.536	0.129511
299.903	0.133156
300.270	0.136730
300.638	0.144768
301.005	0.151020
301.372	0.150817
301.739	0.159031
302.106	0.154945
302.473	0.159655
302.840	0.170927
303.207	0.191552
303.574	0.207081
303.941	0.223779
304.308	0.237155
304.675	0.251450
305.042	0.261550
305.409	0.285128
305.776	0.304686
306.143	0.318185
306.509	0.341864
306.876	0.367659
307.243	0.387812
307.610	0.412865
307.976	0.434162
308.343	0.459486
308.709	0.490395
309.076	0.522805
309.442	0.550243
309.809	0.578703
310.175	0.612058
310.542	0.638453
310.908	0.658543
311.275	0.684161
311.641	0.716113
312.007	0.748437
312.373	0.781836
312.740	0.814297
313.106	0.840806
313.472	0.877238
313.838	0.912721
314.204	0.937109
314.570	0.951912
314.936	0.977077
315.302	1.000103
315.668	1.026808
316.034	1.058296
316.400	1.090907
316.766	1.116912
317.132	1.146843
317.498	1.177195
317.864	1.194592
318.230	1.215632
318.595	1.238298
318.961	1.261912
319.327	1.278971
319.692	1.293975
320.058	1.305977
320.424	1.320939
320.789	1.339281
321.155	1.350742
321.520	1.368764
321.886	1.391880
322.251	1.417107
322.616	1.438591
322.982	1.457716
323.347	1.474353
323.712	1.488713
324.078	1.494663
324.443	1.504092
324.808	1.512406
325.173	1.527442
325.539	1.542275
325.904	1.553024
326.269	1.563322
326.634	1.573618
326.999	1.585899
327.364	1.596849
327.729	1.609726
328.094	1.620771
328.459	1.625462
328.823	1.636098
329.188	1.644091
329.553	1.645144
329.918	1.655558
330.283	1.663062
330.647	1.671723
331.012	1.677840
331.377	1.679254
331.741	1.684189
332.106	1.693243
332.470	1.700286
332.835	1.700882
333.199	1.705435
333.564	1.712807
333.928	1.716002
334.293	1.721482
334.657	1.723460
335.021	1.729035
335.386	1.731448
335.750	1.731978
336.114	1.735068
336.478	1.738372
336.843	1.740637
337.207	1.746316
337.571	1.749869
337.935	1.754384
338.299	1.754646
338.663	1.756789
339.027	1.762873
339.391	1.766453
339.755	1.766528
340.119	1.767574
340.483	1.767536
340.846	1.769763
341.210	1.770863
341.574	1.773171
341.938	1.771999
342.301	1.775650
342.665	1.776755
343.029	1.781829
343.392	1.787424
343.756	1.790257
344.119	1.792420
344.483	1.796459
344.846	1.798371
345.210	1.800840
345.573	1.800405
345.937	1.800612
346.300	1.803539
346.663	1.803148
347.027	1.805506
347.390	1.807068
347.753	1.808324
348.116	1.812057
348.479	1.815807
348.843	1.816561
349.206	1.818719
349.569	1.819231
349.932	1.819912
350.295	1.823387
350.658	1.821714
351.021	1.823551
351.383	1.825112
351.746	1.824837
352.109	1.825016
352.472	1.824370
352.835	1.823751
353.197	1.824590
353.560	1.829360
353.923	1.827921
354.285	1.829633
354.648	1.830795
355.011	1.832453
355.373	1.833011
355.736	1.833138
356.098	1.831205
356.461	1.833652
356.823	1.834943
357.185	1.837761
357.548	1.840176
357.910	1.839264
358.272	1.839874
358.635	1.838297
358.997	1.839035
359.359	1.843241
359.721	1.843587
360.083	1.847977
360.445	1.850512
360.807	1.850195
361.169	1.848620
361.531	1.851098
361.893	1.850519
362.255	1.850092
362.617	1.853079
362.979	1.856328
363.341	1.858443
363.703	1.859997
364.064	1.860613
364.426	1.861746
364.788	1.862609
365.149	1.864067
365.511	1.866202
365.873	1.869095
366.234	1.871987
366.596	1.874630
366.957	1.873823
367.319	1.874678
367.680	1.874366
368.042	1.872612
368.403	1.876176
368.764	1.879323
369.126	1.878934
369.487	1.881957
369.848	1.883951
370.209	1.885480
370.570	1.885419
370.931	1.887203
371.293	1.888679
371.654	1.890197
372.015	1.893174
372.376	1.896046
372.737	1.896740
373.098	1.898454
373.458	1.899675
373.819	1.902212
374.180	1.903326
374.541	1.903900
374.902	1.906234
375.263	1.907514
375.623	1.908484
375.984	1.912298
376.345	1.912639
376.705	1.916710
377.066	1.918833
377.426	1.920178
377.787	1.918805
378.147	1.921965
378.508	1.920243
378.868	1.920711
379.228	1.919683
379.589	1.916470
379.949	1.918180
380.309	1.919044
380.670	1.919480
381.030	1.918605
381.390	1.918622
381.750	1.917491
382.110	1.917854
382.470	1.919169
382.830	1.919228
383.190	1.922147
383.550	1.919462
383.910	1.920821
384.270	1.923086
384.630	1.923770
384.990	1.924325
385.350	1.926069
385.709	1.924224
386.069	1.927691
386.429	1.928751
386.788	1.932398
387.148	1.936936
387.508	1.936692
387.867	1.936138
388.227	1.935670
388.586	1.937652
388.946	1.939303
389.305	1.940511
389.665	1.942140
390.024	1.941910
390.383	1.944218
390.743	1.945041
391.102	1.946315
391.461	1.946892
391.820	1.945008
392.179	1.943555
392.539	1.944414
392.898	1.945027
393.257	1.947504
393.616	1.948612
393.975	1.948387
394.334	1.948254
394.693	1.948167
395.051	1.949301
395.410	1.950975
395.769	1.953741
396.128	1.955887
396.487	1.955242
396.845	1.955195
397.204	1.956287
397.563	1.955911
397.921	1.955424
398.280	1.953373
398.638	1.951821
398.997	1.950657
399.355	1.949112
399.714	1.949637
400.072	1.947260
400.431	1.944821
400.789	1.942531
401.147	1.941195
401.506	1.939759
401.864	1.938164
402.222	1.936899
402.580	1.932810
402.938	1.931761
403.297	1.928013
403.655	1.925040
404.013	1.923496
404.371	1.922780
404.729	1.920393
405.087	1.917996
405.444	1.916247
405.802	1.915290
406.160	1.915283
406.518	1.912070
406.876	1.910221
407.233	1.908462
407.591	1.909098
407.949	1.910192
408.306	1.907844
408.664	1.905846
409.022	1.906138
409.379	1.904878
409.737	1.902607
410.094	1.900446
410.451	1.898508
410.809	1.897316
411.166	1.895454
411.523	1.893898
411.881	1.892398
412.238	1.889821
412.595	1.887573
412.952	1.886477
413.310	1.885086
413.667	1.882955
414.024	1.884015
414.381	1.883467
414.738	1.879873
415.095	1.877141
415.452	1.873958
415.809	1.872893
416.165	1.871477
416.522	1.868059
416.879	1.865228
417.236	1.862814
417.593	1.861585
417.949	1.857780
418.306	1.855820
418.663	1.855831
419.019	1.853368
419.376	1.850401
419.732	1.847278
420.089	1.846635
420.445	1.843663
420.802	1.840428
421.158	1.836372
421.514	1.833000
421.871	1.831180
422.227	1.827895
422.583	1.824866
422.939	1.821220
423.295	1.819414
423.652	1.816239
424.008	1.812548
424.364	1.809572
424.720	1.806867
425.076	1.804438
425.432	1.802144
425.788	1.798626
426.143	1.793556
426.499	1.790676
426.855	1.787099
427.211	1.784519
427.567	1.780859
427.922	1.777715
428.278	1.772196
428.634	1.769894
428.989	1.766105
429.345	1.761469
429.700	1.758803
430.056	1.756349
430.411	1.753369
430.767	1.748957
431.122	1.744670
431.478	1.741461
431.833	1.737523
432.188	1.732333
432.543	1.728565
432.899	1.723516
433.254	1.719050
433.609	1.714559
433.964	1.709122
434.319	1.703983
434.674	1.698172
435.029	1.692027
435.384	1.686406
435.739	1.682650
436.094	1.678218
436.449	1.674082
436.804	1.669504
437.158	1.664532
437.513	1.659173
437.868	1.654527
438.223	1.649602
438.577	1.643843
438.932	1.639351
439.287	1.634696
439.641	1.630161
439.996	1.624959
440.350	1.620590
440.704	1.616136
441.059	1.611503
441.413	1.606006
441.768	1.600743
442.122	1.596710
442.476	1.592039
442.830	1.587339
443.185	1.583201
443.539	1.578063
443.893	1.572800
444.247	1.567681
444.601	1.563282
444.955	1.557496
445.309	1.551762
445.663	1.546421
446.017	1.541882
446.371	1.536342
446.724	1.530354
447.078	1.524969
447.432	1.519523
447.786	1.513657
448.139	1.507288
448.493	1.501414
448.847	1.496430
449.200	1.491092
449.554	1.485760
449.907	1.480719
450.261	1.474854
450.614	1.468717
450.968	1.463134
451.321	1.457269
451.674	1.451291
452.027	1.445036
452.381	1.439528
452.734	1.433979
453.087	1.428119
453.440	1.421990
453.793	1.416306
454.146	1.410691
454.499	1.405266
454.852	1.399245
455.205	1.394117
455.558	1.389257
455.911	1.384085
456.264	1.378884
456.617	1.374124
456.970	1.368550
457.322	1.364068
457.675	1.359505
458.028	1.354916
458.380	1.350433
458.733	1.345723
459.086	1.341198
459.438	1.336740
459.791	1.332411
460.143	1.328118
460.496	1.323653
460.848	1.319432
461.200	1.314584
461.553	1.310051
461.905	1.305934
462.257	1.301857
462.609	1.297185
462.961	1.292806
463.314	1.288491
463.666	1.284135
464.018	1.279600
464.370	1.275618
464.722	1.270979
465.074	1.266728
465.426	1.263138
465.777	1.259149
466.129	1.255606
466.481	1.251963
466.833	1.248413
467.184	1.244946
467.536	1.240935
467.888	1.237191
468.239	1.232811
468.591	1.228726
468.943	1.224464
469.294	1.219879
469.646	1.215421
469.997	1.210976
470.348	1.206749
470.700	1.202793
471.051	1.199081
471.402	1.195189
471.754	1.191491
472.105	1.187869
472.456	1.184499
472.807	1.180897
473.158	1.177741
473.509	1.174596
473.860	1.171574
474.211	1.168401
474.562	1.165288
474.913	1.162037
475.264	1.158817
475.615	1.155929
475.966	1.152991
476.316	1.149830
476.667	1.146655
477.018	1.143685
477.368	1.140602
477.719	1.137452
478.070	1.134295
478.420	1.131262
478.771	1.128476
479.121	1.125633
479.472	1.122792
479.822	1.119786
480.172	1.116777
480.523	1.113717
480.873	1.110320
481.223	1.106532
481.573	1.102939
481.924	1.099123
482.274	1.095771
482.624	1.092732
482.974	1.090056
483.324	1.087674
483.674	1.085697
484.024	1.083714
484.374	1.081763
484.724	1.079950
485.073	1.078021
485.423	1.076226
485.773	1.074316
486.123	1.072426
486.472	1.070385
486.822	1.068499
487.172	1.066646
487.521	1.064726
487.871	1.062777
488.220	1.060811
488.570	1.058682
488.919	1.056055
489.268	1.053022
489.618	1.049634
489.967	1.045671
490.316	1.041192
490.666	1.036623
491.015	1.032228
491.364	1.028221
491.713	1.024424
492.062	1.020923
492.411	1.017836
492.760	1.014666
493.109	1.011511
493.458	1.008460
493.807	1.005539
494.156	1.002440
494.505	0.999389
494.853	0.996427
495.202	0.993248
495.551	0.990235
495.900	0.987240
496.248	0.984211
496.597	0.981263
496.945	0.978199
497.294	0.975268
497.642	0.972355
497.991	0.969278
498.339	0.966172
498.688	0.963365
499.036	0.960760
499.384	0.958082
499.732	0.955131
500.081	0.952399
500.429	0.949528
500.777	0.946683
501.125	0.943909
501.473	0.941185
501.821	0.938480
502.169	0.935858
502.517	0.933390
502.865	0.930813
503.213	0.928141
503.561	0.925501
503.908	0.923020
504.256	0.920466
504.604	0.917853
504.952	0.915248
505.299	0.912773
505.647	0.910403
505.994	0.907853
506.342	0.905087
506.689	0.902457
507.037	0.899898
507.384	0.897196
507.732	0.894687
508.079	0.892172
508.426	0.889787
508.774	0.887342
509.121	0.884889
509.468	0.882373
509.815	0.879889
510.162	0.877491
510.509	0.875062
510.856	0.872700
511.203	0.870376
511.550	0.868127
511.897	0.865892
512.244	0.863741
512.591	0.861409
512.938	0.859077
513.284	0.856580
513.631	0.854346
513.978	0.852034
514.324	0.849814
514.671	0.847549
515.018	0.845308
515.364	0.842990
515.711	0.840790
516.057	0.838558
516.403	0.836303
516.750	0.834202
517.096	0.832023
517.443	0.829785
517.789	0.827806
518.135	0.825664
518.481	0.823456
518.827	0.821245
519.173	0.819250
519.519	0.817055
519.865	0.814856
520.211	0.812670
520.557	0.810527
520.903	0.808258
521.249	0.806106
521.595	0.803947
521.941	0.801717
522.287	0.799420
522.632	0.797269
522.978	0.794914
523.324	0.792603
523.669	0.790428
524.015	0.787980
524.360	0.785558
524.706	0.783381
525.051	0.781035
525.397	0.778760
525.742	0.776585
526.087	0.774469
526.433	0.772057
526.778	0.769955
527.123	0.767822
527.468	0.765431
527.813	0.763451
528.158	0.761325
528.504	0.759009
528.849	0.756633
529.193	0.754381
529.538	0.752070
529.883	0.749493
530.228	0.746978
530.573	0.744542
530.918	0.742057
531.263	0.739806
531.607	0.737505
531.952	0.735130
532.296	0.732773
532.641	0.730490
532.986	0.728043
533.330	0.725474
533.675	0.723111
534.019	0.720503
534.363	0.717956
534.708	0.715524
535.052	0.712814
535.396	0.710387
535.741	0.707993
536.085	0.705510
536.429	0.702870
536.773	0.700282
537.117	0.697578
537.461	0.694773
537.805	0.691937
538.149	0.689013
538.493	0.686048
538.837	0.683136
539.181	0.680004
539.524	0.676981
539.868	0.674039
540.212	0.671049
540.556	0.668162
540.899	0.665201
541.243	0.662312
541.586	0.659429
541.930	0.656552
542.273	0.653721
542.617	0.650624
542.960	0.647435
543.304	0.644190
543.647	0.640905
543.990	0.637496
544.333	0.634291
544.677	0.631105
545.020	0.627836
545.363	0.624612
545.706	0.621379
546.049	0.618191
546.392	0.615112
546.735	0.611957
547.078	0.608562
547.421	0.605197
547.764	0.601752
548.106	0.598225
548.449	0.594578
548.792	0.590922
549.135	0.587282
549.477	0.583645
549.820	0.580143
550.162	0.576675
550.505	0.573254
550.847	0.569775
551.190	0.566108
551.532	0.562339
551.875	0.558386
552.217	0.554321
552.559	0.550329
552.901	0.546340
553.244	0.542477
553.586	0.538700
553.928	0.535106
554.270	0.531655
554.612	0.528138
554.954	0.524669
555.296	0.521114
555.638	0.517508
555.980	0.513677
556.322	0.509729
556.663	0.505594
557.005	0.501412
557.347	0.497341
557.689	0.493226
558.030	0.489205
558.372	0.485260
558.713	0.481335
559.055	0.477476
559.396	0.473647
559.738	0.469742
560.079	0.465827
560.421	0.461966
560.762	0.458230
561.103	0.454373
561.444	0.450651
561.786	0.447010
562.127	0.443459
562.468	0.439791
562.809	0.436116
563.150	0.432364
563.491	0.428461
563.832	0.424522
564.173	0.420423
564.514	0.416187
564.855	0.411901
565.195	0.407522
565.536	0.403185
565.877	0.398925
566.218	0.394714
566.558	0.390696
566.899	0.386774
567.239	0.383138
567.580	0.379690
567.920	0.376480
568.261	0.373560
568.601	0.370780
568.941	0.368117
569.282	0.365573
569.622	0.363079
569.962	0.360601
570.302	0.358176
570.643	0.355858
570.983	0.353642
571.323	0.351543
571.663	0.349479
572.003	0.347424
572.343	0.345374
572.683	0.343204
573.022	0.340897
573.362	0.338576
573.702	0.336209
574.042	0.333920
574.381	0.331666
574.721	0.329486
575.061	0.327360
575.400	0.325385
575.740	0.323416
576.079	0.321524
576.419	0.319486
576.758	0.317415
577.097	0.315260
577.437	0.313035
577.776	0.310782
578.115	0.308544
578.454	0.306421
578.794	0.304503
579.133	0.302803
579.472	0.301233
579.811	0.299771
580.150	0.298349
580.489	0.296859
580.828	0.295285
581.167	0.293667
581.505	0.292036
581.844	0.290424
582.183	0.288817
582.522	0.287220
582.860	0.285700
583.199	0.284212
583.538	0.282852
583.876	0.281501
584.215	0.280180
584.553	0.278835
584.891	0.277495
585.230	0.276120
585.568	0.274695
585.906	0.273204
586.245	0.271695
586.583	0.270256
586.921	0.268985
587.259	0.267839
587.597	0.266747
587.935	0.265620
588.273	0.264391
588.611	0.263012
588.949	0.261525
589.287	0.259999
589.625	0.258481
589.963	0.257043
590.300	0.255670
590.638	0.254386
590.976	0.253146
591.313	0.251839
591.651	0.250542
591.989	0.249238
592.326	0.248026
592.664	0.246909
593.001	0.245857
593.338	0.244900
593.676	0.244028
594.013	0.243156
594.350	0.242309
594.687	0.241509
595.025	0.240794
595.362	0.240009
595.699	0.239182
596.036	0.238344
596.373	0.237532
596.710	0.236658
597.047	0.235737
597.384	0.234868
597.720	0.233935
598.057	0.233011
598.394	0.232137
598.731	0.231242
599.067	0.230389
599.404	0.229520
599.741	0.228634
600.077	0.227840
600.414	0.227074
600.750	0.226375
601.087	0.225711
601.423	0.225016
601.759	0.224312
602.096	0.223582
602.432	0.222913
602.768	0.222225
603.104	0.221522
603.440	0.220792
603.776	0.220118
604.112	0.219488
604.448	0.218839
604.784	0.218232
605.120	0.217622
605.456	0.217061
605.792	0.216510
606.128	0.215917
606.463	0.215354
606.799	0.214763
607.135	0.214126
607.470	0.213540
607.806	0.212934
608.142	0.212327
608.477	0.211800
608.812	0.211254
609.148	0.210708
609.483	0.210109
609.819	0.209560
610.154	0.208993
610.489	0.208418
610.824	0.207836
611.159	0.207294
611.494	0.206710
611.830	0.206223
612.165	0.205776
612.500	0.205297
612.834	0.204893
613.169	0.204479
613.504	0.203979
613.839	0.203513
614.174	0.203045
614.509	0.202527
614.843	0.202023
615.178	0.201542
615.512	0.201088
615.847	0.200655
616.182	0.200243
616.516	0.199886
616.850	0.199506
617.185	0.199152
617.519	0.198764
617.853	0.198390
618.188	0.197832
618.522	0.197314
618.856	0.196790
619.190	0.196249
619.524	0.195738
619.858	0.195196
620.192	0.194732
620.526	0.194325
620.860	0.193968
621.194	0.193547
621.528	0.193179
621.862	0.192828
622.195	0.192494
622.529	0.192022
622.863	0.191597
623.196	0.191182
623.530	0.190796
623.864	0.190372
624.197	0.190000
624.530	0.189606
624.864	0.189233
625.197	0.188978
625.531	0.188677
625.864	0.188337
626.197	0.187994
626.530	0.187660
626.863	0.187290
627.196	0.186858
627.529	0.186454
627.862	0.185972
628.195	0.185584
628.528	0.185122
628.861	0.184627
629.194	0.184202
629.527	0.183846
629.860	0.183508
630.192	0.183037
630.525	0.182594
630.858	0.182213
631.190	0.181751
631.523	0.181269
631.855	0.180694
632.188	0.180176
632.520	0.179709
632.852	0.179209
633.185	0.178721
633.517	0.178267
633.849	0.177844
634.182	0.177500
634.514	0.177217
634.846	0.177015
635.178	0.176742
635.510	0.176525
635.842	0.176271
636.174	0.175945
636.506	0.175643
636.837	0.175303
637.169	0.175071
637.501	0.174779
637.833	0.174545
638.164	0.174269
638.496	0.173966
638.828	0.173648
639.159	0.173294
639.491	0.172974
639.822	0.172611
640.154	0.172183
640.485	0.171645
640.816	0.171133
641.147	0.170650
641.479	0.170054
641.810	0.169468
642.141	0.168936
642.472	0.168441
642.803	0.167945
643.134	0.167434
643.465	0.167002
643.796	0.166555
644.127	0.166180
644.458	0.165891
644.789	0.165581
645.119	0.165339
645.450	0.165311
645.781	0.165411
646.111	0.165519
646.442	0.165531
646.773	0.165492
647.103	0.165445
647.433	0.165437
647.764	0.165373
648.094	0.165235
648.425	0.165227
648.755	0.165208
649.085	0.165142
649.415	0.165110
649.745	0.165149
650.075	0.165196
650.405	0.165155
650.735	0.163657
651.065	0.155142
651.395	0.148032
651.725	0.135391
652.055	0.096109
652.385	0.071331
652.715	0.055618
653.044	0.044768
653.374	0.036854
653.704	0.030843
654.033	0.042381
654.363	0.049234
654.692	0.053167
655.022	0.055446
655.351	0.056806
655.680	0.057589
656.010	0.057997
656.339	0.058163
656.668	0.058182
656.997	0.058130
657.326	0.058023
657.655	0.057877
657.984	0.056972
658.313	0.052749
658.642	0.046988
658.971	0.052652
659.300	0.061699
659.629	0.073740
659.958	0.090562
660.286	0.115726
660.615	0.157618
660.944	0.156153
661.272	0.154160
661.601	0.153312
661.929	0.153642
662.258	0.154754
662.586	0.156009
662.915	0.156956
663.243	0.157303
663.571	0.157413
663.899	0.157302
664.228	0.157106
664.556	0.156846
664.884	0.156698
665.212	0.156603
665.540	0.156487
665.868	0.156328
666.196	0.156226
666.524	0.156175
666.852	0.156100
667.179	0.156034
667.507	0.155889
667.835	0.155779
668.162	0.155760
668.490	0.155677
668.818	0.155732
669.145	0.155698
669.473	0.155818
669.800	0.155832
670.127	0.155946
670.455	0.155973
670.782	0.156014
671.109	0.156016
671.436	0.156089
671.764	0.156101
672.091	0.156100
672.418	0.156134
672.745	0.156166
673.072	0.156219
673.399	0.156112
673.726	0.155999
674.053	0.155994
674.379	0.155971
674.706	0.155919
675.033	0.155676
675.359	0.155538
675.686	0.155357
676.013	0.155174
676.339	0.154924
676.666	0.154799
676.992	0.154686
677.318	0.154639
677.645	0.154534
677.971	0.154466
678.297	0.154398
678.624	0.154333
678.950	0.154187
679.276	0.154021
679.602	0.153788
679.928	0.153584
680.254	0.153377
680.580	0.153229
680.906	0.153013
681.232	0.152980
681.558	0.153020
681.883	0.153078
682.209	0.153213
682.535	0.153256
682.860	0.153249
683.186	0.153327
683.511	0.153229
683.837	0.153103
684.162	0.152969
684.488	0.152824
684.813	0.152703
685.138	0.152569
685.464	0.152410
685.789	0.152312
686.114	0.152177
686.439	0.152099
686.764	0.152015
687.089	0.151998
687.414	0.152005
687.739	0.152072
688.064	0.151923
688.389	0.151807
688.714	0.151729
689.039	0.151431
689.363	0.151163
689.688	0.151026
690.013	0.150717
690.337	0.150578
690.662	0.150424
690.986	0.150343
691.311	0.150272
691.635	0.150180
691.959	0.150017
692.284	0.149830
692.608	0.149567
692.932	0.149444
693.256	0.149415
693.580	0.149290
693.904	0.149211
694.228	0.149164
694.552	0.149108
694.876	0.149103
695.200	0.148963
695.524	0.148736
695.848	0.148530
696.172	0.148310
696.495	0.147920
696.819	0.147770
697.143	0.147431
697.466	0.147159
697.790	0.146788
698.113	0.146511
698.437	0.146173
698.760	0.145999
699.083	0.145815
699.407	0.145754
699.730	0.145627
700.053	0.145457
700.376	0.145308
700.699	0.145045
701.022	0.144588
701.345	0.143973
701.668	0.143318
701.991	0.142687
702.314	0.142005
702.637	0.141446
702.960	0.140879
703.283	0.140475
703.605	0.139998
703.928	0.139824
704.251	0.139692
704.573	0.139608
704.896	0.139531
705.218	0.139358
705.540	0.139144
705.863	0.138893
706.185	0.138436
706.507	0.137963
706.830	0.137386
707.152	0.136792
707.474	0.136249
707.796	0.135743
708.118	0.135369
708.440	0.135010
708.762	0.134724
709.084	0.134525
709.406	0.134253
709.728	0.134028
710.049	0.133793
710.371	0.133529
710.693	0.133197
711.014	0.132724
711.336	0.132346
711.658	0.131984
711.979	0.131752
712.301	0.131400
712.622	0.131204
712.943	0.131004
713.265	0.130771
713.586	0.130590
713.907	0.130502
714.228	0.130476
714.549	0.130447
714.870	0.130366
715.191	0.130362
715.512	0.130330
715.833	0.130237
716.154	0.130122
716.475	0.129967
716.796	0.129702
717.117	0.129321
717.437	0.128869
717.758	0.128443
718.078	0.127960
718.399	0.127370
718.719	0.126854
719.040	0.126472
719.360	0.126110
719.681	0.125830
720.001	0.125611
720.321	0.125448
720.642	0.125105
720.962	0.124791
721.282	0.124558
721.602	0.124360
721.922	0.124130
722.242	0.123851
722.562	0.123609
722.882	0.123459
723.202	0.123368
723.521	0.123240
723.841	0.123219
724.161	0.123191
724.481	0.123168
724.800	0.123070
725.120	0.122998
725.439	0.122961
725.759	0.122857
726.078	0.122695
726.398	0.122629
726.717	0.122536
727.036	0.122496
727.355	0.122642
727.675	0.122718
727.994	0.122753
728.313	0.122794
728.632	0.122856
728.951	0.122852
729.270	0.122805
729.589	0.122618
729.908	0.122290
730.226	0.122074
730.545	0.121828
730.864	0.121585
731.182	0.121395
731.501	0.121254
731.820	0.121135
732.138	0.121031
732.457	0.120837
732.775	0.120658
733.093	0.120551
733.412	0.120444
733.730	0.120290
734.048	0.119983
734.367	0.119631
734.685	0.119291
735.003	0.118914
735.321	0.118539
735.639	0.118173
735.957	0.117891
736.275	0.117649
736.593	0.117559
736.910	0.117389
737.228	0.117244
737.546	0.117053
737.863	0.116924
738.181	0.116602
738.499	0.116285
738.816	0.115962
739.134	0.115715
739.451	0.115552
739.768	0.115260
740.086	0.114877
740.403	0.114534
740.720	0.114269
741.038	0.113991
741.355	0.113676
741.672	0.113365
741.989	0.112983
742.306	0.112587
742.623	0.112129
742.940	0.111672
743.257	0.111067
743.573	0.110545
743.890	0.110023
744.207	0.109563
744.523	0.109107
744.840	0.108774
745.157	0.108411
745.473	0.107970
745.790	0.107742
746.106	0.107353
746.422	0.107109
746.739	0.106998
747.055	0.106801
747.371	0.106655
747.687	0.106660
748.004	0.106594
748.320	0.106557
748.636	0.106522
748.952	0.106512
749.268	0.106599
749.584	0.106644
749.899	0.106695
750.215	0.106693
750.531	0.106675
750.847	0.106691
751.162	0.106642
751.478	0.106663
751.793	0.106621
752.109	0.106552
752.424	0.106508
752.740	0.106404
753.055	0.106382
753.370	0.106420
753.686	0.106584
754.001	0.106783
754.316	0.107054
754.631	0.107338
754.946	0.107460
755.261	0.107572
755.576	0.107709
755.891	0.107651
756.206	0.107573
756.521	0.107497
756.836	0.107486
757.150	0.107458
757.465	0.107491
757.780	0.107521
758.094	0.107565
758.409	0.107689
758.723	0.107828
759.038	0.107829
759.352	0.107872
759.667	0.107829
759.981	0.107737
760.295	0.107520
760.609	0.107306
760.923	0.107039
761.238	0.106750
761.552	0.106590
761.866	0.106421
762.180	0.106321
762.493	0.106316
762.807	0.106311
763.121	0.106309
763.435	0.106215
763.749	0.106040
764.062	0.105842
764.376	0.105604
764.689	0.105344
765.003	0.105072
765.316	0.104880
765.630	0.104868
765.943	0.104794
766.257	0.104723
766.570	0.104621
766.883	0.104525
767.196	0.104328
767.509	0.104010
767.822	0.103742
768.135	0.103490
768.448	0.103233
768.761	0.102911
769.074	0.102613
769.387	0.102367
769.700	0.102086
770.013	0.101886
770.325	0.101790
770.638	0.101668
770.950	0.101543
771.263	0.101467
771.575	0.101309
771.888	0.101014
772.200	0.100655
772.513	0.100290
772.825	0.099888
773.137	0.099518
773.449	0.099247
773.761	0.098994
774.074	0.098912
774.386	0.098774
774.698	0.098464
775.010	0.098198
775.321	0.097991
775.633	0.097706
775.945	0.097554
776.257	0.097578
776.568	0.097564
776.880	0.097526
777.192	0.097477
777.503	0.097474
777.815	0.097437
778.126	0.097550
778.438	0.097772
778.749	0.098009
779.060	0.098247
779.372	0.098517
779.683	0.098729
779.994	0.098829
780.305	0.098938
780.616	0.099067
780.927	0.099207
781.238	0.099279
781.549	0.099418
781.860	0.099487
782.171	0.099638
782.481	0.099768
782.792	0.099766
783.103	0.099807
783.413	0.099891
783.724	0.099868
784.034	0.099935
784.345	0.099916
784.655	0.099902
784.966	0.099819
785.276	0.099760
785.586	0.099706
785.896	0.099569
786.207	0.099536
786.517	0.099600
786.827	0.099707
787.137	0.099702
787.447	0.099646
787.757	0.099799
788.066	0.099920
788.376	0.099983
788.686	0.099970
788.996	0.099989
789.305	0.100021
789.615	0.100035
789.925	0.099995
790.234	0.100115
790.544	0.100200
790.853	0.100312
791.162	0.100468
791.472	0.100744
791.781	0.100947
792.090	0.101203
792.399	0.101366
792.708	0.101344
793.017	0.101309
793.326	0.101175
793.635	0.101079
793.944	0.101011
794.253	0.100801
794.562	0.100618
794.871	0.100548
795.179	0.100487
795.488	0.100467
795.797	0.100430
796.105	0.100413
796.414	0.100442
796.722	0.100462
797.031	0.100382
797.339	0.100275
797.647	0.100037
797.956	0.099692
798.264	0.099284
798.572	0.098875
798.880	0.098618
799.188	0.098417
799.496	0.098203
799.804	0.098185
800.112	0.098113
800.420	0.097993
800.728	0.098058
801.035	0.097961
801.343	0.097833
801.651	0.097601
801.958	0.097251
802.266	0.097164
802.573	0.097282
802.881	0.097467
803.188	0.097613
803.496	0.097813
803.803	0.098184
804.110	0.098500
804.417	0.098619
804.724	0.098510
805.032	0.098440
805.339	0.098433
805.646	0.098462
805.953	0.098424
806.259	0.098403
806.566	0.098383
806.873	0.098565
807.180	0.098570
807.486	0.098674
807.793	0.098775
808.100	0.098964
808.406	0.099164
808.713	0.099294
809.019	0.099016
809.326	0.098765
809.632	0.098533
809.938	0.098110
810.244	0.097549
810.551	0.097040
810.857	0.096889
811.163	0.096915
811.469	0.096848
811.775	0.096710
812.081	0.096680
812.387	0.096666
812.692	0.096584
812.998	0.096486
813.304	0.096337
813.610	0.096491
813.915	0.096563
814.221	0.096492
814.526	0.096627
814.832	0.096667
815.137	0.096597
815.443	0.096664
815.748	0.096597
816.053	0.096435
816.358	0.096327
816.664	0.096509
816.969	0.096607
817.274	0.096629
817.579	0.096624
817.884	0.096620
818.189	0.096634
818.493	0.096650
818.798	0.096661
819.103	0.096483
819.408	0.096416
819.712	0.096449
820.017	0.096209
820.321	0.096100
820.626	0.096087
820.930	0.095769
821.235	0.095546
821.539	0.095489
821.843	0.095406
822.148	0.095146
822.452	0.095190
822.756	0.095604
823.060	0.095545
823.364	0.095914
823.668	0.095816
823.972	0.096044
824.276	0.096272
824.580	0.096361
824.883	0.096596
825.187	0.096795
825.491	0.097082
825.795	0.097317
826.098	0.097232
826.402	0.097160
826.705	0.097080
827.008	0.097110
827.312	0.097192
827.615	0.097062
827.918	0.096759
828.222	0.096571
828.525	0.096793
828.828	0.096858
829.131	0.096654
829.434	0.096598
829.737	0.095700
830.040	0.095291
830.343	0.094739
830.645	0.094370
830.948	0.094139
831.251	0.093813
831.553	0.093612
831.856	0.093464
832.159	0.093332
832.461	0.093201
832.764	0.093138
833.066	0.093028
833.368	0.092882
833.671	0.092771
833.973	0.092793
834.275	0.092793
834.577	0.092832
834.879	0.092630
835.181	0.092120
835.483	0.091674
835.785	0.091152
836.087	0.091313
836.389	0.091171
836.690	0.090844
836.992	0.090065
837.294	0.089269
837.595	0.088254
837.897	0.087068
838.198	0.086099
838.500	0.085053
838.801	0.084075
839.103	0.083588
839.404	0.082761
839.705	0.081851
840.006	0.081418
840.307	0.080988
840.608	0.080521
840.910	0.080271
841.210	0.080431
841.511	0.080728
841.812	0.080970
842.113	0.081323
842.414	0.080794
842.715	0.080071
843.015	0.078741
843.316	0.078448
843.616	0.077853
843.917	0.077673
844.217	0.077854
844.518	0.077477
844.818	0.077261
845.118	0.077497
845.419	0.077444
845.719	0.077404
846.019	0.076972
846.319	0.077038
846.619	0.076686
846.919	0.076897
847.219	0.077438
847.519	0.076697
847.819	0.076474
848.118	0.075529
848.418	0.074761
848.718	0.074500
849.017	0.074936
849.317	0.075867
849.616	0.076328
849.916	0.077819
850.215	0.078818
850.515	0.079354
850.814	0.080250
851.113	0.081036
851.412	0.081725
851.712	0.081865
852.011	0.082265
852.310	0.082886
852.609	0.082935
852.908	0.083163
853.206	0.083268
853.505	0.083354
853.804	0.083735
854.103	0.083819
854.401	0.084171
854.700	0.084463
854.999	0.084462
855.297	0.084288
855.595	0.084578
855.894	0.084786
856.192	0.084428
856.491	0.084052
856.789	0.083729
857.087	0.083180
857.385	0.082437
857.683	0.081953
857.981	0.081648
858.279	0.081126
858.577	0.080297
858.875	0.079627
859.173	0.078836
859.471	0.078432
859.768	0.077924
860.066	0.077523
860.363	0.076798
860.661	0.076257
860.959	0.075898
861.256	0.076162
861.553	0.076732
861.851	0.075790
862.148	0.075102
862.445	0.074846
862.742	0.074512
863.039	0.073934
863.337	0.073699
863.634	0.073223
863.931	0.072508
864.227	0.072399
864.524	0.072080
864.821	0.072126
865.118	0.071978
865.415	0.071990
865.711	0.071518
866.008	0.070231
866.304	0.069942
866.601	0.070185
866.897	0.069203
867.194	0.069046
867.490	0.068626
867.786	0.067856
868.082	0.068654
868.379	0.068074
868.675	0.067280
868.971	0.066757
869.267	0.067310
869.563	0.067155
869.859	0.067054
870.154	0.066807
870.450	0.066131
870.746	0.065111
871.042	0.065744
871.337	0.065751
871.633	0.065515
871.928	0.065600
872.224	0.065478
872.519	0.064035
872.815	0.063627
873.110	0.064229
873.405	0.063565
873.700	0.063493
873.995	0.063297
874.291	0.062917
874.586	0.063243
874.881	0.064108
875.175	0.064187
875.470	0.064101
875.765	0.064776
876.060	0.065321
876.355	0.065662
876.649	0.065946
876.944	0.066640
877.238	0.066160
877.533	0.066173
877.827	0.066767
878.122	0.066935
878.416	0.068129
878.710	0.069473
879.005	0.069507
879.299	0.069237
879.593	0.069386
879.887	0.068971
880.181	0.068522
880.475	0.068254
880.769	0.068002
881.063	0.067670
881.356	0.067529
881.650	0.067021
881.944	0.066379
882.238	0.056634
882.531	0.063824
882.825	0.056810
883.118	0.049497
883.412	0.061204
883.705	0.056465
883.998	0.065823
884.291	0.057329
884.585	0.058311
884.878	0.062695
>>>>>>>>>> END of Data <<<<<<<<<<
>>>>>>>>>> Raw Data Start <<<<<<<<
190.664	-407
191.040	4
191.415	4
191.791	9
192.166	6
192.542	10
192.917	8
193.293	13
193.668	6
194.044	8
194.419	-10
194.794	10
195.170	10
195.545	11
195.920	11
196.296	12
196.671	12
197.046	12
197.421	12
197.796	13
198.171	13
198.546	14
198.922	14
199.297	14
199.672	15
200.047	15
200.422	15
200.796	15
201.171	15
201.546	16
201.921	15
202.296	15
202.671	15
203.045	15
203.420	16
203.795	16
204.170	16
204.544	15
204.919	16
205.294	16
205.668	15
206.043	15
206.417	15
206.792	15
207.166	15
207.541	15
207.915	14
208.289	15
208.664	14
209.038	14
209.412	14
209.787	15
210.161	15
210.535	14
210.909	15
211.284	14
211.658	14
212.032	14
212.406	14
212.780	14
213.154	14
213.528	14
213.902	14
214.276	14
214.650	13
215.024	14
215.398	14
215.772	14
216.145	14
216.519	13
216.893	14
217.267	13
217.640	14
218.014	14
218.388	14
218.761	14
219.135	15
219.508	15
219.882	15
220.256	15
220.629	15
221.003	15
221.376	15
221.749	16
222.123	16
222.496	16
222.869	16
223.243	16
223.616	16
223.989	16
224.362	16
224.736	16
225.109	17
225.482	16
225.855	16
226.228	16
226.601	16
226.974	16
227.347	15
227.720	16
228.093	16
228.466	16
228.839	16
229.212	15
229.585	15
229.957	15
230.330	15
230.703	15
231.076	16
231.448	16
231.821	15
232.194	15
232.566	15
232.939	15
233.311	15
233.684	15
234.056	15
234.429	15
234.801	15
235.174	15
235.546	15
235.918	15
236.291	15
236.663	16
237.035	16
237.408	16
237.780	16
238.152	16
238.524	16
238.896	16
239.268	16
239.641	16
240.013	16
240.385	16
240.757	16
241.129	16
241.500	16
241.872	16
242.244	16
242.616	17
242.988	16
243.360	17
243.731	17
244.103	16
244.475	16
244.847	16
245.218	16
245.590	16
245.961	16
246.333	16
246.705	16
247.076	16
247.448	16
247.819	16
248.190	17
248.562	17
248.933	17
249.305	17
249.676	17
250.047	17
250.418	17
250.790	17
251.161	17
251.532	17
251.903	17
252.274	16
252.645	16
253.016	16
253.387	17
253.758	17
254.129	17
254.500	17
254.871	17
255.242	18
255.613	18
255.984	17
256.355	17
256.725	17
257.096	17
257.467	17
257.838	17
258.208	17
258.579	17
258.949	17
259.320	17
259.690	17
260.061	18
260.431	18
260.802	17
261.172	17
261.543	17
261.913	17
262.283	17
262.654	17
263.024	17
263.394	16
263.764	16
264.135	17
264.505	17
264.875	17
265.245	17
265.615	17
265.985	17
266.355	17
266.725	17
267.095	18
267.465	18
267.835	18
268.205	18
268.575	18
268.944	18
269.314	18
269.684	18
270.054	18
270.423	17
270.793	18
271.163	18
271.532	18
271.902	18
272.271	17
272.641	17
273.010	17
273.380	17
273.749	17
274.119	18
274.488	17
274.857	17
275.227	17
275.596	17
275.965	17
276.335	17
276.704	17
277.073	18
277.442	18
277.811	18
278.180	18
278.549	18
278.918	18
279.287	18
279.656	18
280.025	19
280.394	19
280.763	19
281.132	19
281.501	19
281.869	19
282.238	19
282.607	19
282.976	18
283.344	19
283.713	19
284.081	19
284.450	19
284.819	18
285.187	18
285.556	18
285.924	18
286.292	18
286.661	18
287.029	18
287.398	18
287.766	18
288.134	18
288.502	18
288.871	19
289.239	19
289.607	19
289.975	19
290.343	19
290.711	19
291.079	19
291.447	19
291.815	19
292.183	19
292.551	19
292.919	20
293.287	20
293.655	19
294.022	19
294.390	19
294.758	19
295.126	18
295.493	18
295.861	18
296.229	18
296.596	18
296.964	18
297.331	17
297.699	18
298.066	18
298.434	18
298.801	18
299.168	17
299.536	17
299.903	17
300.270	17
300.638	17
301.005	17
301.372	17
301.739	17
302.106	18
302.473	18
302.840	18
303.207	18
303.574	18
303.941	18
304.308	18
304.675	18
305.042	18
305.409	18
305.776	18
306.143	18
306.509	18
306.876	18
307.243	19
307.610	19
307.976	19
308.343	19
308.709	19
309.076	19
309.442	19
309.809	19
310.175	19
310.542	19
310.908	19
311.275	19
311.641	19
312.007	19
312.373	19
312.740	19
313.106	19
313.472	19
313.838	19
314.204	19
314.570	20
314.936	20
315.302	20
315.668	20
316.034	20
316.400	20
316.766	20
317.132	19
317.498	19
317.864	19
318.230	19
318.595	19
318.961	19
319.327	20
319.692	20
320.058	20
320.424	21
320.789	21
321.155	21
321.520	22
321.886	22
322.251	21
322.616	21
322.982	22
323.347	22
323.712	22
324.078	23
324.443	23
324.808	24
325.173	24
325.539	25
325.904	25
326.269	25
326.634	26
326.999	26
327.364	26
327.729	26
328.094	27
328.459	27
328.823	27
329.188	28
329.553	29
329.918	29
330.283	29
330.647	29
331.012	30
331.377	30
331.741	31
332.106	31
332.470	31
332.835	32
333.199	32
333.564	33
333.928	33
334.293	33
334.657	34
335.021	34
335.386	35
335.750	36
336.114	36
336.478	37
336.843	37
337.207	38
337.571	38
337.935	38
338.299	39
338.663	40
339.027	40
339.391	40
339.755	41
340.119	41
340.483	42
340.846	43
341.210	43
341.574	44
341.938	44
342.301	45
342.665	45
343.029	45
343.392	45
343.756	46
344.119	46
344.483	46
344.846	47
345.210	47
345.573	48
345.937	48
346.300	49
346.663	49
347.027	49
347.390	50
347.753	50
348.116	50
348.479	50
348.843	51
349.206	51
349.569	51
349.932	52
350.295	52
350.658	53
351.021	53
351.383	53
351.746	53
352.109	54
352.472	54
352.835	55
353.197	55
353.560	55
353.923	55
354.285	56
354.648	56
355.011	56
355.373	56
355.736	57
356.098	57
356.461	57
356.823	57
357.185	57
357.548	57
357.910	58
358.272	58
358.635	59
358.997	59
359.359	59
359.721	59
360.083	59
360.445	59
360.807	59
361.169	60
361.531	59
361.893	60
362.255	60
362.617	60
362.979	60
363.341	60
363.703	60
364.064	60
364.426	61
364.788	61
365.149	61
365.511	61
365.873	61
366.234	61
366.596	60
366.957	61
367.319	61
367.680	61
368.042	61
368.403	61
368.764	61
369.126	61
369.487	61
369.848	61
370.209	60
370.570	61
370.931	60
371.293	60
371.654	60
372.015	60
372.376	60
372.737	60
373.098	59
373.458	59
373.819	59
374.180	59
374.541	59
374.902	59
375.263	59
375.623	60
375.984	59
376.345	60
376.705	59
377.066	59
377.426	59
377.787	60
378.147	59
378.508	60
378.868	60
379.228	60
379.589	61
379.949	61
380.309	61
380.670	61
381.030	62
381.390	62
381.750	62
382.110	62
382.470	62
382.830	62
383.190	62
383.550	62
383.910	62
384.270	62
384.630	62
384.990	62
385.350	62
385.709	63
386.069	63
386.429	63
386.788	62
387.148	62
387.508	62
387.867	62
388.227	63
388.586	63
388.946	63
389.305	63
389.665	63
390.024	64
390.383	64
390.743	64
391.102	64
391.461	64
391.820	64
392.179	65
392.539	65
392.898	65
393.257	65
393.616	65
393.975	65
394.334	65
394.693	66
395.051	66
395.410	67
395.769	67
396.128	66
396.487	67
396.845	67
397.204	67
397.563	67
397.921	67
398.280	67
398.638	67
398.997	68
399.355	68
399.714	68
400.072	68
400.431	69
400.789	69
401.147	70
401.506	70
401.864	70
402.222	70
402.580	71
402.938	71
403.297	71
403.655	72
404.013	72
404.371	72
404.729	72
405.087	72
405.444	73
405.802	73
406.160	73
406.518	74
406.876	74
407.233	74
407.591	74
407.949	74
408.306	74
408.664	75
409.022	74
409.379	75
409.737	75
410.094	75
410.451	76
410.809	76
411.166	77
411.523	77
411.881	77
412.238	78
412.595	78
412.952	79
413.310	79
413.667	79
414.024	79
414.381	79
414.738	80
415.095	80
415.452	81
415.809	81
416.165	81
416.522	82
416.879	83
417.236	84
417.593	84
417.949	85
418.306	86
418.663	87
419.019	88
419.376	90
419.732	91
420.089	92
420.445	93
420.802	94
421.158	96
421.514	97
421.871	98
422.227	99
422.583	100
422.939	101
423.295	101
423.652	102
424.008	103
424.364	104
424.720	105
425.076	105
425.432	106
425.788	106
426.143	108
426.499	108
426.855	109
427.211	110
427.567	111
427.922	112
428.278	114
428.634	114
428.989	115
429.345	116
429.700	117
430.056	118
430.411	119
430.767	120
431.122	122
431.478	123
431.833	124
432.188	126
432.543	127
432.899	128
433.254	129
433.609	130
433.964	131
434.319	132
434.674	133
435.029	135
435.384	136
435.739	138
436.094	139
436.449	141
436.804	143
437.158	145
437.513	148
437.868	150
438.223	153
438.577	156
438.932	159
439.287	162
439.641	165
439.996	169
440.350	172
440.704	175
441.059	178
441.413	182
441.768	185
442.122	188
442.476	192
442.830	195
443.185	198
443.539	201
443.893	205
444.247	208
444.601	210
444.955	213
445.309	215
445.663	217
446.017	219
446.371	221
446.724	223
447.078	225
447.432	226
447.786	228
448.139	230
448.493	232
448.847	233
449.200	234
449.554	235
449.907	236
450.261	237
450.614	239
450.968	240
451.321	242
451.674	244
452.027	245
452.381	247
452.734	249
453.087	251
453.440	253
453.793	255
454.146	258
454.499	261
454.852	265
455.205	269
455.558	272
455.911	276
456.264	280
456.617	284
456.970	288
457.322	291
457.675	295
458.028	298
458.380	301
458.733	304
459.086	307
459.438	310
459.791	313
460.143	317
460.496	322
460.848	326
461.200	332
461.553	338
461.905	343
462.257	347
462.609	352
462.961	357
463.314	361
463.666	365
464.018	368
464.370	372
464.722	376
465.074	380
465.426	384
465.777	387
466.129	390
466.481	393
466.833	395
467.184	396
467.536	398
467.888	399
468.239	400
468.591	400
468.943	401
469.294	403
469.646	405
469.997	408
470.348	412
470.700	416
471.051	421
471.402	427
471.754	434
472.105	441
472.456	448
472.807	457
473.158	466
473.509	475
473.860	486
474.211	496
474.562	507
474.913	519
475.264	532
475.615	544
475.966	556
476.316	568
476.667	580
477.018	592
477.368	605
477.719	618
478.070	631
478.420	643
478.771	654
479.121	666
479.472	677
479.822	689
480.172	703
480.523	718
480.873	738
481.223	771
481.573	819
481.924	879
482.274	946
482.624	1017
482.974	1088
483.324	1150
483.674	1198
484.024	1231
484.374	1255
484.724	1270
485.073	1281
485.423	1291
485.773	1301
486.123	1310
486.472	1320
486.822	1328
487.172	1336
487.521	1342
487.871	1347
488.220	1345
488.570	1330
488.919	1301
489.268	1259
489.618	1210
489.967	1157
490.316	1104
490.666	1057
491.015	1025
491.364	1007
491.713	999
492.062	999
492.411	1002
492.760	1007
493.109	1014
493.458	1020
493.807	1025
494.156	1030
494.505	1036
494.853	1041
495.202	1048
495.551	1056
495.900	1064
496.248	1072
496.597	1081
496.945	1089
497.294	1097
497.642	1106
497.991	1116
498.339	1127
498.688	1139
499.036	1149
499.384	1160
499.732	1170
500.081	1178
500.429	1186
500.777	1193
501.125	1200
501.473	1207
501.821	1215
502.169	1222
502.517	1228
502.865	1233
503.213	1237
503.561	1241
503.908	1244
504.256	1246
504.604	1248
504.952	1250
505.299	1251
505.647	1250
505.994	1248
506.342	1248
506.689	1246
507.037	1245
507.384	1246
507.732	1246
508.079	1247
508.426	1248
508.774	1249
509.121	1250
509.468	1251
509.815	1251
510.162	1251
510.509	1252
510.856	1251
511.203	1250
511.550	1250
511.897	1250
512.244	1249
512.591	1249
512.938	1248
513.284	1249
513.631	1248
513.978	1247
514.324	1246
514.671	1244
515.018	1242
515.364	1241
515.711	1240
516.057	1239
516.403	1238
516.750	1236
517.096	1234
517.443	1231
517.789	1228
518.135	1226
518.481	1224
518.827	1223
519.173	1220
519.519	1219
519.865	1217
520.211	1217
520.557	1216
520.903	1216
521.249	1216
521.595	1216
521.941	1216
522.287	1216
522.632	1216
522.978	1216
523.324	1218
523.669	1219
524.015	1222
524.360	1227
524.706	1232
525.051	1240
525.397	1248
525.742	1257
526.087	1265
526.433	1275
526.778	1283
527.123	1289
527.468	1296
527.813	1301
528.158	1307
528.504	1314
528.849	1323
529.193	1334
529.538	1347
529.883	1363
530.228	1381
530.573	1400
530.918	1420
531.263	1440
531.607	1459
531.952	1476
532.296	1491
532.641	1504
532.986	1514
533.330	1525
533.675	1536
534.019	1549
534.363	1566
534.708	1585
535.052	1607
535.396	1630
535.741	1652
536.085	1671
536.429	1690
536.773	1707
537.117	1721
537.461	1733
537.805	1745
538.149	1758
538.493	1771
538.837	1785
539.181	1802
539.524	1822
539.868	1845
540.212	1869
540.556	1895
540.899	1922
541.243	1947
541.586	1968
541.930	1986
542.273	1999
542.617	2011
542.960	2024
543.304	2040
543.647	2059
543.990	2084
544.333	2109
544.677	2136
545.020	2162
545.363	2184
545.706	2203
546.049	2218
546.392	2228
546.735	2234
547.078	2240
547.421	2246
547.764	2253
548.106	2262
548.449	2273
548.792	2289
549.135	2309
549.477	2333
549.820	2356
550.162	2377
550.505	2394
550.847	2408
551.190	2418
551.532	2428
551.875	2438
552.217	2450
552.559	2464
552.901	2482
553.244	2503
553.586	2525
553.928	2547
554.270	2567
554.612	2585
554.954	2600
555.296	2614
555.638	2627
555.980	2641
556.322	2658
556.663	2680
557.005	2708
557.347	2743
557.689	2780
558.030	2817
558.372	2851
558.713	2883
559.055	2914
559.396	2943
559.738	2974
560.079	3008
560.421	3045
560.762	3087
561.103	3134
561.444	3185
561.786	3238
562.127	3294
562.468	3354
562.809	3420
563.150	3493
563.491	3573
563.832	3659
564.173	3758
564.514	3872
564.855	4007
565.195	4172
565.536	4369
565.877	4597
566.218	4857
566.558	5150
566.899	5471
567.239	5817
567.580	6181
567.920	6556
568.261	6934
568.601	7321
568.941	7723
569.282	8136
569.622	8565
569.962	9011
570.302	9488
570.643	9979
570.983	10476
571.323	10955
571.663	11419
572.003	11860
572.343	12274
572.683	12663
573.022	13062
573.362	13479
573.702	13912
574.042	14343
574.381	14758
574.721	15153
575.061	15533
575.400	15879
575.740	16187
576.079	16460
576.419	16733
576.758	17041
577.097	17404
577.437	17800
577.776	18223
578.115	18665
578.454	19113
578.794	19525
579.133	19845
579.472	20066
579.811	20197
580.150	20242
580.489	20224
580.828	20175
581.167	20130
581.505	20101
581.844	20080
582.183	20058
582.522	20052
582.860	20055
583.199	20060
583.538	20035
583.876	19948
584.215	19777
584.553	19514
584.891	19165
585.230	18736
585.568	18261
585.906	17778
586.245	17343
586.583	16968
586.921	16656
587.259	16374
587.597	16089
587.935	15795
588.273	15493
588.611	15211
588.949	14963
589.287	14755
589.625	14592
589.963	14462
590.300	14359
590.638	14265
590.976	14158
591.313	14035
591.651	13916
591.989	13815
592.326	13732
592.664	13661
593.001	13602
593.338	13566
593.676	13548
594.013	13556
594.350	13606
594.687	13691
595.025	13785
595.362	13872
595.699	13934
596.036	13974
596.373	13982
596.710	13955
597.047	13904
597.384	13841
597.720	13771
598.057	13715
598.394	13673
598.731	13651
599.067	13649
599.404	13673
599.741	13729
600.077	13806
600.414	13894
600.750	13987
601.087	14057
601.423	14092
601.759	14095
602.096	14072
602.432	14031
602.768	13968
603.104	13883
603.440	13776
603.776	13663
604.112	13538
604.448	13414
604.784	13281
605.120	13140
605.456	13003
605.792	12859
606.128	12709
606.463	12554
606.799	12398
607.135	12258
607.470	12117
607.806	11978
608.142	11843
608.477	11711
608.812	11584
609.148	11458
609.483	11326
609.819	11190
610.154	11059
610.489	10940
610.824	10835
611.159	10747
611.494	10658
611.830	10580
612.165	10503
612.500	10418
612.834	10318
613.169	10204
613.504	10079
613.839	9940
614.174	9782
614.509	9624
614.843	9466
615.178	9316
615.512	9167
615.847	9021
616.182	8876
616.516	8729
616.850	8574
617.185	8412
617.519	8248
617.853	8072
618.188	7891
618.522	7725
618.856	7583
619.190	7459
619.524	7351
619.858	7266
620.192	7198
620.526	7137
620.860	7077
621.194	7020
621.528	6963
621.862	6906
622.195	6838
622.529	6766
622.863	6691
623.196	6616
623.530	6539
623.864	6464
624.197	6387
624.530	6312
624.864	6244
625.197	6174
625.531	6094
625.864	5998
626.197	5895
626.530	5784
626.863	5659
627.196	5523
627.529	5386
627.862	5251
628.195	5116
628.528	4984
628.861	4857
629.194	4743
629.527	4634
629.860	4526
630.192	4421
630.525	4321
630.858	4228
631.190	4141
631.523	4057
631.855	3978
632.188	3909
632.520	3845
632.852	3785
633.185	3723
633.517	3663
633.849	3609
634.182	3560
634.514	3512
634.846	3469
635.178	3432
635.510	3398
635.842	3368
636.174	3339
636.506	3309
636.837	3281
637.169	3252
637.501	3222
637.833	3189
638.164	3151
638.496	3110
638.828	3063
639.159	3010
639.491	2953
639.822	2893
640.154	2833
640.485	2775
640.816	2717
641.147	2659
641.479	2604
641.810	2550
642.141	2498
642.472	2447
642.803	2396
643.134	2348
643.465	2306
643.796	2273
644.127	2250
644.458	2237
644.789	2237
645.119	2249
645.450	2270
645.781	2293
646.111	2316
646.442	2337
646.773	2353
647.103	2366
647.433	2376
647.764	2388
648.094	2403
648.425	2422
648.755	2445
649.085	2472
649.415	2500
649.745	2530
650.075	2560
650.405	2594
650.735	2668
651.065	3203
651.395	4860
651.725	7601
652.055	11154
652.385	14803
652.715	18451
653.044	22101
653.374	25755
653.704	29415
654.033	31865
654.363	33556
654.692	34684
655.022	35422
655.351	35910
655.680	36213
656.010	36380
656.339	36456
656.668	36477
656.997	36469
657.326	36440
657.655	36358
657.984	35807
658.313	34124
658.642	31347
658.971	27749
659.300	24051
659.629	20353
659.958	16656
660.286	12960
660.615	9264
660.944	6785
661.272	5068
661.601	3916
661.929	3150
662.258	2633
662.586	2293
662.915	2085
663.243	1965
663.571	1896
663.899	1855
664.228	1829
664.556	1812
664.884	1801
665.212	1792
665.540	1785
665.868	1783
666.196	1781
666.524	1780
666.852	1781
667.179	1788
667.507	1801
667.835	1822
668.162	1848
668.490	1881
668.818	1919
669.145	1960
669.473	2000
669.800	2038
670.127	2071
670.455	2098
670.782	2121
671.109	2142
671.436	2159
671.764	2173
672.091	2185
672.418	2194
672.745	2202
673.072	2210
673.399	2220
673.726	2231
674.053	2239
674.379	2241
674.706	2240
675.033	2239
675.359	2236
675.686	2231
676.013	2229
676.339	2231
676.666	2237
676.992	2254
677.318	2276
677.645	2302
677.971	2327
678.297	2349
678.624	2370
678.950	2391
679.276	2411
679.602	2430
679.928	2449
680.254	2474
680.580	2504
680.906	2544
681.232	2592
681.558	2643
681.883	2693
682.209	2740
682.535	2783
682.860	2823
683.186	2855
683.511	2882
683.837	2899
684.162	2912
684.488	2923
684.813	2934
685.138	2944
685.464	2953
685.789	2960
686.114	2968
686.439	2978
686.764	2989
687.089	2996
687.414	2996
687.739	2986
688.064	2969
688.389	2946
688.714	2919
689.039	2890
689.363	2860
689.688	2826
690.013	2794
690.337	2764
690.662	2741
690.986	2719
691.311	2697
691.635	2675
691.959	2655
692.284	2641
692.608	2638
692.932	2643
693.256	2651
693.580	2663
693.904	2677
694.228	2694
694.552	2710
694.876	2717
695.200	2716
695.524	2704
695.848	2688
696.172	2666
696.495	2644
696.819	2620
697.143	2596
697.466	2570
697.790	2549
698.113	2535
698.437	2528
698.760	2526
699.083	2525
699.407	2518
699.730	2505
700.053	2485
700.376	2456
700.699	2417
701.022	2367
701.345	2314
701.668	2264
701.991	2222
702.314	2193
702.637	2179
702.960	2184
703.283	2207
703.605	2247
703.928	2301
704.251	2362
704.573	2424
704.896	2479
705.218	2524
705.540	2560
705.863	2589
706.185	2613
706.507	2634
706.830	2653
707.152	2674
707.474	2696
707.796	2721
708.118	2746
708.440	2771
708.762	2793
709.084	2811
709.406	2821
709.728	2823
710.049	2818
710.371	2807
710.693	2789
711.014	2769
711.336	2749
711.658	2732
711.979	2716
712.301	2701
712.622	2686
712.943	2667
713.265	2645
713.586	2622
713.907	2600
714.228	2580
714.549	2564
714.870	2553
715.191	2548
715.512	2547
715.833	2544
716.154	2537
716.475	2526
716.796	2511
717.117	2488
717.437	2461
717.758	2430
718.078	2399
718.399	2369
718.719	2342
719.040	2318
719.360	2300
719.681	2286
720.001	2278
720.321	2273
720.642	2271
720.962	2273
721.282	2279
721.602	2287
721.922	2295
722.242	2307
722.562	2322
722.882	2340
723.202	2356
723.521	2371
723.841	2387
724.161	2403
724.481	2419
724.800	2436
725.120	2457
725.439	2482
725.759	2512
726.078	2546
726.398	2586
726.717	2637
727.036	2693
727.355	2752
727.675	2810
727.994	2866
728.313	2920
728.632	2965
728.951	3004
729.270	3036
729.589	3067
729.908	3106
730.226	3149
730.545	3197
730.864	3248
731.182	3303
731.501	3358
731.820	3412
732.138	3458
732.457	3499
732.775	3536
733.093	3566
733.412	3584
733.730	3589
734.048	3582
734.367	3566
734.685	3545
735.003	3520
735.321	3499
735.639	3481
735.957	3468
736.275	3455
736.593	3436
736.910	3407
737.228	3367
737.546	3316
737.863	3255
738.181	3189
738.499	3118
738.816	3049
739.134	2981
739.451	2911
739.768	2842
740.086	2776
740.403	2714
740.720	2656
741.038	2602
741.355	2549
741.672	2498
741.989	2445
742.306	2390
742.623	2334
742.940	2278
743.257	2227
743.573	2182
743.890	2146
744.207	2119
744.523	2100
744.840	2087
745.157	2079
745.473	2079
745.790	2086
746.106	2102
746.422	2126
746.739	2156
747.055	2193
747.371	2234
747.687	2277
748.004	2319
748.320	2355
748.636	2388
748.952	2420
749.268	2452
749.584	2484
749.899	2512
750.215	2541
750.531	2574
750.847	2610
751.162	2648
751.478	2683
751.793	2721
752.109	2760
752.424	2803
752.740	2847
753.055	2896
753.370	2956
753.686	3024
754.001	3098
754.316	3175
754.631	3257
754.946	3344
755.261	3436
755.576	3525
755.891	3611
756.206	3696
756.521	3786
756.836	3877
757.150	3966
757.465	4043
757.780	4109
758.094	4164
758.409	4207
758.723	4233
759.038	4245
759.352	4245
759.667	4233
759.981	4212
760.295	4191
760.609	4175
760.923	4165
761.238	4159
761.552	4154
761.866	4148
762.180	4140
762.493	4117
762.807	4073
763.121	4007
763.435	3924
763.749	3833
764.062	3748
764.376	3677
764.689	3628
765.003	3601
765.316	3597
765.630	3609
765.943	3629
766.257	3653
766.570	3673
766.883	3678
767.196	3669
767.509	3646
767.822	3611
768.135	3565
768.448	3516
768.761	3465
769.074	3420
769.387	3386
769.700	3365
770.013	3352
770.325	3341
770.638	3326
770.950	3299
771.263	3254
771.575	3192
771.888	3113
772.200	3022
772.513	2923
772.825	2819
773.137	2713
773.449	2608
773.761	2505
774.074	2410
774.386	2325
774.698	2255
775.010	2197
775.321	2156
775.633	2128
775.945	2113
776.257	2103
776.568	2100
776.880	2106
777.192	2121
777.503	2144
777.815	2173
778.126	2209
778.438	2253
778.749	2301
779.060	2347
779.372	2389
779.683	2431
779.994	2469
780.305	2499
780.616	2520
780.927	2533
781.238	2536
781.549	2531
781.860	2514
782.171	2490
782.481	2464
782.792	2438
783.103	2412
783.413	2384
783.724	2354
784.034	2325
784.345	2298
784.655	2273
784.966	2249
785.276	2223
785.586	2197
785.896	2172
786.207	2146
786.517	2118
786.827	2090
787.137	2064
787.447	2039
787.757	2014
788.066	1991
788.376	1969
788.686	1947
788.996	1924
789.305	1902
789.615	1884
789.925	1874
790.234	1871
790.544	1876
790.853	1885
791.162	1894
791.472	1902
791.781	1905
792.090	1900
792.399	1888
792.708	1870
793.017	1849
793.326	1830
793.635	1812
793.944	1795
794.253	1780
794.562	1770
794.871	1763
795.179	1759
795.488	1752
795.797	1743
796.105	1726
796.414	1700
796.722	1665
797.031	1620
797.339	1566
797.647	1506
797.956	1442
798.264	1384
798.572	1335
798.880	1297
799.188	1269
799.496	1249
799.804	1233
800.112	1221
800.420	1212
800.728	1202
801.035	1189
801.343	1174
801.651	1163
801.958	1160
802.266	1164
802.573	1174
802.881	1186
803.188	1201
803.496	1218
803.803	1235
804.110	1250
804.417	1264
804.724	1277
805.032	1289
805.339	1298
805.646	1305
805.953	1308
806.259	1309
806.566	1306
806.873	1301
807.180	1294
807.486	1287
807.793	1278
808.100	1265
808.406	1243
808.713	1214
809.019	1181
809.326	1148
809.632	1116
809.938	1085
810.244	1058
810.551	1035
810.857	1016
811.163	998
811.469	980
811.775	961
812.081	941
812.387	923
812.692	909
812.998	898
813.304	890
813.610	883
813.915	877
814.221	872
814.526	868
814.832	864
815.137	860
815.443	855
815.748	846
816.053	835
816.358	824
816.664	813
816.969	803
817.274	795
817.579	788
817.884	783
818.189	782
818.493	782
818.798	780
819.103	775
819.408	767
819.712	757
820.017	748
820.321	737
820.626	727
820.930	718
821.235	711
821.539	708
821.843	708
822.148	710
822.452	711
822.756	710
823.060	708
823.364	703
823.668	697
823.972	689
824.276	682
824.580	675
824.883	672
825.187	671
825.491	670
825.795	670
826.098	670
826.402	669
826.705	667
827.008	662
827.312	655
827.615	644
827.918	631
828.222	616
828.525	600
828.828	585
829.131	570
829.434	555
829.737	542
830.040	531
830.343	522
830.645	515
830.948	507
831.251	499
831.553	492
831.856	486
832.159	481
832.461	475
832.764	468
833.066	461
833.368	456
833.671	452
833.973	449
834.275	445
834.577	442
834.879	439
835.181	434
835.483	429
835.785	424
836.087	416
836.389	407
836.690	397
836.992	386
837.294	374
837.595	363
837.897	350
838.198	338
838.500	326
838.801	316
839.103	307
839.404	299
839.705	293
840.006	287
840.307	283
840.608	280
840.910	277
841.210	276
841.511	274
841.812	271
842.113	267
842.414	264
842.715	259
843.015	254
843.316	249
843.616	244
843.917	239
844.217	234
844.518	231
844.818	228
845.118	226
845.419	225
845.719	224
846.019	223
846.319	221
846.619	221
846.919	219
847.219	218
847.519	217
847.819	216
848.118	216
848.418	219
848.718	226
849.017	236
849.317	251
849.616	270
849.916	291
850.215	314
850.515	340
850.814	364
851.113	387
851.412	407
851.712	426
852.011	443
852.310	459
852.609	474
852.908	486
853.206	498
853.505	508
853.804	517
854.103	525
854.401	530
854.700	532
854.999	531
855.297	524
855.595	513
855.894	498
856.192	480
856.491	460
856.789	437
857.087	414
857.385	392
857.683	372
857.981	355
858.279	338
858.577	323
858.875	309
859.173	298
859.471	289
859.768	282
860.066	275
860.363	270
860.661	265
860.959	262
861.256	258
861.553	254
861.851	249
862.148	244
862.445	239
862.742	235
863.039	231
863.337	227
863.634	225
863.931	223
864.227	222
864.524	221
864.821	222
865.118	221
865.415	219
865.711	216
866.008	212
866.304	208
866.601	204
866.897	201
867.194	198
867.490	196
867.786	195
868.082	194
868.379	195
868.675	196
868.971	196
869.267	196
869.563	196
869.859	196
870.154	195
870.450	195
870.746	194
871.042	193
871.337	192
871.633	193
871.928	194
872.224	195
872.519	197
872.815	199
873.110	199
873.405	199
873.700	198
873.995	198
874.291	198
874.586	199
874.881	200
875.175	202
875.470	205
875.765	208
876.060	211
876.355	215
876.649	220
876.944	224
877.238	228
877.533	231
877.827	233
878.122	236
878.416	236
878.710	235
879.005	235
879.299	234
879.593	233
879.887	232
880.181	231
880.475	230
880.769	228
881.063	226
881.356	224
881.650	221
881.944	218
882.238	182
882.531	173
882.825	172
883.118	178
883.412	176
883.705	175
883.998	177
884.291	186
884.585	186
884.878	192
>>>>>>>>>> END of Data <<<<<<<<<<