Date	2021年06月15日火曜日 04時45分16秒
Spectrometers	USB2+H05879
ダーク	使用
リファレンス	使用
積分時間[msec]	10
平均回数	280
ｽﾑｰｼﾞﾝｸﾞ	10
Electrical Dark	USE
ピクセル数	2048
計測モード	吸光度
保存開始波長[nm]	190.664
保存終了波長[nm]	884.878
保存ﾋﾟｯﾁ波長[nm]	全波長

>>>>>>>>>> Data Start <<<<<<<<<<<<
190.664	0.000000
191.040	0.000000
191.415	0.000000
191.791	-2.610306
192.166	-0.452172
192.542	-0.868732
192.917	0.000000
193.293	-0.435287
193.668	-0.065458
194.044	-1.034595
194.419	0.000000
194.794	-1.317280
195.170	-1.243465
195.545	-1.150507
195.920	-1.021260
196.296	-0.902604
196.671	-0.748306
197.046	-0.594552
197.421	-0.550806
197.796	-0.554432
198.171	-0.523544
198.546	-0.478290
198.922	-0.434742
199.297	-0.414526
199.672	-0.402862
200.047	-0.383137
200.422	-0.362897
200.796	-0.352420
201.171	-0.335285
201.546	-0.339207
201.921	-0.334729
202.296	-0.321476
202.671	-0.295573
203.045	-0.267202
203.420	-0.263136
203.795	-0.245875
204.170	-0.239027
204.544	-0.232122
204.919	-0.230315
205.294	-0.224408
205.668	-0.209437
206.043	-0.195371
206.417	-0.202108
206.792	-0.193089
207.166	-0.190863
207.541	-0.183136
207.915	-0.188245
208.289	-0.167212
208.664	-0.169866
209.038	-0.166523
209.412	-0.147789
209.787	-0.128185
210.161	-0.114654
210.535	-0.119874
210.909	-0.116556
211.284	-0.110608
211.658	-0.116458
212.032	-0.120618
212.406	-0.127250
212.780	-0.127074
213.154	-0.122466
213.528	-0.125136
213.902	-0.122299
214.276	-0.114613
214.650	-0.114446
215.024	-0.098875
215.398	-0.095728
215.772	-0.089327
216.145	-0.088146
216.519	-0.079476
216.893	-0.081605
217.267	-0.080424
217.640	-0.088930
218.014	-0.082205
218.388	-0.071798
218.761	-0.074594
219.135	-0.059616
219.508	-0.059677
219.882	-0.061074
220.256	-0.052972
220.629	-0.046097
221.003	-0.046250
221.376	-0.045838
221.749	-0.048568
222.123	-0.046507
222.496	-0.042605
222.869	-0.044886
223.243	-0.039427
223.616	-0.037644
223.989	-0.039783
224.362	-0.035832
224.736	-0.034327
225.109	-0.040325
225.482	-0.029878
225.855	-0.032420
226.228	-0.027290
226.601	-0.024852
226.974	-0.032401
227.347	-0.016765
227.720	-0.009817
228.093	-0.019783
228.466	-0.032874
228.839	-0.031021
229.212	-0.027916
229.585	-0.031155
229.957	-0.030609
230.330	-0.032021
230.703	-0.026400
231.076	-0.033059
231.448	-0.037660
231.821	-0.036358
232.194	-0.044800
232.566	-0.047671
232.939	-0.043376
233.311	-0.054509
233.684	-0.053327
234.056	-0.057928
234.429	-0.055937
234.801	-0.052890
235.174	-0.060530
235.546	-0.068221
235.918	-0.063769
236.291	-0.054890
236.663	-0.051614
237.035	-0.046888
237.408	-0.037971
237.780	-0.027660
238.152	-0.024134
238.524	-0.034011
238.896	-0.029553
239.268	-0.026241
239.641	-0.030630
240.013	-0.017481
240.385	-0.011452
240.757	-0.015607
241.129	-0.011777
241.500	-0.018701
241.872	-0.020843
242.244	-0.017558
242.616	-0.016696
242.988	-0.009029
243.360	-0.003201
243.731	0.003849
244.103	0.003591
244.475	-0.001071
244.847	-0.005907
245.218	-0.004827
245.590	-0.007415
245.961	-0.011262
246.333	-0.005724
246.705	-0.013402
247.076	-0.014348
247.448	-0.013206
247.819	-0.017167
248.190	-0.009821
248.562	-0.008383
248.933	-0.008908
249.305	0.002320
249.676	0.004475
250.047	-0.000055
250.418	-0.000634
250.790	-0.006998
251.161	-0.010726
251.532	-0.010564
251.903	-0.014187
252.274	-0.005251
252.645	0.002359
253.016	0.000210
253.387	0.001171
253.758	0.007499
254.129	0.005753
254.500	0.018101
254.871	0.024249
255.242	0.025086
255.613	0.024025
255.984	0.015837
256.355	0.020212
256.725	0.022195
257.096	0.018861
257.467	0.024151
257.838	0.028724
258.208	0.024740
258.579	0.034641
258.949	0.036940
259.320	0.035562
259.690	0.041609
260.061	0.038883
260.431	0.041427
260.802	0.041362
261.172	0.040932
261.543	0.036418
261.913	0.039639
262.283	0.035591
262.654	0.034481
263.024	0.030608
263.394	0.035940
263.764	0.043585
264.135	0.045085
264.505	0.044615
264.875	0.050868
265.245	0.046709
265.615	0.041351
265.985	0.048947
266.355	0.042122
266.725	0.041660
267.095	0.046783
267.465	0.046545
267.835	0.041602
268.205	0.034128
268.575	0.041208
268.944	0.041835
269.314	0.040750
269.684	0.039922
270.054	0.034076
270.423	0.036177
270.793	0.038569
271.163	0.039051
271.532	0.035712
271.902	0.038005
272.271	0.041247
272.641	0.036695
273.010	0.034052
273.380	0.031114
273.749	0.021794
274.119	0.027700
274.488	0.036454
274.857	0.035946
275.227	0.037155
275.596	0.039434
275.965	0.045434
276.335	0.041399
276.704	0.039516
277.073	0.042003
277.442	0.045875
277.811	0.050381
278.180	0.056467
278.549	0.058409
278.918	0.058082
279.287	0.059050
279.656	0.060891
280.025	0.058788
280.394	0.055836
280.763	0.057365
281.132	0.064579
281.501	0.069862
281.869	0.067537
282.238	0.066391
282.607	0.063966
282.976	0.064608
283.344	0.067881
283.713	0.063857
284.081	0.063555
284.450	0.067282
284.819	0.071045
285.187	0.075655
285.556	0.080214
285.924	0.074007
286.292	0.072046
286.661	0.068294
287.029	0.071451
287.398	0.071202
287.766	0.066373
288.134	0.070358
288.502	0.075654
288.871	0.082679
289.239	0.088047
289.607	0.085803
289.975	0.080909
290.343	0.081977
290.711	0.079343
291.079	0.078732
291.447	0.087069
291.815	0.092522
292.183	0.095025
292.551	0.095434
292.919	0.094921
293.287	0.096679
293.655	0.102305
294.022	0.106718
294.390	0.116000
294.758	0.118133
295.126	0.115055
295.493	0.120591
295.861	0.125784
296.229	0.127808
296.596	0.128971
296.964	0.127333
297.331	0.130828
297.699	0.135623
298.066	0.140164
298.434	0.147795
298.801	0.150993
299.168	0.150575
299.536	0.149364
299.903	0.148588
300.270	0.146616
300.638	0.148235
301.005	0.148295
301.372	0.148976
301.739	0.156499
302.106	0.157563
302.473	0.167072
302.840	0.179014
303.207	0.201151
303.574	0.213595
303.941	0.223604
304.308	0.232437
304.675	0.244295
305.042	0.264804
305.409	0.284390
305.776	0.299648
306.143	0.318774
306.509	0.336971
306.876	0.361849
307.243	0.386697
307.610	0.410589
307.976	0.440712
308.343	0.472038
308.709	0.508259
309.076	0.542614
309.442	0.564377
309.809	0.593508
310.175	0.627026
310.542	0.651869
310.908	0.677989
311.275	0.703253
311.641	0.735264
312.007	0.761909
312.373	0.799418
312.740	0.824802
313.106	0.850749
313.472	0.884807
313.838	0.914509
314.204	0.942022
314.570	0.966019
314.936	0.991029
315.302	1.016167
315.668	1.040381
316.034	1.065183
316.400	1.092527
316.766	1.112700
317.132	1.149114
317.498	1.175697
317.864	1.187941
318.230	1.211234
318.595	1.229189
318.961	1.246706
319.327	1.268962
319.692	1.283273
320.058	1.292758
320.424	1.307793
320.789	1.325204
321.155	1.344084
321.520	1.360011
321.886	1.384469
322.251	1.404081
322.616	1.420471
322.982	1.436197
323.347	1.447986
323.712	1.462597
324.078	1.472281
324.443	1.484283
324.808	1.490606
325.173	1.502097
325.539	1.516171
325.904	1.523986
326.269	1.534175
326.634	1.548468
326.999	1.555824
327.364	1.569011
327.729	1.579661
328.094	1.587413
328.459	1.597106
328.823	1.600885
329.188	1.610710
329.553	1.608929
329.918	1.614568
330.283	1.619607
330.647	1.628776
331.012	1.635787
331.377	1.641279
331.741	1.646153
332.106	1.655066
332.470	1.660064
332.835	1.662015
333.199	1.667682
333.564	1.675678
333.928	1.679449
334.293	1.680691
334.657	1.681178
335.021	1.686911
335.386	1.689613
335.750	1.693540
336.114	1.694017
336.478	1.697935
336.843	1.699070
337.207	1.703867
337.571	1.706051
337.935	1.710949
338.299	1.711158
338.663	1.711110
339.027	1.712635
339.391	1.716000
339.755	1.715668
340.119	1.717194
340.483	1.720013
340.846	1.723756
341.210	1.726131
341.574	1.728000
341.938	1.731188
342.301	1.735144
342.665	1.736682
343.029	1.739828
343.392	1.743093
343.756	1.746928
344.119	1.747694
344.483	1.748592
344.846	1.751804
345.210	1.755234
345.573	1.752902
345.937	1.754048
346.300	1.756719
346.663	1.757874
347.027	1.758939
347.390	1.759777
347.753	1.759172
348.116	1.758843
348.479	1.759194
348.843	1.759671
349.206	1.759498
349.569	1.758243
349.932	1.759967
350.295	1.758791
350.658	1.760871
351.021	1.763012
351.383	1.763305
351.746	1.764781
352.109	1.765270
352.472	1.764509
352.835	1.764044
353.197	1.766550
353.560	1.769056
353.923	1.769530
354.285	1.769489
354.648	1.770879
355.011	1.771262
355.373	1.774169
355.736	1.775119
356.098	1.774621
356.461	1.774622
356.823	1.775939
357.185	1.779226
357.548	1.781239
357.910	1.783523
358.272	1.780837
358.635	1.779059
358.997	1.780292
359.359	1.783281
359.721	1.784225
360.083	1.787273
360.445	1.788813
360.807	1.789971
361.169	1.789141
361.531	1.791087
361.893	1.792199
362.255	1.791778
362.617	1.793539
362.979	1.794138
363.341	1.795402
363.703	1.796287
364.064	1.799682
364.426	1.801806
364.788	1.802376
365.149	1.802135
365.511	1.802742
365.873	1.806572
366.234	1.809265
366.596	1.810806
366.957	1.810757
367.319	1.812877
367.680	1.813074
368.042	1.812462
368.403	1.813469
368.764	1.815021
369.126	1.815053
369.487	1.817358
369.848	1.817834
370.209	1.819176
370.570	1.821161
370.931	1.824009
371.293	1.825000
371.654	1.823621
372.015	1.825194
372.376	1.825934
372.737	1.826575
373.098	1.827749
373.458	1.828069
373.819	1.829724
374.180	1.831177
374.541	1.831576
374.902	1.833217
375.263	1.834386
375.623	1.834015
375.984	1.836076
376.345	1.836704
376.705	1.838707
377.066	1.840314
377.426	1.840601
377.787	1.841431
378.147	1.841783
378.508	1.840228
378.868	1.841940
379.228	1.842950
379.589	1.842231
379.949	1.844119
380.309	1.844433
380.670	1.845989
381.030	1.846493
381.390	1.846671
381.750	1.846238
382.110	1.845845
382.470	1.845943
382.830	1.848310
383.190	1.851402
383.550	1.852207
383.910	1.854381
384.270	1.855424
384.630	1.856595
384.990	1.859999
385.350	1.861431
385.709	1.862448
386.069	1.865336
386.429	1.866229
386.788	1.867576
387.148	1.870769
387.508	1.872084
387.867	1.873986
388.227	1.872434
388.586	1.873474
388.946	1.875255
389.305	1.876147
389.665	1.879158
390.024	1.880496
390.383	1.880252
390.743	1.881137
391.102	1.880673
391.461	1.881738
391.820	1.883104
392.179	1.880742
392.539	1.881662
392.898	1.883434
393.257	1.883438
393.616	1.885419
393.975	1.884297
394.334	1.885706
394.693	1.885776
395.051	1.886861
395.410	1.886867
395.769	1.890444
396.128	1.892657
396.487	1.892464
396.845	1.893545
397.204	1.891854
397.563	1.890355
397.921	1.890881
398.280	1.889982
398.638	1.890123
398.997	1.889722
399.355	1.888052
399.714	1.891067
400.072	1.888869
400.431	1.885684
400.789	1.885812
401.147	1.883455
401.506	1.883376
401.864	1.881536
402.222	1.879607
402.580	1.877032
402.938	1.878107
403.297	1.875905
403.655	1.874306
404.013	1.873461
404.371	1.872166
404.729	1.872220
405.087	1.872308
405.444	1.870557
405.802	1.870496
406.160	1.870648
406.518	1.869163
406.876	1.868349
407.233	1.865082
407.591	1.863733
407.949	1.864937
408.306	1.863714
408.664	1.863834
409.022	1.864674
409.379	1.864731
409.737	1.863291
410.094	1.860982
410.451	1.858866
410.809	1.858472
411.166	1.857009
411.523	1.857344
411.881	1.857634
412.238	1.857173
412.595	1.855508
412.952	1.854982
413.310	1.852874
413.667	1.851726
414.024	1.852200
414.381	1.852128
414.738	1.851654
415.095	1.850727
415.452	1.848404
415.809	1.848235
416.165	1.846762
416.522	1.844381
416.879	1.842432
417.236	1.840458
417.593	1.840714
417.949	1.839432
418.306	1.838877
418.663	1.839398
419.019	1.836005
419.376	1.833081
419.732	1.830326
420.089	1.829419
420.445	1.826761
420.802	1.826981
421.158	1.825282
421.514	1.822818
421.871	1.820556
422.227	1.818983
422.583	1.819025
422.939	1.816575
423.295	1.814103
423.652	1.812438
424.008	1.809942
424.364	1.807994
424.720	1.808170
425.076	1.806529
425.432	1.804736
425.788	1.801686
426.143	1.797594
426.499	1.796166
426.855	1.794022
427.211	1.792467
427.567	1.790319
427.922	1.789242
428.278	1.784125
428.634	1.782581
428.989	1.779443
429.345	1.776778
429.700	1.773968
430.056	1.771692
430.411	1.770771
430.767	1.768591
431.122	1.765276
431.478	1.762810
431.833	1.760152
432.188	1.755562
432.543	1.752621
432.899	1.748972
433.254	1.745383
433.609	1.742321
433.964	1.738256
434.319	1.734207
434.674	1.729741
435.029	1.726080
435.384	1.722063
435.739	1.719476
436.094	1.715429
436.449	1.712634
436.804	1.709269
437.158	1.705089
437.513	1.700161
437.868	1.694776
438.223	1.690762
438.577	1.686235
438.932	1.683136
439.287	1.679449
439.641	1.676286
439.996	1.672050
440.350	1.667950
440.704	1.664602
441.059	1.660454
441.413	1.656142
441.768	1.651812
442.122	1.649085
442.476	1.644890
442.830	1.640227
443.185	1.636533
443.539	1.632052
443.893	1.627313
444.247	1.622492
444.601	1.619325
444.955	1.614420
445.309	1.610527
445.663	1.605539
446.017	1.601072
446.371	1.595542
446.724	1.590595
447.078	1.585592
447.432	1.580578
447.786	1.575617
448.139	1.569769
448.493	1.564416
448.847	1.559297
449.200	1.554544
449.554	1.548918
449.907	1.543741
450.261	1.538129
450.614	1.532954
450.968	1.527456
451.321	1.522496
451.674	1.517260
452.027	1.511089
452.381	1.505840
452.734	1.500673
453.087	1.495095
453.440	1.489298
453.793	1.483822
454.146	1.477912
454.499	1.472372
454.852	1.466376
455.205	1.460865
455.558	1.456379
455.911	1.451341
456.264	1.446090
456.617	1.441026
456.970	1.436129
457.322	1.431519
457.675	1.427140
458.028	1.422320
458.380	1.418045
458.733	1.412983
459.086	1.408756
459.438	1.404175
459.791	1.399635
460.143	1.394857
460.496	1.390640
460.848	1.386297
461.200	1.381571
461.553	1.377335
461.905	1.372929
462.257	1.368205
462.609	1.363937
462.961	1.359386
463.314	1.354917
463.666	1.350518
464.018	1.346035
464.370	1.341695
464.722	1.337462
465.074	1.333184
465.426	1.328910
465.777	1.324883
466.129	1.321206
466.481	1.317298
466.833	1.313776
467.184	1.310091
467.536	1.305828
467.888	1.301484
468.239	1.297239
468.591	1.292726
468.943	1.287662
469.294	1.282754
469.646	1.278545
469.997	1.273720
470.348	1.268850
470.700	1.264681
471.051	1.260686
471.402	1.256587
471.754	1.252584
472.105	1.248619
472.456	1.245054
472.807	1.241535
473.158	1.238188
473.509	1.234955
473.860	1.231734
474.211	1.228306
474.562	1.225065
474.913	1.221910
475.264	1.219106
475.615	1.216114
475.966	1.213309
476.316	1.210201
476.667	1.206983
477.018	1.204050
477.368	1.200992
477.719	1.197928
478.070	1.194677
478.420	1.191577
478.771	1.188506
479.121	1.185544
479.472	1.182556
479.822	1.179534
480.172	1.176547
480.523	1.173252
480.873	1.169899
481.223	1.165855
481.573	1.162042
481.924	1.158302
482.274	1.154493
482.624	1.151121
482.974	1.148020
483.324	1.145484
483.674	1.143336
484.024	1.141433
484.374	1.139232
484.724	1.137212
485.073	1.135228
485.423	1.133336
485.773	1.131194
486.123	1.129302
486.472	1.127185
486.822	1.125070
487.172	1.123023
487.521	1.120958
487.871	1.118856
488.220	1.116701
488.570	1.114437
488.919	1.111595
489.268	1.108391
489.618	1.104846
489.967	1.100492
490.316	1.095942
490.666	1.090859
491.015	1.086122
491.364	1.081550
491.713	1.077715
492.062	1.073987
492.411	1.070434
492.760	1.067058
493.109	1.063912
493.458	1.060505
493.807	1.057396
494.156	1.054132
494.505	1.050860
494.853	1.047570
495.202	1.044213
495.551	1.040794
495.900	1.037521
496.248	1.034096
496.597	1.030681
496.945	1.027587
497.294	1.024533
497.642	1.021230
497.991	1.018207
498.339	1.015041
498.688	1.012037
499.036	1.009097
499.384	1.006110
499.732	1.003166
500.081	1.000064
500.429	0.996960
500.777	0.993915
501.125	0.990950
501.473	0.988031
501.821	0.985221
502.169	0.982530
502.517	0.979836
502.865	0.977201
503.213	0.974395
503.561	0.971746
503.908	0.969113
504.256	0.966265
504.604	0.963427
504.952	0.960699
505.299	0.957761
505.647	0.955060
505.994	0.952261
506.342	0.949397
506.689	0.946669
507.037	0.943928
507.384	0.941112
507.732	0.938410
508.079	0.935776
508.426	0.932974
508.774	0.930271
509.121	0.927642
509.468	0.924936
509.815	0.922402
510.162	0.919677
510.509	0.917246
510.856	0.914758
511.203	0.912234
511.550	0.909772
511.897	0.907433
512.244	0.905151
512.591	0.902800
512.938	0.900436
513.284	0.898045
513.631	0.895708
513.978	0.893355
514.324	0.890909
514.671	0.888588
515.018	0.886243
515.364	0.883982
515.711	0.881838
516.057	0.879559
516.403	0.877195
516.750	0.874869
517.096	0.872642
517.443	0.870440
517.789	0.868051
518.135	0.865821
518.481	0.863632
518.827	0.861564
519.173	0.859240
519.519	0.856902
519.865	0.854721
520.211	0.852481
520.557	0.850264
520.903	0.847961
521.249	0.845689
521.595	0.843525
521.941	0.841086
522.287	0.838564
522.632	0.835966
522.978	0.833507
523.324	0.831182
523.669	0.828756
524.015	0.826303
524.360	0.823680
524.706	0.821249
525.051	0.818955
525.397	0.816500
525.742	0.814029
526.087	0.811716
526.433	0.809578
526.778	0.807489
527.123	0.805180
527.468	0.802878
527.813	0.800869
528.158	0.798586
528.504	0.796193
528.849	0.793605
529.193	0.791253
529.538	0.789008
529.883	0.786599
530.228	0.783975
530.573	0.781479
530.918	0.779076
531.263	0.776610
531.607	0.774253
531.952	0.771814
532.296	0.769296
532.641	0.766992
532.986	0.764493
533.330	0.761910
533.675	0.759421
534.019	0.756660
534.363	0.754073
534.708	0.751420
535.052	0.748586
535.396	0.745990
535.741	0.743488
536.085	0.740943
536.429	0.738410
536.773	0.735690
537.117	0.733044
537.461	0.730216
537.805	0.727181
538.149	0.724000
538.493	0.720920
538.837	0.717848
539.181	0.714755
539.524	0.711639
539.868	0.708499
540.212	0.705466
540.556	0.702345
540.899	0.699261
541.243	0.696343
541.586	0.693271
541.930	0.690185
542.273	0.686983
542.617	0.683777
542.960	0.680426
543.304	0.676997
543.647	0.673412
543.990	0.669883
544.333	0.666246
544.677	0.662786
545.020	0.659291
545.363	0.655899
545.706	0.652483
546.049	0.649075
546.392	0.645690
546.735	0.642260
547.078	0.638732
547.421	0.635130
547.764	0.631528
548.106	0.627605
548.449	0.623573
548.792	0.619608
549.135	0.615671
549.477	0.611782
549.820	0.607868
550.162	0.604047
550.505	0.600196
550.847	0.596293
551.190	0.592266
551.532	0.588141
551.875	0.583780
552.217	0.579406
552.559	0.575030
552.901	0.570708
553.244	0.566363
553.586	0.562170
553.928	0.558117
554.270	0.554178
554.612	0.550297
554.954	0.546356
555.296	0.542413
555.638	0.538381
555.980	0.534133
556.322	0.529674
556.663	0.525092
557.005	0.520446
557.347	0.515807
557.689	0.511275
558.030	0.506832
558.372	0.502365
558.713	0.497898
559.055	0.493562
559.396	0.489185
559.738	0.484713
560.079	0.480274
560.421	0.475933
560.762	0.471583
561.103	0.467274
561.444	0.462984
561.786	0.458832
562.127	0.454718
562.468	0.450564
562.809	0.446316
563.150	0.441949
563.491	0.437508
563.832	0.432909
564.173	0.428166
564.514	0.423294
564.855	0.418293
565.195	0.413185
565.536	0.408120
565.877	0.403203
566.218	0.398337
566.558	0.393582
566.899	0.389064
567.239	0.384757
567.580	0.380713
567.920	0.377000
568.261	0.373592
568.601	0.370330
568.941	0.367179
569.282	0.364156
569.622	0.361215
569.962	0.358294
570.302	0.355422
570.643	0.352628
570.983	0.349980
571.323	0.347444
571.663	0.344994
572.003	0.342552
572.343	0.340107
572.683	0.337533
573.022	0.334825
573.362	0.332002
573.702	0.329190
574.042	0.326429
574.381	0.323720
574.721	0.321086
575.061	0.318533
575.400	0.316183
575.740	0.313841
576.079	0.311553
576.419	0.309142
576.758	0.306624
577.097	0.304042
577.437	0.301372
577.776	0.298662
578.115	0.295978
578.454	0.293422
578.794	0.291117
579.133	0.289051
579.472	0.287158
579.811	0.285429
580.150	0.283736
580.489	0.281989
580.828	0.280120
581.167	0.278158
581.505	0.276191
581.844	0.274222
582.183	0.272262
582.522	0.270292
582.860	0.268426
583.199	0.266641
583.538	0.264967
583.876	0.263346
584.215	0.261713
584.553	0.260068
584.891	0.258460
585.230	0.256800
585.568	0.255075
585.906	0.253277
586.245	0.251502
586.583	0.249803
586.921	0.248225
587.259	0.246792
587.597	0.245456
587.935	0.244057
588.273	0.242584
588.611	0.240909
588.949	0.239139
589.287	0.237314
589.625	0.235480
589.963	0.233741
590.300	0.232061
590.638	0.230492
590.976	0.228953
591.313	0.227418
591.651	0.225850
591.989	0.224300
592.326	0.222836
592.664	0.221507
593.001	0.220204
593.338	0.219015
593.676	0.217893
594.013	0.216801
594.350	0.215714
594.687	0.214700
595.025	0.213764
595.362	0.212780
595.699	0.211785
596.036	0.210789
596.373	0.209744
596.710	0.208683
597.047	0.207579
597.384	0.206500
597.720	0.205403
598.057	0.204316
598.394	0.203208
598.731	0.202155
599.067	0.201081
599.404	0.199990
599.741	0.198920
600.077	0.197938
600.414	0.196985
600.750	0.196153
601.087	0.195367
601.423	0.194585
601.759	0.193772
602.096	0.192934
602.432	0.192138
602.768	0.191323
603.104	0.190483
603.440	0.189681
603.776	0.188893
604.112	0.188109
604.448	0.187326
604.784	0.186583
605.120	0.185855
605.456	0.185159
605.792	0.184468
606.128	0.183775
606.463	0.183143
606.799	0.182436
607.135	0.181691
607.470	0.181020
607.806	0.180278
608.142	0.179548
608.477	0.178845
608.812	0.178156
609.148	0.177497
609.483	0.176823
609.819	0.176144
610.154	0.175453
610.489	0.174748
610.824	0.174043
611.159	0.173385
611.494	0.172697
611.830	0.172085
612.165	0.171546
612.500	0.171021
612.834	0.170517
613.169	0.169981
613.504	0.169385
613.839	0.168863
614.174	0.168315
614.509	0.167701
614.843	0.167139
615.178	0.166596
615.512	0.166086
615.847	0.165560
616.182	0.165069
616.516	0.164599
616.850	0.164158
617.185	0.163709
617.519	0.163251
617.853	0.162805
618.188	0.162230
618.522	0.161652
618.856	0.161007
619.190	0.160317
619.524	0.159658
619.858	0.159039
620.192	0.158475
620.526	0.157944
620.860	0.157421
621.194	0.156936
621.528	0.156436
621.862	0.155951
622.195	0.155482
622.529	0.154917
622.863	0.154414
623.196	0.153922
623.530	0.153464
623.864	0.152982
624.197	0.152554
624.530	0.152057
624.864	0.151585
625.197	0.151203
625.531	0.150817
625.864	0.150421
626.197	0.149995
626.530	0.149626
626.863	0.149129
627.196	0.148648
627.529	0.148170
627.862	0.147656
628.195	0.147149
628.528	0.146643
628.861	0.146100
629.194	0.145627
629.527	0.145170
629.860	0.144719
630.192	0.144183
630.525	0.143595
630.858	0.143070
631.190	0.142491
631.523	0.141956
631.855	0.141337
632.188	0.140780
632.520	0.140185
632.852	0.139651
633.185	0.139172
633.517	0.138660
633.849	0.138203
634.182	0.137782
634.514	0.137402
634.846	0.137092
635.178	0.136776
635.510	0.136462
635.842	0.136104
636.174	0.135723
636.506	0.135418
636.837	0.135058
637.169	0.134736
637.501	0.134394
637.833	0.134143
638.164	0.133811
638.496	0.133489
638.828	0.133081
639.159	0.132672
639.491	0.132317
639.822	0.131840
640.154	0.131256
640.485	0.130671
640.816	0.130053
641.147	0.129463
641.479	0.128834
641.810	0.128259
642.141	0.127672
642.472	0.127152
642.803	0.126705
643.134	0.126181
643.465	0.125623
643.796	0.125099
644.127	0.124669
644.458	0.124319
644.789	0.123851
645.119	0.123605
645.450	0.123435
645.781	0.123481
646.111	0.123540
646.442	0.123559
646.773	0.123550
647.103	0.123528
647.433	0.123487
647.764	0.123423
648.094	0.123316
648.425	0.123261
648.755	0.123161
649.085	0.123002
649.415	0.122913
649.745	0.122886
650.075	0.122866
650.405	0.122782
650.735	0.121261
651.065	0.111999
651.395	0.103458
651.725	0.090955
652.055	0.062201
652.385	0.045927
652.715	0.035436
653.044	0.028115
653.374	0.022742
653.704	0.018646
654.033	0.025447
654.363	0.031139
654.692	0.034426
655.022	0.036365
655.351	0.037542
655.680	0.038231
656.010	0.038594
656.339	0.038751
656.668	0.038778
656.997	0.038731
657.326	0.038649
657.655	0.038554
657.984	0.038083
658.313	0.035304
658.642	0.031990
658.971	0.037116
659.300	0.043658
659.629	0.052311
659.958	0.064280
660.286	0.081940
660.615	0.110644
660.944	0.117771
661.272	0.116041
661.601	0.114945
661.929	0.114365
662.258	0.114082
662.586	0.113911
662.915	0.113789
663.243	0.113370
663.571	0.112914
663.899	0.112583
664.228	0.112122
664.556	0.111867
664.884	0.111546
665.212	0.111361
665.540	0.111196
665.868	0.111118
666.196	0.111043
666.524	0.110875
666.852	0.110760
667.179	0.110608
667.507	0.110445
667.835	0.110387
668.162	0.110327
668.490	0.110215
668.818	0.110098
669.145	0.110068
669.473	0.110122
669.800	0.110079
670.127	0.110095
670.455	0.110133
670.782	0.110229
671.109	0.110312
671.436	0.110361
671.764	0.110417
672.091	0.110404
672.418	0.110337
672.745	0.110240
673.072	0.110145
673.399	0.110031
673.726	0.109864
674.053	0.109711
674.379	0.109612
674.706	0.109412
675.033	0.109141
675.359	0.109038
675.686	0.108890
676.013	0.108653
676.339	0.108425
676.666	0.108168
676.992	0.107967
677.318	0.107821
677.645	0.107662
677.971	0.107511
678.297	0.107375
678.624	0.107337
678.950	0.107182
679.276	0.107079
679.602	0.106920
679.928	0.106681
680.254	0.106520
680.580	0.106328
680.906	0.106155
681.232	0.105975
681.558	0.106028
681.883	0.106165
682.209	0.106156
682.535	0.106155
682.860	0.106174
683.186	0.106131
683.511	0.106079
683.837	0.105955
684.162	0.105876
684.488	0.105721
684.813	0.105660
685.138	0.105495
685.464	0.105293
685.789	0.105174
686.114	0.105040
686.439	0.104867
686.764	0.104848
687.089	0.104735
687.414	0.104700
687.739	0.104699
688.064	0.104669
688.389	0.104476
688.714	0.104299
689.039	0.104029
689.363	0.103787
689.688	0.103551
690.013	0.103309
690.337	0.103160
690.662	0.103072
690.986	0.102906
691.311	0.102784
691.635	0.102646
691.959	0.102511
692.284	0.102248
692.608	0.101991
692.932	0.101823
693.256	0.101726
693.580	0.101631
693.904	0.101624
694.228	0.101586
694.552	0.101579
694.876	0.101566
695.200	0.101505
695.524	0.101295
695.848	0.101116
696.172	0.100928
696.495	0.100663
696.819	0.100413
697.143	0.100131
697.466	0.099783
697.790	0.099476
698.113	0.099193
698.437	0.098775
698.760	0.098485
699.083	0.098339
699.407	0.098217
699.730	0.098054
700.053	0.097949
700.376	0.097657
700.699	0.097296
701.022	0.096893
701.345	0.096327
701.668	0.095634
701.991	0.094936
702.314	0.094208
702.637	0.093535
702.960	0.092887
703.283	0.092376
703.605	0.091879
703.928	0.091496
704.251	0.091368
704.573	0.091170
704.896	0.090968
705.218	0.090889
705.540	0.090652
705.863	0.090362
706.185	0.089894
706.507	0.089408
706.830	0.088850
707.152	0.088318
707.474	0.087789
707.796	0.087240
708.118	0.086804
708.440	0.086528
708.762	0.086274
709.084	0.086017
709.406	0.085841
709.728	0.085589
710.049	0.085294
710.371	0.085054
710.693	0.084758
711.014	0.084234
711.336	0.083828
711.658	0.083425
711.979	0.083096
712.301	0.082817
712.622	0.082602
712.943	0.082454
713.265	0.082301
713.586	0.082139
713.907	0.082039
714.228	0.082007
714.549	0.081968
714.870	0.081887
715.191	0.081769
715.512	0.081700
715.833	0.081687
716.154	0.081526
716.475	0.081331
716.796	0.081157
717.117	0.080797
717.437	0.080435
717.758	0.080095
718.078	0.079685
718.399	0.079285
718.719	0.078818
719.040	0.078319
719.360	0.077929
719.681	0.077567
720.001	0.077253
720.321	0.076995
720.642	0.076633
720.962	0.076295
721.282	0.076069
721.602	0.075783
721.922	0.075501
722.242	0.075149
722.562	0.074870
722.882	0.074638
723.202	0.074506
723.521	0.074363
723.841	0.074335
724.161	0.074204
724.481	0.074031
724.800	0.073888
725.120	0.073741
725.439	0.073601
725.759	0.073515
726.078	0.073362
726.398	0.073203
726.717	0.073103
727.036	0.073053
727.355	0.073076
727.675	0.073155
727.994	0.073203
728.313	0.073271
728.632	0.073283
728.951	0.073280
729.270	0.073163
729.589	0.072997
729.908	0.072743
730.226	0.072384
730.545	0.072080
730.864	0.071785
731.182	0.071525
731.501	0.071331
731.820	0.071197
732.138	0.071061
732.457	0.070835
732.775	0.070624
733.093	0.070536
733.412	0.070398
733.730	0.070170
734.048	0.069979
734.367	0.069659
734.685	0.069292
735.003	0.068860
735.321	0.068521
735.639	0.068168
735.957	0.067907
736.275	0.067655
736.593	0.067483
736.910	0.067350
737.228	0.067229
737.546	0.067099
737.863	0.066986
738.181	0.066693
738.499	0.066363
738.816	0.066026
739.134	0.065777
739.451	0.065540
739.768	0.065244
740.086	0.064891
740.403	0.064583
740.720	0.064261
741.038	0.063905
741.355	0.063565
741.672	0.063250
741.989	0.062798
742.306	0.062373
742.623	0.061876
742.940	0.061329
743.257	0.060685
743.573	0.060135
743.890	0.059516
744.207	0.058935
744.523	0.058471
744.840	0.058113
745.157	0.057679
745.473	0.057290
745.790	0.056972
746.106	0.056582
746.422	0.056201
746.739	0.055828
747.055	0.055563
747.371	0.055282
747.687	0.055219
748.004	0.055133
748.320	0.055149
748.636	0.055076
748.952	0.054940
749.268	0.054881
749.584	0.054861
749.899	0.054865
750.215	0.054831
750.531	0.054724
750.847	0.054736
751.162	0.054646
751.478	0.054662
751.793	0.054578
752.109	0.054448
752.424	0.054316
752.740	0.054253
753.055	0.054180
753.370	0.054135
753.686	0.054231
754.001	0.054384
754.316	0.054519
754.631	0.054669
754.946	0.054763
755.261	0.054854
755.576	0.054998
755.891	0.054981
756.206	0.054902
756.521	0.054852
756.836	0.054790
757.150	0.054789
757.465	0.054749
757.780	0.054775
758.094	0.054748
758.409	0.054820
758.723	0.054924
759.038	0.054942
759.352	0.054918
759.667	0.054857
759.981	0.054790
760.295	0.054535
760.609	0.054274
760.923	0.053982
761.238	0.053648
761.552	0.053377
761.866	0.053121
762.180	0.052960
762.493	0.052928
762.807	0.052876
763.121	0.052745
763.435	0.052633
763.749	0.052434
764.062	0.052206
764.376	0.051892
764.689	0.051598
765.003	0.051289
765.316	0.051017
765.630	0.050910
765.943	0.050784
766.257	0.050680
766.570	0.050552
766.883	0.050448
767.196	0.050216
767.509	0.049887
767.822	0.049626
768.135	0.049285
768.448	0.049030
768.761	0.048668
769.074	0.048293
769.387	0.048032
769.700	0.047772
770.013	0.047550
770.325	0.047366
770.638	0.047220
770.950	0.047061
771.263	0.046919
771.575	0.046757
771.888	0.046488
772.200	0.046187
772.513	0.045832
772.825	0.045502
773.137	0.045179
773.449	0.044866
773.761	0.044520
774.074	0.044327
774.386	0.044037
774.698	0.043824
775.010	0.043477
775.321	0.043186
775.633	0.042860
775.945	0.042695
776.257	0.042597
776.568	0.042443
776.880	0.042355
777.192	0.042294
777.503	0.042317
777.815	0.042242
778.126	0.042333
778.438	0.042458
778.749	0.042651
779.060	0.042818
779.372	0.042968
779.683	0.043128
779.994	0.043205
780.305	0.043363
780.616	0.043501
780.927	0.043689
781.238	0.043762
781.549	0.043949
781.860	0.044054
782.171	0.044170
782.481	0.044160
782.792	0.044201
783.103	0.044268
783.413	0.044348
783.724	0.044262
784.034	0.044227
784.345	0.044229
784.655	0.044085
784.966	0.044035
785.276	0.043910
785.586	0.043790
785.896	0.043683
786.207	0.043560
786.517	0.043591
786.827	0.043617
787.137	0.043596
787.447	0.043547
787.757	0.043588
788.066	0.043585
788.376	0.043592
788.686	0.043639
788.996	0.043775
789.305	0.043733
789.615	0.043723
789.925	0.043704
790.234	0.043794
790.544	0.043872
790.853	0.043913
791.162	0.044156
791.472	0.044405
791.781	0.044504
792.090	0.044668
792.399	0.044715
792.708	0.044693
793.017	0.044651
793.326	0.044581
793.635	0.044466
793.944	0.044353
794.253	0.044116
794.562	0.043916
794.871	0.043776
795.179	0.043624
795.488	0.043422
795.797	0.043470
796.105	0.043366
796.414	0.043382
796.722	0.043357
797.031	0.043326
797.339	0.043217
797.647	0.042930
797.956	0.042502
798.264	0.042111
798.572	0.041784
798.880	0.041510
799.188	0.041212
799.496	0.041025
799.804	0.040865
800.112	0.040827
800.420	0.040774
800.728	0.040901
801.035	0.040893
801.343	0.040775
801.651	0.040617
801.958	0.040450
802.266	0.040205
802.573	0.040301
802.881	0.040295
803.188	0.040411
803.496	0.040500
803.803	0.040791
804.110	0.040965
804.417	0.040903
804.724	0.040948
805.032	0.040920
805.339	0.040936
805.646	0.041083
805.953	0.040957
806.259	0.040938
806.566	0.040837
806.873	0.040942
807.180	0.040915
807.486	0.040955
807.793	0.040988
808.100	0.041003
808.406	0.041086
808.713	0.041159
809.019	0.040822
809.326	0.040624
809.632	0.040368
809.938	0.039823
810.244	0.039394
810.551	0.039053
810.857	0.038946
811.163	0.038916
811.469	0.038809
811.775	0.038629
812.081	0.038382
812.387	0.038381
812.692	0.038366
812.998	0.038493
813.304	0.038341
813.610	0.038461
813.915	0.038420
814.221	0.038507
814.526	0.038753
814.832	0.038888
815.137	0.038942
815.443	0.039139
815.748	0.039134
816.053	0.039098
816.358	0.039331
816.664	0.039271
816.969	0.039118
817.274	0.039120
817.579	0.038980
817.884	0.038991
818.189	0.039044
818.493	0.039255
818.798	0.039282
819.103	0.039161
819.408	0.038994
819.712	0.038971
820.017	0.038701
820.321	0.038711
820.626	0.038662
820.930	0.038258
821.235	0.038061
821.539	0.037791
821.843	0.037879
822.148	0.037780
822.452	0.037857
822.756	0.038026
823.060	0.038157
823.364	0.038521
823.668	0.038601
823.972	0.038851
824.276	0.038957
824.580	0.039097
824.883	0.039297
825.187	0.039544
825.491	0.039894
825.795	0.039920
826.098	0.039896
826.402	0.039998
826.705	0.040032
827.008	0.039960
827.312	0.040052
827.615	0.039958
827.918	0.039809
828.222	0.039508
828.525	0.039451
828.828	0.039407
829.131	0.039269
829.434	0.039216
829.737	0.038742
830.040	0.038378
830.343	0.037634
830.645	0.037332
830.948	0.036799
831.251	0.036498
831.553	0.035912
831.856	0.035555
832.159	0.035830
832.461	0.035886
832.764	0.035770
833.066	0.035389
833.368	0.035424
833.671	0.035230
833.973	0.035163
834.275	0.035268
834.577	0.035242
834.879	0.035319
835.181	0.035030
835.483	0.034680
835.785	0.034190
836.087	0.034112
836.389	0.034136
836.690	0.033977
836.992	0.033540
837.294	0.033527
837.595	0.032606
837.897	0.032152
838.198	0.031353
838.500	0.030155
838.801	0.029244
839.103	0.028586
839.404	0.028412
839.705	0.027738
840.006	0.027767
840.307	0.027689
840.608	0.027348
840.910	0.027059
841.210	0.026985
841.511	0.026927
841.812	0.027277
842.113	0.027644
842.414	0.027351
842.715	0.027001
843.015	0.026330
843.316	0.026332
843.616	0.025495
843.917	0.024855
844.217	0.024999
844.518	0.025060
844.818	0.025052
845.118	0.025569
845.419	0.026031
845.719	0.025836
846.019	0.025379
846.319	0.025011
846.619	0.024387
846.919	0.024647
847.219	0.025209
847.519	0.024941
847.819	0.025165
848.118	0.024124
848.418	0.023448
848.718	0.023142
849.017	0.022841
849.317	0.023164
849.616	0.022968
849.916	0.023483
850.215	0.024232
850.515	0.024570
850.814	0.024916
851.113	0.025130
851.412	0.025327
851.712	0.025313
852.011	0.025303
852.310	0.025791
852.609	0.025958
852.908	0.026217
853.206	0.026389
853.505	0.026574
853.804	0.026554
854.103	0.026678
854.401	0.027006
854.700	0.027229
854.999	0.027153
855.297	0.027331
855.595	0.027461
855.894	0.027396
856.192	0.027213
856.491	0.027005
856.789	0.026788
857.087	0.026232
857.385	0.025936
857.683	0.025116
857.981	0.024695
858.279	0.024549
858.577	0.023402
858.875	0.022951
859.173	0.022365
859.471	0.022209
859.768	0.021955
860.066	0.021841
860.363	0.021070
860.661	0.020522
860.959	0.020155
861.256	0.020364
861.553	0.020310
861.851	0.019642
862.148	0.019307
862.445	0.019080
862.742	0.019014
863.039	0.018366
863.337	0.018247
863.634	0.017636
863.931	0.017727
864.227	0.017182
864.524	0.017069
864.821	0.017721
865.118	0.017117
865.415	0.016811
865.711	0.016168
866.008	0.014870
866.304	0.014452
866.601	0.014438
866.897	0.013982
867.194	0.013194
867.490	0.012649
867.786	0.011563
868.082	0.012122
868.379	0.011472
868.675	0.011544
868.971	0.011199
869.267	0.011459
869.563	0.012129
869.859	0.012316
870.154	0.012083
870.450	0.012678
870.746	0.012118
871.042	0.012152
871.337	0.012345
871.633	0.012315
871.928	0.011786
872.224	0.011589
872.519	0.010929
872.815	0.010885
873.110	0.010842
873.405	0.011344
873.700	0.010965
873.995	0.011164
874.291	0.011227
874.586	0.011917
874.881	0.011571
875.175	0.011735
875.470	0.011224
875.765	0.010970
876.060	0.011277
876.355	0.011130
876.649	0.011130
876.944	0.011604
877.238	0.011479
877.533	0.011752
877.827	0.012173
878.122	0.012739
878.416	0.012906
878.710	0.013655
879.005	0.013461
879.299	0.013267
879.593	0.013353
879.887	0.013295
880.181	0.013054
880.475	0.012661
880.769	0.012456
881.063	0.012542
881.356	0.012362
881.650	0.012175
881.944	0.011908
882.238	0.000717
882.531	0.021660
882.825	-0.000222
883.118	0.001698
883.412	0.008444
883.705	0.005430
883.998	0.009363
884.291	0.009179
884.585	0.001403
884.878	0.009945
>>>>>>>>>> END of Data <<<<<<<<<<
>>>>>>>>>> Raw Data Start <<<<<<<<
190.664	-405
191.040	5
191.415	5
191.791	8
192.166	6
192.542	9
192.917	7
193.293	8
193.668	2
194.044	8
194.419	-12
194.794	8
195.170	8
195.545	9
195.920	9
196.296	9
196.671	10
197.046	10
197.421	11
197.796	12
198.171	12
198.546	12
198.922	13
199.297	13
199.672	14
200.047	14
200.422	15
200.796	15
201.171	15
201.546	16
201.921	16
202.296	16
202.671	16
203.045	16
203.420	17
203.795	16
204.170	16
204.544	16
204.919	16
205.294	16
205.668	16
206.043	16
206.417	16
206.792	15
207.166	15
207.541	15
207.915	15
208.289	14
208.664	15
209.038	14
209.412	14
209.787	14
210.161	14
210.535	14
210.909	15
211.284	14
211.658	14
212.032	14
212.406	14
212.780	14
213.154	14
213.528	14
213.902	14
214.276	14
214.650	14
215.024	14
215.398	14
215.772	14
216.145	14
216.519	14
216.893	14
217.267	14
217.640	14
218.014	14
218.388	14
218.761	14
219.135	14
219.508	14
219.882	14
220.256	14
220.629	14
221.003	14
221.376	14
221.749	15
222.123	14
222.496	14
222.869	14
223.243	14
223.616	14
223.989	14
224.362	14
224.736	14
225.109	15
225.482	14
225.855	14
226.228	14
226.601	14
226.974	14
227.347	14
227.720	14
228.093	14
228.466	14
228.839	14
229.212	14
229.585	13
229.957	13
230.330	14
230.703	14
231.076	14
231.448	14
231.821	14
232.194	14
232.566	14
232.939	14
233.311	14
233.684	14
234.056	14
234.429	14
234.801	14
235.174	15
235.546	15
235.918	15
236.291	15
236.663	15
237.035	15
237.408	15
237.780	15
238.152	15
238.524	15
238.896	15
239.268	15
239.641	16
240.013	15
240.385	15
240.757	16
241.129	16
241.500	16
241.872	16
242.244	16
242.616	16
242.988	15
243.360	16
243.731	16
244.103	16
244.475	16
244.847	16
245.218	16
245.590	16
245.961	16
246.333	16
246.705	16
247.076	17
247.448	17
247.819	17
248.190	17
248.562	17
248.933	17
249.305	17
249.676	17
250.047	17
250.418	17
250.790	18
251.161	18
251.532	17
251.903	17
252.274	17
252.645	17
253.016	17
253.387	17
253.758	17
254.129	17
254.500	17
254.871	17
255.242	17
255.613	16
255.984	17
256.355	16
256.725	16
257.096	16
257.467	16
257.838	16
258.208	16
258.579	16
258.949	16
259.320	16
259.690	16
260.061	16
260.431	16
260.802	17
261.172	16
261.543	17
261.913	17
262.283	17
262.654	17
263.024	17
263.394	17
263.764	17
264.135	17
264.505	17
264.875	17
265.245	17
265.615	17
265.985	17
266.355	17
266.725	17
267.095	17
267.465	17
267.835	17
268.205	17
268.575	17
268.944	17
269.314	17
269.684	17
270.054	17
270.423	17
270.793	17
271.163	17
271.532	17
271.902	17
272.271	16
272.641	17
273.010	17
273.380	17
273.749	17
274.119	18
274.488	17
274.857	17
275.227	17
275.596	18
275.965	18
276.335	18
276.704	18
277.073	18
277.442	18
277.811	18
278.180	18
278.549	18
278.918	18
279.287	18
279.656	18
280.025	18
280.394	18
280.763	19
281.132	18
281.501	18
281.869	18
282.238	18
282.607	18
282.976	17
283.344	17
283.713	17
284.081	17
284.450	17
284.819	17
285.187	17
285.556	17
285.924	17
286.292	17
286.661	17
287.029	17
287.398	17
287.766	17
288.134	18
288.502	17
288.871	17
289.239	17
289.607	17
289.975	17
290.343	18
290.711	18
291.079	18
291.447	18
291.815	17
292.183	17
292.551	17
292.919	17
293.287	17
293.655	17
294.022	17
294.390	17
294.758	17
295.126	17
295.493	17
295.861	16
296.229	16
296.596	16
296.964	16
297.331	16
297.699	16
298.066	16
298.434	16
298.801	16
299.168	16
299.536	16
299.903	16
300.270	16
300.638	17
301.005	17
301.372	17
301.739	17
302.106	18
302.473	18
302.840	18
303.207	18
303.574	18
303.941	18
304.308	18
304.675	18
305.042	18
305.409	18
305.776	18
306.143	18
306.509	18
306.876	19
307.243	19
307.610	19
307.976	19
308.343	18
308.709	18
309.076	18
309.442	18
309.809	18
310.175	18
310.542	18
310.908	18
311.275	19
311.641	19
312.007	19
312.373	18
312.740	19
313.106	19
313.472	19
313.838	19
314.204	19
314.570	19
314.936	19
315.302	19
315.668	20
316.034	20
316.400	20
316.766	20
317.132	19
317.498	19
317.864	20
318.230	20
318.595	20
318.961	20
319.327	20
319.692	20
320.058	21
320.424	21
320.789	22
321.155	22
321.520	22
321.886	22
322.251	22
322.616	22
322.982	23
323.347	23
323.712	23
324.078	24
324.443	25
324.808	25
325.173	26
325.539	26
325.904	27
326.269	27
326.634	27
326.999	28
327.364	28
327.729	28
328.094	29
328.459	29
328.823	30
329.188	30
329.553	31
329.918	32
330.283	32
330.647	32
331.012	33
331.377	33
331.741	34
332.106	34
332.470	34
332.835	35
333.199	35
333.564	35
333.928	36
334.293	37
334.657	38
335.021	38
335.386	38
335.750	39
336.114	40
336.478	40
336.843	41
337.207	41
337.571	42
337.935	42
338.299	43
338.663	44
339.027	45
339.391	45
339.755	46
340.119	47
340.483	47
340.846	47
341.210	48
341.574	48
341.938	49
342.301	49
342.665	50
343.029	50
343.392	50
343.756	51
344.119	51
344.483	52
344.846	52
345.210	52
345.573	53
345.937	54
346.300	54
346.663	55
347.027	55
347.390	56
347.753	56
348.116	57
348.479	57
348.843	58
349.206	58
349.569	59
349.932	60
350.295	60
350.658	60
351.021	61
351.383	61
351.746	61
352.109	62
352.472	62
352.835	63
353.197	63
353.560	63
353.923	63
354.285	64
354.648	64
355.011	65
355.373	64
355.736	65
356.098	65
356.461	66
356.823	66
357.185	66
357.548	66
357.910	66
358.272	67
358.635	67
358.997	67
359.359	67
359.721	68
360.083	67
360.445	68
360.807	68
361.169	68
361.531	68
361.893	68
362.255	69
362.617	69
362.979	69
363.341	69
363.703	70
364.064	69
364.426	69
364.788	70
365.149	70
365.511	70
365.873	70
366.234	70
366.596	70
366.957	70
367.319	70
367.680	70
368.042	71
368.403	71
368.764	71
369.126	71
369.487	70
369.848	71
370.209	70
370.570	70
370.931	70
371.293	70
371.654	70
372.015	70
372.376	70
372.737	70
373.098	70
373.458	70
373.819	70
374.180	70
374.541	70
374.902	70
375.263	70
375.623	71
375.984	71
376.345	71
376.705	71
377.066	71
377.426	71
377.787	71
378.147	72
378.508	72
378.868	72
379.228	72
379.589	72
379.949	72
380.309	73
380.670	73
381.030	73
381.390	73
381.750	73
382.110	73
382.470	73
382.830	73
383.190	73
383.550	73
383.910	72
384.270	73
384.630	73
384.990	72
385.350	72
385.709	73
386.069	72
386.429	72
386.788	72
387.148	72
387.508	72
387.867	72
388.227	72
388.586	73
388.946	73
389.305	73
389.665	73
390.024	73
390.383	74
390.743	74
391.102	74
391.461	74
391.820	74
392.179	75
392.539	75
392.898	75
393.257	75
393.616	75
393.975	75
394.334	76
394.693	76
395.051	77
395.410	77
395.769	77
396.128	77
396.487	77
396.845	77
397.204	77
397.563	78
397.921	78
398.280	78
398.638	78
398.997	78
399.355	78
399.714	78
400.072	78
400.431	79
400.789	79
401.147	80
401.506	80
401.864	80
402.222	80
402.580	81
402.938	80
403.297	81
403.655	81
404.013	81
404.371	81
404.729	81
405.087	80
405.444	81
405.802	81
406.160	81
406.518	81
406.876	81
407.233	82
407.591	82
407.949	82
408.306	82
408.664	82
409.022	82
409.379	82
409.737	82
410.094	83
410.451	83
410.809	83
411.166	84
411.523	84
411.881	84
412.238	84
412.595	84
412.952	84
413.310	85
413.667	85
414.024	85
414.381	85
414.738	85
415.095	85
415.452	86
415.809	86
416.165	86
416.522	87
416.879	87
417.236	88
417.593	88
417.949	89
418.306	90
418.663	90
419.019	92
419.376	93
419.732	95
420.089	96
420.445	97
420.802	97
421.158	98
421.514	99
421.871	100
422.227	101
422.583	101
422.939	102
423.295	103
423.652	103
424.008	104
424.364	105
424.720	104
425.076	105
425.432	105
425.788	106
426.143	107
426.499	107
426.855	108
427.211	108
427.567	109
427.922	109
428.278	110
428.634	111
428.989	111
429.345	112
429.700	113
430.056	114
430.411	114
430.767	115
431.122	116
431.478	117
431.833	118
432.188	119
432.543	120
432.899	121
433.254	122
433.609	122
433.964	123
434.319	123
434.674	124
435.029	125
435.384	126
435.739	126
436.094	128
436.449	129
436.804	130
437.158	132
437.513	134
437.868	137
438.223	139
438.577	142
438.932	144
439.287	146
439.641	149
439.996	151
440.350	154
440.704	157
441.059	159
441.413	162
441.768	165
442.122	167
442.476	170
442.830	172
443.185	175
443.539	178
443.893	180
444.247	183
444.601	185
444.955	187
445.309	188
445.663	190
446.017	191
446.371	193
446.724	194
447.078	196
447.432	197
447.786	198
448.139	199
448.493	200
448.847	201
449.200	202
449.554	203
449.907	204
450.261	205
450.614	206
450.968	207
451.321	208
451.674	209
452.027	211
452.381	212
452.734	213
453.087	215
453.440	217
453.793	219
454.146	221
454.499	224
454.852	227
455.205	230
455.558	233
455.911	237
456.264	240
456.617	243
456.970	247
457.322	249
457.675	252
458.028	255
458.380	258
458.733	260
459.086	263
459.438	266
459.791	269
460.143	272
460.496	276
460.848	280
461.200	285
461.553	289
461.905	294
462.257	298
462.609	302
462.961	306
463.314	310
463.666	313
464.018	316
464.370	319
464.722	323
465.074	326
465.426	330
465.777	333
466.129	335
466.481	338
466.833	340
467.184	341
467.536	343
467.888	344
468.239	345
468.591	346
468.943	347
469.294	349
469.646	351
469.997	353
470.348	357
470.700	361
471.051	365
471.402	371
471.754	377
472.105	383
472.456	390
472.807	397
473.158	405
473.509	414
473.860	423
474.211	432
474.562	442
474.913	452
475.264	463
475.615	473
475.966	484
476.316	494
476.667	505
477.018	516
477.368	527
477.719	538
478.070	549
478.420	559
478.771	570
479.121	580
479.472	590
479.822	601
480.172	612
480.523	626
480.873	644
481.223	673
481.573	715
481.924	767
482.274	827
482.624	889
482.974	952
483.324	1007
483.674	1049
484.024	1078
484.374	1099
484.724	1113
485.073	1123
485.423	1132
485.773	1141
486.123	1149
486.472	1158
486.822	1166
487.172	1173
487.521	1179
487.871	1184
488.220	1183
488.570	1170
488.919	1145
489.268	1109
489.618	1066
489.967	1020
490.316	973
490.666	933
491.015	905
491.364	890
491.713	884
492.062	884
492.411	888
492.760	893
493.109	898
493.458	905
493.807	910
494.156	915
494.505	920
494.853	925
495.202	932
495.551	940
495.900	947
496.248	956
496.597	964
496.945	972
497.294	980
497.642	988
497.991	997
498.339	1007
498.688	1018
499.036	1028
499.384	1038
499.732	1047
500.081	1055
500.429	1063
500.777	1070
501.125	1077
501.473	1084
501.821	1091
502.169	1098
502.517	1104
502.865	1108
503.213	1112
503.561	1116
503.908	1119
504.256	1122
504.604	1124
504.952	1126
505.299	1128
505.647	1128
505.994	1127
506.342	1127
506.689	1125
507.037	1125
507.384	1126
507.732	1127
508.079	1128
508.426	1130
508.774	1132
509.121	1133
509.468	1134
509.815	1134
510.162	1135
510.509	1136
510.856	1136
511.203	1136
511.550	1135
511.897	1136
512.244	1135
512.591	1135
512.938	1135
513.284	1135
513.631	1135
513.978	1134
514.324	1133
514.671	1132
515.018	1130
515.364	1129
515.711	1128
516.057	1127
516.403	1127
516.750	1126
517.096	1124
517.443	1121
517.789	1120
518.135	1117
518.481	1116
518.827	1114
519.173	1113
519.519	1112
519.865	1111
520.211	1110
520.557	1109
520.903	1109
521.249	1110
521.595	1110
521.941	1110
522.287	1111
522.632	1112
522.978	1113
523.324	1114
523.669	1116
524.015	1119
524.360	1124
524.706	1130
525.051	1136
525.397	1144
525.742	1153
526.087	1161
526.433	1170
526.778	1177
527.123	1183
527.468	1189
527.813	1194
528.158	1199
528.504	1206
528.849	1215
529.193	1226
529.538	1237
529.883	1251
530.228	1268
530.573	1286
530.918	1304
531.263	1323
531.607	1340
531.952	1357
532.296	1371
532.641	1382
532.986	1392
533.330	1402
533.675	1412
534.019	1426
534.363	1441
534.708	1459
535.052	1480
535.396	1501
535.741	1522
536.085	1541
536.429	1558
536.773	1573
537.117	1586
537.461	1598
537.805	1609
538.149	1622
538.493	1634
538.837	1648
539.181	1664
539.524	1683
539.868	1704
540.212	1727
540.556	1752
540.899	1777
541.243	1800
541.586	1821
541.930	1838
542.273	1852
542.617	1864
542.960	1876
543.304	1892
543.647	1911
543.990	1934
544.333	1960
544.677	1985
545.020	2011
545.363	2033
545.706	2051
546.049	2066
546.392	2076
546.735	2084
547.078	2090
547.421	2097
547.764	2104
548.106	2114
548.449	2126
548.792	2143
549.135	2163
549.477	2187
549.820	2211
550.162	2232
550.505	2250
550.847	2265
551.190	2277
551.532	2288
551.875	2300
552.217	2313
552.559	2328
552.901	2347
553.244	2369
553.586	2392
553.928	2416
554.270	2437
554.612	2457
554.954	2474
555.296	2488
555.638	2504
555.980	2519
556.322	2538
556.663	2562
557.005	2592
557.347	2629
557.689	2667
558.030	2705
558.372	2741
558.713	2775
559.055	2808
559.396	2840
559.738	2873
560.079	2909
560.421	2949
560.762	2994
561.103	3042
561.444	3096
561.786	3151
562.127	3209
562.468	3272
562.809	3341
563.150	3417
563.491	3499
563.832	3589
564.173	3692
564.514	3809
564.855	3949
565.195	4118
565.536	4320
565.877	4552
566.218	4817
566.558	5115
566.899	5442
567.239	5796
567.580	6167
567.920	6549
568.261	6934
568.601	7329
568.941	7739
569.282	8162
569.622	8601
569.962	9059
570.302	9548
570.643	10054
570.983	10564
571.323	11059
571.663	11537
572.003	11993
572.343	12423
572.683	12830
573.022	13246
573.362	13684
573.702	14138
574.042	14593
574.381	15031
574.721	15449
575.061	15852
575.400	16219
575.740	16548
576.079	16842
576.419	17136
576.758	17470
577.097	17859
577.437	18285
577.776	18738
578.115	19213
578.454	19694
578.794	20136
579.133	20483
579.472	20727
579.811	20875
580.150	20935
580.489	20928
580.828	20892
581.167	20862
581.505	20848
581.844	20844
582.183	20838
582.522	20849
582.860	20869
583.199	20888
583.538	20877
583.876	20799
584.215	20636
584.553	20376
584.891	20024
585.230	19588
585.568	19105
585.906	18612
586.245	18168
586.583	17786
586.921	17472
587.259	17187
587.597	16898
587.935	16599
588.273	16290
588.611	16005
588.949	15754
589.287	15547
589.625	15385
589.963	15260
590.300	15161
590.638	15071
590.976	14969
591.313	14847
591.651	14731
591.989	14631
592.326	14552
592.664	14484
593.001	14430
593.338	14399
593.676	14389
594.013	14404
594.350	14465
594.687	14563
595.025	14670
595.362	14770
595.699	14842
596.036	14889
596.373	14906
596.710	14883
597.047	14836
597.384	14775
597.720	14706
598.057	14652
598.394	14615
598.731	14596
599.067	14602
599.404	14635
599.741	14701
600.077	14790
600.414	14891
600.750	14995
601.087	15075
601.423	15115
601.759	15122
602.096	15100
602.432	15061
602.768	14999
603.104	14911
603.440	14799
603.776	14681
604.112	14553
604.448	14423
604.784	14285
605.120	14137
605.456	13994
605.792	13843
606.128	13685
606.463	13521
606.799	13356
607.135	13208
607.470	13060
607.806	12913
608.142	12771
608.477	12634
608.812	12502
609.148	12369
609.483	12228
609.819	12085
610.154	11947
610.489	11822
610.824	11712
611.159	11620
611.494	11527
611.830	11445
612.165	11365
612.500	11274
612.834	11168
613.169	11047
613.504	10915
613.839	10766
614.174	10597
614.509	10427
614.843	10258
615.178	10097
615.512	9937
615.847	9780
616.182	9625
616.516	9468
616.850	9301
617.185	9127
617.519	8951
617.853	8761
618.188	8565
618.522	8386
618.856	8234
619.190	8103
619.524	7988
619.858	7896
620.192	7824
620.526	7760
620.860	7698
621.194	7637
621.528	7578
621.862	7518
622.195	7446
622.529	7369
622.863	7289
623.196	7208
623.530	7126
623.864	7045
624.197	6962
624.530	6882
624.864	6810
625.197	6735
625.531	6649
625.864	6545
626.197	6434
626.530	6313
626.863	6178
627.196	6031
627.529	5882
627.862	5735
628.195	5590
628.528	5446
628.861	5308
629.194	5184
629.527	5066
629.860	4949
630.192	4834
630.525	4727
630.858	4627
631.190	4533
631.523	4441
631.855	4355
632.188	4280
632.520	4211
632.852	4145
633.185	4078
633.517	4013
633.849	3954
634.182	3901
634.514	3849
634.846	3803
635.178	3762
635.510	3727
635.842	3694
636.174	3663
636.506	3631
636.837	3599
637.169	3568
637.501	3536
637.833	3499
638.164	3459
638.496	3413
638.828	3363
639.159	3305
639.491	3243
639.822	3178
640.154	3113
640.485	3050
640.816	2986
641.147	2923
641.479	2863
641.810	2804
642.141	2747
642.472	2691
642.803	2635
643.134	2582
643.465	2537
643.796	2501
644.127	2475
644.458	2462
644.789	2462
645.119	2476
645.450	2499
645.781	2525
646.111	2551
646.442	2574
646.773	2592
647.103	2605
647.433	2617
647.764	2630
648.094	2647
648.425	2668
648.755	2694
649.085	2724
649.415	2756
649.745	2788
650.075	2822
650.405	2860
650.735	2942
651.065	3538
651.395	5386
651.725	8420
652.055	12060
652.385	15695
652.715	19329
653.044	22965
653.374	26606
653.704	30253
654.033	33132
654.363	34984
654.692	36213
655.022	37013
655.351	37538
655.680	37864
656.010	38042
656.339	38122
656.668	38144
656.997	38135
657.326	38103
657.655	38013
657.984	37398
658.313	35522
658.642	32449
658.971	28760
659.300	25071
659.629	21383
659.958	17695
660.286	14008
660.615	10322
660.944	7412
661.272	5532
661.601	4278
661.929	3449
662.258	2891
662.586	2526
662.915	2302
663.243	2174
663.571	2101
663.899	2056
664.228	2029
664.556	2010
664.884	1998
665.212	1988
665.540	1982
665.868	1978
666.196	1976
666.524	1975
666.852	1977
667.179	1985
667.507	2000
667.835	2022
668.162	2052
668.490	2088
668.818	2132
669.145	2177
669.473	2222
669.800	2264
670.127	2301
670.455	2332
670.782	2357
671.109	2380
671.436	2399
671.764	2414
672.091	2427
672.418	2438
672.745	2448
673.072	2457
673.399	2469
673.726	2481
674.053	2490
674.379	2494
674.706	2493
675.033	2492
675.359	2489
675.686	2483
676.013	2481
676.339	2483
676.666	2491
676.992	2510
677.318	2535
677.645	2565
677.971	2592
678.297	2617
678.624	2641
678.950	2664
679.276	2686
679.602	2706
679.928	2729
680.254	2755
680.580	2790
680.906	2834
681.232	2889
681.558	2945
681.883	3001
682.209	3053
682.535	3102
682.860	3146
683.186	3183
683.511	3213
683.837	3231
684.162	3246
684.488	3258
684.813	3270
685.138	3281
685.464	3291
685.789	3300
686.114	3308
686.439	3320
686.764	3331
687.089	3340
687.414	3341
687.739	3331
688.064	3310
688.389	3286
688.714	3256
689.039	3223
689.363	3189
689.688	3152
690.013	3116
690.337	3083
690.662	3057
690.986	3033
691.311	3009
691.635	2984
691.959	2962
692.284	2947
692.608	2943
692.932	2949
693.256	2959
693.580	2971
693.904	2987
694.228	3006
694.552	3024
694.876	3032
695.200	3029
695.524	3017
695.848	2998
696.172	2973
696.495	2948
696.819	2922
697.143	2894
697.466	2867
697.790	2842
698.113	2826
698.437	2819
698.760	2818
699.083	2817
699.407	2809
699.730	2795
700.053	2772
700.376	2741
700.699	2697
701.022	2642
701.345	2582
701.668	2526
701.991	2480
702.314	2448
702.637	2433
702.960	2439
703.283	2465
703.605	2510
703.928	2572
704.251	2640
704.573	2710
704.896	2772
705.218	2822
705.540	2863
705.863	2895
706.185	2922
706.507	2945
706.830	2967
707.152	2990
707.474	3014
707.796	3042
708.118	3071
708.440	3099
708.762	3123
709.084	3143
709.406	3154
709.728	3157
710.049	3151
710.371	3138
710.693	3118
711.014	3096
711.336	3074
711.658	3055
711.979	3037
712.301	3021
712.622	3004
712.943	2983
713.265	2958
713.586	2931
713.907	2907
714.228	2884
714.549	2867
714.870	2855
715.191	2850
715.512	2849
715.833	2845
716.154	2838
716.475	2826
716.796	2808
717.117	2782
717.437	2751
717.758	2717
718.078	2681
718.399	2646
718.719	2616
719.040	2590
719.360	2569
719.681	2555
720.001	2546
720.321	2541
720.642	2540
720.962	2542
721.282	2549
721.602	2557
721.922	2567
722.242	2580
722.562	2597
722.882	2618
723.202	2636
723.521	2654
723.841	2671
724.161	2690
724.481	2708
724.800	2728
725.120	2752
725.439	2781
725.759	2814
726.078	2852
726.398	2898
726.717	2954
727.036	3018
727.355	3085
727.675	3150
727.994	3212
728.313	3272
728.632	3324
728.951	3367
729.270	3404
729.589	3439
729.908	3482
730.226	3531
730.545	3585
730.864	3642
731.182	3705
731.501	3768
731.820	3827
732.138	3879
732.457	3926
732.775	3968
733.093	4002
733.412	4021
733.730	4027
734.048	4019
734.367	4001
734.685	3978
735.003	3951
735.321	3926
735.639	3906
735.957	3891
736.275	3876
736.593	3856
736.910	3823
737.228	3778
737.546	3720
737.863	3652
738.181	3577
738.499	3498
738.816	3421
739.134	3344
739.451	3267
739.768	3189
740.086	3114
740.403	3044
740.720	2980
741.038	2920
741.355	2861
741.672	2803
741.989	2744
742.306	2683
742.623	2620
742.940	2558
743.257	2501
743.573	2451
743.890	2411
744.207	2381
744.523	2359
744.840	2345
745.157	2337
745.473	2336
745.790	2344
746.106	2363
746.422	2391
746.739	2426
747.055	2467
747.371	2515
747.687	2564
748.004	2611
748.320	2651
748.636	2688
748.952	2725
749.268	2763
749.584	2798
749.899	2830
750.215	2863
750.531	2901
750.847	2942
751.162	2985
751.478	3025
751.793	3067
752.109	3112
752.424	3161
752.740	3210
753.055	3266
753.370	3334
753.686	3411
754.001	3495
754.316	3584
754.631	3676
754.946	3776
755.261	3880
755.576	3980
755.891	4076
756.206	4173
756.521	4274
756.836	4377
757.150	4477
757.465	4565
757.780	4639
758.094	4703
758.409	4751
758.723	4782
759.038	4795
759.352	4796
759.667	4782
759.981	4758
760.295	4735
760.609	4717
760.923	4706
761.238	4700
761.552	4696
761.866	4690
762.180	4681
762.493	4655
762.807	4606
763.121	4533
763.435	4439
763.749	4337
764.062	4240
764.376	4161
764.689	4105
765.003	4076
765.316	4072
765.630	4086
765.943	4109
766.257	4137
766.570	4160
766.883	4166
767.196	4156
767.509	4129
767.822	4090
768.135	4039
768.448	3984
768.761	3926
769.074	3876
769.387	3837
769.700	3813
770.013	3799
770.325	3788
770.638	3771
770.950	3740
771.263	3689
771.575	3619
771.888	3530
772.200	3426
772.513	3314
772.825	3195
773.137	3074
773.449	2955
773.761	2840
774.074	2733
774.386	2638
774.698	2558
775.010	2492
775.321	2445
775.633	2415
775.945	2397
776.257	2387
776.568	2384
776.880	2391
777.192	2408
777.503	2434
777.815	2467
778.126	2508
778.438	2559
778.749	2613
779.060	2666
779.372	2715
779.683	2763
779.994	2807
780.305	2841
780.616	2864
780.927	2878
781.238	2882
781.549	2875
781.860	2856
782.171	2830
782.481	2801
782.792	2771
783.103	2741
783.413	2709
783.724	2675
784.034	2643
784.345	2612
784.655	2585
784.966	2557
785.276	2528
785.586	2499
785.896	2470
786.207	2441
786.517	2409
786.827	2378
787.137	2348
787.447	2320
787.757	2292
788.066	2267
788.376	2242
788.686	2217
788.996	2190
789.305	2165
789.615	2145
789.925	2134
790.234	2131
790.544	2135
790.853	2146
791.162	2156
791.472	2165
791.781	2169
792.090	2164
792.399	2151
792.708	2130
793.017	2107
793.326	2085
793.635	2064
793.944	2045
794.253	2029
794.562	2017
794.871	2010
795.179	2005
795.488	1998
795.797	1987
796.105	1969
796.414	1939
796.722	1899
797.031	1848
797.339	1786
797.647	1717
797.956	1645
798.264	1578
798.572	1523
798.880	1479
799.188	1448
799.496	1424
799.804	1407
800.112	1393
800.420	1382
800.728	1371
801.035	1356
801.343	1339
801.651	1326
801.958	1322
802.266	1328
802.573	1338
802.881	1353
803.188	1370
803.496	1390
803.803	1409
804.110	1427
804.417	1444
804.724	1458
805.032	1471
805.339	1482
805.646	1489
805.953	1493
806.259	1494
806.566	1491
806.873	1485
807.180	1478
807.486	1470
807.793	1460
808.100	1446
808.406	1421
808.713	1388
809.019	1351
809.326	1312
809.632	1275
809.938	1241
810.244	1210
810.551	1183
810.857	1161
811.163	1141
811.469	1120
811.775	1099
812.081	1077
812.387	1056
812.692	1039
812.998	1027
813.304	1017
813.610	1009
813.915	1002
814.221	997
814.526	991
814.832	987
815.137	983
815.443	976
815.748	966
816.053	953
816.358	939
816.664	927
816.969	917
817.274	907
817.579	899
817.884	895
818.189	893
818.493	892
818.798	890
819.103	884
819.408	875
819.712	865
820.017	854
820.321	841
820.626	830
820.930	819
821.235	812
821.539	809
821.843	808
822.148	810
822.452	811
822.756	811
823.060	808
823.364	802
823.668	795
823.972	786
824.276	778
824.580	771
824.883	767
825.187	765
825.491	764
825.795	764
826.098	765
826.402	763
826.705	760
827.008	755
827.312	747
827.615	734
827.918	719
828.222	702
828.525	684
828.828	668
829.131	651
829.434	634
829.737	618
830.040	606
830.343	596
830.645	587
830.948	578
831.251	569
831.553	562
831.856	556
832.159	550
832.461	542
832.764	534
833.066	527
833.368	521
833.671	516
833.973	512
834.275	508
834.577	505
834.879	501
835.181	495
835.483	490
835.785	483
836.087	474
836.389	464
836.690	452
836.992	439
837.294	426
837.595	412
837.897	397
838.198	383
838.500	370
838.801	358
839.103	348
839.404	339
839.705	331
840.006	325
840.307	320
840.608	316
840.910	314
841.210	312
841.511	310
841.812	306
842.113	303
842.414	298
842.715	293
843.015	287
843.316	280
843.616	275
843.917	270
844.217	265
844.518	261
844.818	257
845.118	255
845.419	253
845.719	252
846.019	251
846.319	250
846.619	249
846.919	248
847.219	246
847.519	244
847.819	243
848.118	244
848.418	247
848.718	254
849.017	266
849.317	284
849.616	305
849.916	329
850.215	356
850.515	385
850.814	414
851.113	440
851.412	464
851.712	485
852.011	505
852.310	524
852.609	540
852.908	554
853.206	567
853.505	579
853.804	590
854.103	599
854.401	605
854.700	607
854.999	605
855.297	598
855.595	585
855.894	568
856.192	548
856.491	524
856.789	498
857.087	472
857.385	447
857.683	425
857.981	404
858.279	386
858.577	368
858.875	352
859.173	340
859.471	329
859.768	321
860.066	313
860.363	307
860.661	302
860.959	298
861.256	294
861.553	289
861.851	284
862.148	278
862.445	272
862.742	267
863.039	262
863.337	258
863.634	256
863.931	253
864.227	252
864.524	251
864.821	251
865.118	250
865.415	248
865.711	245
866.008	241
866.304	237
866.601	232
866.897	228
867.194	225
867.490	223
867.786	222
868.082	221
868.379	222
868.675	223
868.971	223
869.267	223
869.563	223
869.859	222
870.154	221
870.450	220
870.746	219
871.042	218
871.337	218
871.633	218
871.928	219
872.224	221
872.519	223
872.815	224
873.110	225
873.405	224
873.700	224
873.995	223
874.291	223
874.586	224
874.881	225
875.175	227
875.470	231
875.765	235
876.060	239
876.355	244
876.649	249
876.944	254
877.238	258
877.533	262
877.827	265
878.122	267
878.416	268
878.710	268
879.005	267
879.299	266
879.593	265
879.887	264
880.181	262
880.475	261
880.769	259
881.063	257
881.356	254
881.650	250
881.944	247
882.238	207
882.531	190
882.825	196
883.118	198
883.412	198
883.705	197
883.998	202
884.291	208
884.585	212
884.878	217
>>>>>>>>>> END of Data <<<<<<<<<<