Date	2021年06月15日火曜日 04時44分27秒
Spectrometers	USB2+H05879
ダーク	使用
リファレンス	使用
積分時間[msec]	10
平均回数	280
ｽﾑｰｼﾞﾝｸﾞ	10
Electrical Dark	USE
ピクセル数	2048
計測モード	吸光度
保存開始波長[nm]	190.664
保存終了波長[nm]	884.878
保存ﾋﾟｯﾁ波長[nm]	全波長

>>>>>>>>>> Data Start <<<<<<<<<<<<
190.664	0.000000
191.040	0.000000
191.415	0.000000
191.791	-2.210688
192.166	-0.639134
192.542	-0.935105
192.917	0.000000
193.293	-0.350255
193.668	-0.560156
194.044	-0.909970
194.419	0.000000
194.794	-1.385461
195.170	-1.310753
195.545	-1.225768
195.920	-1.099618
196.296	-0.973644
196.671	-0.817857
197.046	-0.664433
197.421	-0.616117
197.796	-0.605216
198.171	-0.569322
198.546	-0.523244
198.922	-0.472092
199.297	-0.444828
199.672	-0.423402
200.047	-0.398782
200.422	-0.359773
200.796	-0.351231
201.171	-0.333178
201.546	-0.333929
201.921	-0.317133
202.296	-0.305050
202.671	-0.279817
203.045	-0.249999
203.420	-0.238152
203.795	-0.224471
204.170	-0.219147
204.544	-0.218332
204.919	-0.218776
205.294	-0.219716
205.668	-0.207538
206.043	-0.194213
206.417	-0.189989
206.792	-0.182586
207.166	-0.179270
207.541	-0.167622
207.915	-0.172501
208.289	-0.161868
208.664	-0.156712
209.038	-0.156251
209.412	-0.135235
209.787	-0.121512
210.161	-0.111382
210.535	-0.116681
210.909	-0.106546
211.284	-0.095232
211.658	-0.100171
212.032	-0.102180
212.406	-0.094214
212.780	-0.091483
213.154	-0.086880
213.528	-0.086862
213.902	-0.087133
214.276	-0.085020
214.650	-0.089770
215.024	-0.090602
215.398	-0.089577
215.772	-0.078687
216.145	-0.081233
216.519	-0.076304
216.893	-0.068854
217.267	-0.081251
217.640	-0.094073
218.014	-0.081699
218.388	-0.071413
218.761	-0.081321
219.135	-0.072030
219.508	-0.075904
219.882	-0.076541
220.256	-0.068801
220.629	-0.061575
221.003	-0.062460
221.376	-0.059309
221.749	-0.059263
222.123	-0.065968
222.496	-0.064967
222.869	-0.059007
223.243	-0.058073
223.616	-0.062162
223.989	-0.065437
224.362	-0.060185
224.736	-0.061563
225.109	-0.055247
225.482	-0.057408
225.855	-0.066101
226.228	-0.070192
226.601	-0.071516
226.974	-0.077486
227.347	-0.061601
227.720	-0.061549
228.093	-0.071655
228.466	-0.075024
228.839	-0.064354
229.212	-0.074220
229.585	-0.088665
229.957	-0.081447
230.330	-0.075346
230.703	-0.070446
231.076	-0.080791
231.448	-0.086106
231.821	-0.083985
232.194	-0.089705
232.566	-0.090386
232.939	-0.093154
233.311	-0.089703
233.684	-0.086106
234.056	-0.087778
234.429	-0.083287
234.801	-0.088025
235.174	-0.086505
235.546	-0.090065
235.918	-0.091018
236.291	-0.088374
236.663	-0.089519
237.035	-0.085100
237.408	-0.070459
237.780	-0.061310
238.152	-0.065726
238.524	-0.073264
238.896	-0.061284
239.268	-0.056970
239.641	-0.059490
240.013	-0.052581
240.385	-0.049873
240.757	-0.047201
241.129	-0.046385
241.500	-0.047209
241.872	-0.038956
242.244	-0.038418
242.616	-0.031600
242.988	-0.033707
243.360	-0.021966
243.731	-0.008522
244.103	-0.010677
244.475	-0.007816
244.847	0.002440
245.218	0.005415
245.590	0.011512
245.961	0.014915
246.333	0.018723
246.705	0.014224
247.076	0.026097
247.448	0.034429
247.819	0.029824
248.190	0.037018
248.562	0.032707
248.933	0.040611
249.305	0.045014
249.676	0.044969
250.047	0.039516
250.418	0.035063
250.790	0.034795
251.161	0.034189
251.532	0.028420
251.903	0.033368
252.274	0.036136
252.645	0.036931
253.016	0.024668
253.387	0.012720
253.758	0.015853
254.129	0.017219
254.500	0.021775
254.871	0.015556
255.242	0.010427
255.613	0.013075
255.984	0.003508
256.355	0.006702
256.725	0.001327
257.096	-0.002789
257.467	-0.004047
257.838	0.000868
258.208	0.003004
258.579	0.002317
258.949	-0.001828
259.320	0.006228
259.690	0.006825
260.061	0.006881
260.431	0.013714
260.802	0.022446
261.172	0.022196
261.543	0.024322
261.913	0.026552
262.283	0.024023
262.654	0.024233
263.024	0.025816
263.394	0.028903
263.764	0.034635
264.135	0.036071
264.505	0.042047
264.875	0.049231
265.245	0.050221
265.615	0.049799
265.985	0.052135
266.355	0.058448
266.725	0.053922
267.095	0.050839
267.465	0.051361
267.835	0.047589
268.205	0.033773
268.575	0.034396
268.944	0.033036
269.314	0.029746
269.684	0.031982
270.054	0.021290
270.423	0.025022
270.793	0.025081
271.163	0.025849
271.532	0.022591
271.902	0.028600
272.271	0.029372
272.641	0.025794
273.010	0.024021
273.380	0.021759
273.749	0.021234
274.119	0.024204
274.488	0.039455
274.857	0.038000
275.227	0.042230
275.596	0.039165
275.965	0.045508
276.335	0.046351
276.704	0.047421
277.073	0.049816
277.442	0.050208
277.811	0.064257
278.180	0.064243
278.549	0.064106
278.918	0.059428
279.287	0.069486
279.656	0.061272
280.025	0.054239
280.394	0.051379
280.763	0.055003
281.132	0.061256
281.501	0.065086
281.869	0.060471
282.238	0.053672
282.607	0.051820
282.976	0.046062
283.344	0.053440
283.713	0.046427
284.081	0.044403
284.450	0.047902
284.819	0.048239
285.187	0.051834
285.556	0.054429
285.924	0.053959
286.292	0.051547
286.661	0.055461
287.029	0.046320
287.398	0.050045
287.766	0.046254
288.134	0.051451
288.502	0.049412
288.871	0.052572
289.239	0.053771
289.607	0.060828
289.975	0.059178
290.343	0.062069
290.711	0.060471
291.079	0.058271
291.447	0.067793
291.815	0.070892
292.183	0.073763
292.551	0.073149
292.919	0.075195
293.287	0.073353
293.655	0.071752
294.022	0.075380
294.390	0.079979
294.758	0.083148
295.126	0.084611
295.493	0.094646
295.861	0.097575
296.229	0.098671
296.596	0.100801
296.964	0.103877
297.331	0.099757
297.699	0.103038
298.066	0.110240
298.434	0.119187
298.801	0.122099
299.168	0.118478
299.536	0.117421
299.903	0.110577
300.270	0.112856
300.638	0.115946
301.005	0.122932
301.372	0.125675
301.739	0.135926
302.106	0.137304
302.473	0.148698
302.840	0.159600
303.207	0.178387
303.574	0.193909
303.941	0.208750
304.308	0.220835
304.675	0.232684
305.042	0.253020
305.409	0.276134
305.776	0.288751
306.143	0.309523
306.509	0.331428
306.876	0.359096
307.243	0.384232
307.610	0.420153
307.976	0.448871
308.343	0.477730
308.709	0.504934
309.076	0.543148
309.442	0.567301
309.809	0.594403
310.175	0.622615
310.542	0.650997
310.908	0.669056
311.275	0.692780
311.641	0.726347
312.007	0.755902
312.373	0.784383
312.740	0.809794
313.106	0.836670
313.472	0.873619
313.838	0.901535
314.204	0.922912
314.570	0.941851
314.936	0.968699
315.302	0.989654
315.668	1.013854
316.034	1.037434
316.400	1.069576
316.766	1.088349
317.132	1.114040
317.498	1.143817
317.864	1.160306
318.230	1.178555
318.595	1.202656
318.961	1.219700
319.327	1.240437
319.692	1.257642
320.058	1.274652
320.424	1.293235
320.789	1.309008
321.155	1.322893
321.520	1.340398
321.886	1.366932
322.251	1.388612
322.616	1.403002
322.982	1.418665
323.347	1.429767
323.712	1.449596
324.078	1.462581
324.443	1.479131
324.808	1.489505
325.173	1.497578
325.539	1.511866
325.904	1.522931
326.269	1.534528
326.634	1.547525
326.999	1.551979
327.364	1.560831
327.729	1.567948
328.094	1.573735
328.459	1.582702
328.823	1.587677
329.188	1.595355
329.553	1.599061
329.918	1.604474
330.283	1.612181
330.647	1.621703
331.012	1.627014
331.377	1.628103
331.741	1.628695
332.106	1.634623
332.470	1.642113
332.835	1.647269
333.199	1.650906
333.564	1.658366
333.928	1.661948
334.293	1.664902
334.657	1.667273
335.021	1.672865
335.386	1.677657
335.750	1.679750
336.114	1.681474
336.478	1.685209
336.843	1.687629
337.207	1.689426
337.571	1.694034
337.935	1.696867
338.299	1.695606
338.663	1.697125
339.027	1.699450
339.391	1.701597
339.755	1.701950
340.119	1.701743
340.483	1.703029
340.846	1.706709
341.210	1.707383
341.574	1.708574
341.938	1.708806
342.301	1.711238
342.665	1.712384
343.029	1.714444
343.392	1.716608
343.756	1.717616
344.119	1.719089
344.483	1.720071
344.846	1.721514
345.210	1.724723
345.573	1.726332
345.937	1.728027
346.300	1.731000
346.663	1.730075
347.027	1.733783
347.390	1.732986
347.753	1.734282
348.116	1.735053
348.479	1.735526
348.843	1.734317
349.206	1.735094
349.569	1.736832
349.932	1.738437
350.295	1.739999
350.658	1.741383
351.021	1.743258
351.383	1.744918
351.746	1.745408
352.109	1.746308
352.472	1.748262
352.835	1.748162
353.197	1.750679
353.560	1.752478
353.923	1.751244
354.285	1.753061
354.648	1.751573
355.011	1.752748
355.373	1.755262
355.736	1.755350
356.098	1.755148
356.461	1.758276
356.823	1.759991
357.185	1.762328
357.548	1.763928
357.910	1.763837
358.272	1.761840
358.635	1.760852
358.997	1.760461
359.359	1.763758
359.721	1.763888
360.083	1.765342
360.445	1.765292
360.807	1.764748
361.169	1.764687
361.531	1.767411
361.893	1.769456
362.255	1.771591
362.617	1.773061
362.979	1.773063
363.341	1.773876
363.703	1.775786
364.064	1.776850
364.426	1.777913
364.788	1.777897
365.149	1.778712
365.511	1.778395
365.873	1.781427
366.234	1.782494
366.596	1.784678
366.957	1.783724
367.319	1.786220
367.680	1.785127
368.042	1.785307
368.403	1.786599
368.764	1.789368
369.126	1.790302
369.487	1.791284
369.848	1.791456
370.209	1.793419
370.570	1.794400
370.931	1.795466
371.293	1.796851
371.654	1.796381
372.015	1.796834
372.376	1.797608
372.737	1.797775
373.098	1.799370
373.458	1.801065
373.819	1.803424
374.180	1.805149
374.541	1.807287
374.902	1.807821
375.263	1.809799
375.623	1.810664
375.984	1.812620
376.345	1.812772
376.705	1.815469
377.066	1.817667
377.426	1.818701
377.787	1.818836
378.147	1.819904
378.508	1.821402
378.868	1.822198
379.228	1.822929
379.589	1.823584
379.949	1.824388
380.309	1.827364
380.670	1.829683
381.030	1.827854
381.390	1.829304
381.750	1.829068
382.110	1.827779
382.470	1.828244
382.830	1.829179
383.190	1.832455
383.550	1.831571
383.910	1.832670
384.270	1.832638
384.630	1.834401
384.990	1.836083
385.350	1.836876
385.709	1.836965
386.069	1.839907
386.429	1.839571
386.788	1.843006
387.148	1.843843
387.508	1.845539
387.867	1.843071
388.227	1.843457
388.586	1.846069
388.946	1.846789
389.305	1.848414
389.665	1.850825
390.024	1.851889
390.383	1.852307
390.743	1.850744
391.102	1.851844
391.461	1.852858
391.820	1.853362
392.179	1.851408
392.539	1.850669
392.898	1.852434
393.257	1.853745
393.616	1.854165
393.975	1.856009
394.334	1.855317
394.693	1.857592
395.051	1.859143
395.410	1.862287
395.769	1.864535
396.128	1.866544
396.487	1.867452
396.845	1.867427
397.204	1.866215
397.563	1.864661
397.921	1.864797
398.280	1.865492
398.638	1.864156
398.997	1.863635
399.355	1.862805
399.714	1.864144
400.072	1.864413
400.431	1.862390
400.789	1.861528
401.147	1.860751
401.506	1.859149
401.864	1.858879
402.222	1.857142
402.580	1.854294
402.938	1.853160
403.297	1.850058
403.655	1.848486
404.013	1.847162
404.371	1.845821
404.729	1.845372
405.087	1.846217
405.444	1.844289
405.802	1.842883
406.160	1.843348
406.518	1.841568
406.876	1.840019
407.233	1.838673
407.591	1.838255
407.949	1.839142
408.306	1.839013
408.664	1.837632
409.022	1.838112
409.379	1.837481
409.737	1.835780
410.094	1.835161
410.451	1.834802
410.809	1.834003
411.166	1.831309
411.523	1.831236
411.881	1.831914
412.238	1.831483
412.595	1.829679
412.952	1.830416
413.310	1.829262
413.667	1.828567
414.024	1.830184
414.381	1.830211
414.738	1.827508
415.095	1.825065
415.452	1.823512
415.809	1.820888
416.165	1.819073
416.522	1.817244
416.879	1.815212
417.236	1.813210
417.593	1.811676
417.949	1.808761
418.306	1.807250
418.663	1.808511
419.019	1.805716
419.376	1.803556
419.732	1.801871
420.089	1.800795
420.445	1.799566
420.802	1.798971
421.158	1.796038
421.514	1.792589
421.871	1.790035
422.227	1.788634
422.583	1.788393
422.939	1.785041
423.295	1.783733
423.652	1.782628
424.008	1.779724
424.364	1.777488
424.720	1.777300
425.076	1.776043
425.432	1.774954
425.788	1.774116
426.143	1.771158
426.499	1.769965
426.855	1.767772
427.211	1.766493
427.567	1.763664
427.922	1.761984
428.278	1.758434
428.634	1.757954
428.989	1.756333
429.345	1.754568
429.700	1.752310
430.056	1.749583
430.411	1.749655
430.767	1.747881
431.122	1.745760
431.478	1.742976
431.833	1.740174
432.188	1.735958
432.543	1.732933
432.899	1.729027
433.254	1.725140
433.609	1.721536
433.964	1.717675
434.319	1.713395
434.674	1.709319
435.029	1.706935
435.384	1.703378
435.739	1.700591
436.094	1.697094
436.449	1.694493
436.804	1.691182
437.158	1.688300
437.513	1.685367
437.868	1.680463
438.223	1.676432
438.577	1.671694
438.932	1.669704
439.287	1.667227
439.641	1.664324
439.996	1.660035
440.350	1.657042
440.704	1.654583
441.059	1.650702
441.413	1.647487
441.768	1.644335
442.122	1.641377
442.476	1.637146
442.830	1.633341
443.185	1.630382
443.539	1.626192
443.893	1.622062
444.247	1.617914
444.601	1.614904
444.955	1.610282
445.309	1.606383
445.663	1.602270
446.017	1.598805
446.371	1.594117
446.724	1.588870
447.078	1.584542
447.432	1.581121
447.786	1.576067
448.139	1.570445
448.493	1.566346
448.847	1.561262
449.200	1.556401
449.554	1.551609
449.907	1.547585
450.261	1.541929
450.614	1.537067
450.968	1.532169
451.321	1.526489
451.674	1.521490
452.027	1.515686
452.381	1.511300
452.734	1.506540
453.087	1.501629
453.440	1.495803
453.793	1.490279
454.146	1.485871
454.499	1.480755
454.852	1.474874
455.205	1.469783
455.558	1.465136
455.911	1.460059
456.264	1.455617
456.617	1.451347
456.970	1.446422
457.322	1.441460
457.675	1.437876
458.028	1.433257
458.380	1.429179
458.733	1.425148
459.086	1.421061
459.438	1.417014
459.791	1.412308
460.143	1.408235
460.496	1.404264
460.848	1.400227
461.200	1.396074
461.553	1.391289
461.905	1.387180
462.257	1.383318
462.609	1.379510
462.961	1.375614
463.314	1.371551
463.666	1.367042
464.018	1.362522
464.370	1.358944
464.722	1.354749
465.074	1.350069
465.426	1.346087
465.777	1.342124
466.129	1.338563
466.481	1.334964
466.833	1.331257
467.184	1.327961
467.536	1.324042
467.888	1.320182
468.239	1.316346
468.591	1.312292
468.943	1.307975
469.294	1.303552
469.646	1.298948
469.997	1.294362
470.348	1.289498
470.700	1.285359
471.051	1.281977
471.402	1.278316
471.754	1.274295
472.105	1.270807
472.456	1.267614
472.807	1.264246
473.158	1.261114
473.509	1.257873
473.860	1.254652
474.211	1.251224
474.562	1.247949
474.913	1.244614
475.264	1.241204
475.615	1.238166
475.966	1.235367
476.316	1.232180
476.667	1.229100
477.018	1.226419
477.368	1.223364
477.719	1.220326
478.070	1.217297
478.420	1.214061
478.771	1.211108
479.121	1.208156
479.472	1.205104
479.822	1.202060
480.172	1.199243
480.523	1.195957
480.873	1.192709
481.223	1.188692
481.573	1.184963
481.924	1.181230
482.274	1.177769
482.624	1.174673
482.974	1.171829
483.324	1.169220
483.674	1.167258
484.024	1.165181
484.374	1.163156
484.724	1.161201
485.073	1.159265
485.423	1.157372
485.773	1.155357
486.123	1.153384
486.472	1.151227
486.822	1.149215
487.172	1.147228
487.521	1.145038
487.871	1.143003
488.220	1.140882
488.570	1.138740
488.919	1.135991
489.268	1.132763
489.618	1.129337
489.967	1.125114
490.316	1.120396
490.666	1.115625
491.015	1.110941
491.364	1.106756
491.713	1.102739
492.062	1.099229
492.411	1.095914
492.760	1.092406
493.109	1.089082
493.458	1.085774
493.807	1.082795
494.156	1.079678
494.505	1.076426
494.853	1.073290
495.202	1.070086
495.551	1.066842
495.900	1.063632
496.248	1.060523
496.597	1.057126
496.945	1.053837
497.294	1.050826
497.642	1.047591
497.991	1.044327
498.339	1.041070
498.688	1.037952
499.036	1.035074
499.384	1.032083
499.732	1.029140
500.081	1.026299
500.429	1.023309
500.777	1.020347
501.125	1.017418
501.473	1.014541
501.821	1.011811
502.169	1.009067
502.517	1.006282
502.865	1.003488
503.213	1.000649
503.561	0.997932
503.908	0.995470
504.256	0.992708
504.604	0.989925
504.952	0.987385
505.299	0.984761
505.647	0.982231
505.994	0.979570
506.342	0.976785
506.689	0.974093
507.037	0.971331
507.384	0.968625
507.732	0.966061
508.079	0.963522
508.426	0.961000
508.774	0.958468
509.121	0.955996
509.468	0.953563
509.815	0.951234
510.162	0.948922
510.509	0.946629
510.856	0.944140
511.203	0.941824
511.550	0.939528
511.897	0.937267
512.244	0.934948
512.591	0.932498
512.938	0.930090
513.284	0.927811
513.631	0.925529
513.978	0.923185
514.324	0.920949
514.671	0.918753
515.018	0.916419
515.364	0.914048
515.711	0.911720
516.057	0.909256
516.403	0.906802
516.750	0.904516
517.096	0.902328
517.443	0.899939
517.789	0.897704
518.135	0.895570
518.481	0.893337
518.827	0.891221
519.173	0.888999
519.519	0.886795
519.865	0.884790
520.211	0.882764
520.557	0.880429
520.903	0.878199
521.249	0.876003
521.595	0.873810
521.941	0.871384
522.287	0.869148
522.632	0.866942
522.978	0.864744
523.324	0.862743
523.669	0.860571
524.015	0.858176
524.360	0.855699
524.706	0.853498
525.051	0.851309
525.397	0.848975
525.742	0.846737
526.087	0.844498
526.433	0.842480
526.778	0.840460
527.123	0.838412
527.468	0.836150
527.813	0.834108
528.158	0.831900
528.504	0.829631
528.849	0.827144
529.193	0.824909
529.538	0.822651
529.883	0.820183
530.228	0.817505
530.573	0.815000
530.918	0.812529
531.263	0.810218
531.607	0.807995
531.952	0.805689
532.296	0.803346
532.641	0.801125
532.986	0.798715
533.330	0.796219
533.675	0.793747
534.019	0.791121
534.363	0.788505
534.708	0.785913
535.052	0.783378
535.396	0.780894
535.741	0.778476
536.085	0.776015
536.429	0.773346
536.773	0.770622
537.117	0.767992
537.461	0.765276
537.805	0.762324
538.149	0.759415
538.493	0.756332
538.837	0.753340
539.181	0.750249
539.524	0.747107
539.868	0.743997
540.212	0.740899
540.556	0.737743
540.899	0.734653
541.243	0.731673
541.586	0.728570
541.930	0.725536
542.273	0.722405
542.617	0.719171
542.960	0.715818
543.304	0.712435
543.647	0.708981
543.990	0.705477
544.333	0.701867
544.677	0.698362
545.020	0.694897
545.363	0.691320
545.706	0.687873
546.049	0.684337
546.392	0.680936
546.735	0.677342
547.078	0.673732
547.421	0.670040
547.764	0.666391
548.106	0.662395
548.449	0.658365
548.792	0.654322
549.135	0.650289
549.477	0.646188
549.820	0.642342
550.162	0.638514
550.505	0.634570
550.847	0.630588
551.190	0.626386
551.532	0.622113
551.875	0.617680
552.217	0.613162
552.559	0.608771
552.901	0.604379
553.244	0.600082
553.586	0.595772
553.928	0.591693
554.270	0.587667
554.612	0.583728
554.954	0.579650
555.296	0.575671
555.638	0.571488
555.980	0.567163
556.322	0.562545
556.663	0.557756
557.005	0.552849
557.347	0.548060
557.689	0.543394
558.030	0.538778
558.372	0.534257
558.713	0.529752
559.055	0.525244
559.396	0.520716
559.738	0.516079
560.079	0.511461
560.421	0.506792
560.762	0.502260
561.103	0.497856
561.444	0.493521
561.786	0.489125
562.127	0.484866
562.468	0.480462
562.809	0.476105
563.150	0.471579
563.491	0.466973
563.832	0.462321
564.173	0.457462
564.514	0.452416
564.855	0.447256
565.195	0.442023
565.536	0.436776
565.877	0.431616
566.218	0.426602
566.558	0.421675
566.899	0.416953
567.239	0.412488
567.580	0.408326
567.920	0.404480
568.261	0.400902
568.601	0.397469
568.941	0.394228
569.282	0.391137
569.622	0.388113
569.962	0.385031
570.302	0.382002
570.643	0.379100
570.983	0.376273
571.323	0.373598
571.663	0.371001
572.003	0.368416
572.343	0.365853
572.683	0.363181
573.022	0.360393
573.362	0.357472
573.702	0.354516
574.042	0.351642
574.381	0.348794
574.721	0.346017
575.061	0.343359
575.400	0.340853
575.740	0.338408
576.079	0.335997
576.419	0.333498
576.758	0.330905
577.097	0.328222
577.437	0.325451
577.776	0.322630
578.115	0.319863
578.454	0.317223
578.794	0.314835
579.133	0.312706
579.472	0.310761
579.811	0.308942
580.150	0.307159
580.489	0.305337
580.828	0.303385
581.167	0.301337
581.505	0.299303
581.844	0.297257
582.183	0.295209
582.522	0.293217
582.860	0.291278
583.199	0.289436
583.538	0.287675
583.876	0.285961
584.215	0.284270
584.553	0.282571
584.891	0.280872
585.230	0.279165
585.568	0.277353
585.906	0.275483
586.245	0.273617
586.583	0.271820
586.921	0.270190
587.259	0.268695
587.597	0.267285
587.935	0.265874
588.273	0.264345
588.611	0.262596
588.949	0.260794
589.287	0.258909
589.625	0.256974
589.963	0.255166
590.300	0.253409
590.638	0.251760
590.976	0.250157
591.313	0.248557
591.651	0.246911
591.989	0.245315
592.326	0.243770
592.664	0.242382
593.001	0.241024
593.338	0.239774
593.676	0.238611
594.013	0.237469
594.350	0.236329
594.687	0.235268
595.025	0.234258
595.362	0.233205
595.699	0.232165
596.036	0.231091
596.373	0.230003
596.710	0.228882
597.047	0.227717
597.384	0.226546
597.720	0.225379
598.057	0.224181
598.394	0.222993
598.731	0.221861
599.067	0.220719
599.404	0.219570
599.741	0.218462
600.077	0.217400
600.414	0.216418
600.750	0.215519
601.087	0.214664
601.423	0.213834
601.759	0.212952
602.096	0.212036
602.432	0.211196
602.768	0.210309
603.104	0.209407
603.440	0.208520
603.776	0.207686
604.112	0.206845
604.448	0.206055
604.784	0.205280
605.120	0.204539
605.456	0.203805
605.792	0.203066
606.128	0.202329
606.463	0.201618
606.799	0.200854
607.135	0.200107
607.470	0.199368
607.806	0.198578
608.142	0.197799
608.477	0.197050
608.812	0.196324
609.148	0.195658
609.483	0.194940
609.819	0.194226
610.154	0.193517
610.489	0.192759
610.824	0.191987
611.159	0.191278
611.494	0.190509
611.830	0.189823
612.165	0.189213
612.500	0.188640
612.834	0.188098
613.169	0.187542
613.504	0.186923
613.839	0.186312
614.174	0.185696
614.509	0.185047
614.843	0.184419
615.178	0.183838
615.512	0.183286
615.847	0.182705
616.182	0.182169
616.516	0.181696
616.850	0.181204
617.185	0.180685
617.519	0.180175
617.853	0.179685
618.188	0.179076
618.522	0.178502
618.856	0.177857
619.190	0.177155
619.524	0.176483
619.858	0.175793
620.192	0.175204
620.526	0.174660
620.860	0.174169
621.194	0.173655
621.528	0.173137
621.862	0.172638
622.195	0.172189
622.529	0.171617
622.863	0.171106
623.196	0.170518
623.530	0.169991
623.864	0.169514
624.197	0.169065
624.530	0.168592
624.864	0.168163
625.197	0.167772
625.531	0.167365
625.864	0.166912
626.197	0.166498
626.530	0.166040
626.863	0.165580
627.196	0.165006
627.529	0.164484
627.862	0.163917
628.195	0.163390
628.528	0.162864
628.861	0.162331
629.194	0.161790
629.527	0.161305
629.860	0.160869
630.192	0.160411
630.525	0.159855
630.858	0.159329
631.190	0.158754
631.523	0.158175
631.855	0.157527
632.188	0.156905
632.520	0.156349
632.852	0.155854
633.185	0.155313
633.517	0.154837
633.849	0.154379
634.182	0.153990
634.514	0.153596
634.846	0.153241
635.178	0.152886
635.510	0.152524
635.842	0.152154
636.174	0.151779
636.506	0.151465
636.837	0.151073
637.169	0.150749
637.501	0.150377
637.833	0.150116
638.164	0.149783
638.496	0.149461
638.828	0.149088
639.159	0.148686
639.491	0.148250
639.822	0.147741
640.154	0.147223
640.485	0.146578
640.816	0.145945
641.147	0.145404
641.479	0.144753
641.810	0.144145
642.141	0.143525
642.472	0.142985
642.803	0.142447
643.134	0.141883
643.465	0.141351
643.796	0.140865
644.127	0.140386
644.458	0.139989
644.789	0.139536
645.119	0.139306
645.450	0.139144
645.781	0.139176
646.111	0.139316
646.442	0.139320
646.773	0.139279
647.103	0.139198
647.433	0.139175
647.764	0.139066
648.094	0.138915
648.425	0.138837
648.755	0.138836
649.085	0.138740
649.415	0.138670
649.745	0.138687
650.075	0.138654
650.405	0.138529
650.735	0.136948
651.065	0.127865
651.395	0.119682
651.725	0.106786
652.055	0.073006
652.385	0.054057
652.715	0.041899
653.044	0.033445
653.374	0.027261
653.704	0.022552
654.033	0.031405
654.363	0.037566
654.692	0.041157
655.022	0.043285
655.351	0.044577
655.680	0.045332
656.010	0.045739
656.339	0.045913
656.668	0.045946
656.997	0.045903
657.326	0.045814
657.655	0.045699
657.984	0.045068
658.313	0.041778
658.642	0.037648
658.971	0.043551
659.300	0.051103
659.629	0.061121
659.958	0.075026
660.286	0.095659
660.615	0.129516
660.944	0.133116
661.272	0.131586
661.601	0.130530
661.929	0.129907
662.258	0.129717
662.586	0.129606
662.915	0.129386
663.243	0.128948
663.571	0.128452
663.899	0.128027
664.228	0.127667
664.556	0.127374
664.884	0.127134
665.212	0.126811
665.540	0.126588
665.868	0.126511
666.196	0.126355
666.524	0.126178
666.852	0.126057
667.179	0.125866
667.507	0.125623
667.835	0.125436
668.162	0.125308
668.490	0.125214
668.818	0.125194
669.145	0.125119
669.473	0.125132
669.800	0.125174
670.127	0.125263
670.455	0.125329
670.782	0.125384
671.109	0.125307
671.436	0.125302
671.764	0.125325
672.091	0.125400
672.418	0.125350
672.745	0.125268
673.072	0.125230
673.399	0.125079
673.726	0.124955
674.053	0.124884
674.379	0.124855
674.706	0.124746
675.033	0.124522
675.359	0.124306
675.686	0.124095
676.013	0.123916
676.339	0.123676
676.666	0.123420
676.992	0.123182
677.318	0.122945
677.645	0.122784
677.971	0.122666
678.297	0.122602
678.624	0.122536
678.950	0.122320
679.276	0.122244
679.602	0.121996
679.928	0.121790
680.254	0.121575
680.580	0.121342
680.906	0.121085
681.232	0.120892
681.558	0.120882
681.883	0.120903
682.209	0.120923
682.535	0.120898
682.860	0.120841
683.186	0.120832
683.511	0.120720
683.837	0.120586
684.162	0.120542
684.488	0.120380
684.813	0.120240
685.138	0.120012
685.464	0.119844
685.789	0.119669
686.114	0.119515
686.439	0.119377
686.764	0.119302
687.089	0.119224
687.414	0.119176
687.739	0.119152
688.064	0.119052
688.389	0.118868
688.714	0.118638
689.039	0.118372
689.363	0.118143
689.688	0.117909
690.013	0.117622
690.337	0.117410
690.662	0.117252
690.986	0.117081
691.311	0.116938
691.635	0.116790
691.959	0.116667
692.284	0.116352
692.608	0.116063
692.932	0.115815
693.256	0.115765
693.580	0.115660
693.904	0.115550
694.228	0.115468
694.552	0.115430
694.876	0.115421
695.200	0.115285
695.524	0.115099
695.848	0.114930
696.172	0.114653
696.495	0.114388
696.819	0.114127
697.143	0.113783
697.466	0.113424
697.790	0.113015
698.113	0.112643
698.437	0.112315
698.760	0.111986
699.083	0.111879
699.407	0.111771
699.730	0.111579
700.053	0.111408
700.376	0.111134
700.699	0.110804
701.022	0.110371
701.345	0.109808
701.668	0.109075
701.991	0.108426
702.314	0.107696
702.637	0.107026
702.960	0.106384
703.283	0.105818
703.605	0.105350
703.928	0.105008
704.251	0.104860
704.573	0.104763
704.896	0.104666
705.218	0.104518
705.540	0.104306
705.863	0.103922
706.185	0.103555
706.507	0.103045
706.830	0.102462
707.152	0.101910
707.474	0.101399
707.796	0.100964
708.118	0.100485
708.440	0.100217
708.762	0.099933
709.084	0.099691
709.406	0.099393
709.728	0.099207
710.049	0.098967
710.371	0.098686
710.693	0.098315
711.014	0.097806
711.336	0.097329
711.658	0.096937
711.979	0.096565
712.301	0.096299
712.622	0.096091
712.943	0.095799
713.265	0.095656
713.586	0.095455
713.907	0.095282
714.228	0.095217
714.549	0.095076
714.870	0.095072
715.191	0.094910
715.512	0.094792
715.833	0.094755
716.154	0.094621
716.475	0.094368
716.796	0.094116
717.117	0.093778
717.437	0.093487
717.758	0.093131
718.078	0.092742
718.399	0.092308
718.719	0.091826
719.040	0.091323
719.360	0.090927
719.681	0.090622
720.001	0.090396
720.321	0.090163
720.642	0.089894
720.962	0.089559
721.282	0.089351
721.602	0.089044
721.922	0.088754
722.242	0.088439
722.562	0.088093
722.882	0.087860
723.202	0.087761
723.521	0.087611
723.841	0.087478
724.161	0.087277
724.481	0.087179
724.800	0.086999
725.120	0.086781
725.439	0.086622
725.759	0.086518
726.078	0.086343
726.398	0.086187
726.717	0.086027
727.036	0.085961
727.355	0.085906
727.675	0.085986
727.994	0.085959
728.313	0.086095
728.632	0.086148
728.951	0.086146
729.270	0.086093
729.589	0.085915
729.908	0.085623
730.226	0.085376
730.545	0.085141
730.864	0.084908
731.182	0.084626
731.501	0.084369
731.820	0.084247
732.138	0.084093
732.457	0.083869
732.775	0.083690
733.093	0.083600
733.412	0.083461
733.730	0.083250
734.048	0.083064
734.367	0.082674
734.685	0.082331
735.003	0.081830
735.321	0.081422
735.639	0.081071
735.957	0.080744
736.275	0.080490
736.593	0.080359
736.910	0.080191
737.228	0.080033
737.546	0.079919
737.863	0.079829
738.181	0.079637
738.499	0.079349
738.816	0.079110
739.134	0.078826
739.451	0.078586
739.768	0.078315
740.086	0.077982
740.403	0.077668
740.720	0.077344
741.038	0.077082
741.355	0.076727
741.672	0.076434
741.989	0.076162
742.306	0.075737
742.623	0.075238
742.940	0.074753
743.257	0.074142
743.573	0.073573
743.890	0.072963
744.207	0.072316
744.523	0.071778
744.840	0.071339
745.157	0.070887
745.473	0.070518
745.790	0.070233
746.106	0.069898
746.422	0.069528
746.739	0.069267
747.055	0.069065
747.371	0.068841
747.687	0.068835
748.004	0.068819
748.320	0.068800
748.636	0.068653
748.952	0.068633
749.268	0.068732
749.584	0.068776
749.899	0.068788
750.215	0.068766
750.531	0.068794
750.847	0.068833
751.162	0.068811
751.478	0.068852
751.793	0.068816
752.109	0.068727
752.424	0.068632
752.740	0.068551
753.055	0.068468
753.370	0.068415
753.686	0.068517
754.001	0.068738
754.316	0.068906
754.631	0.069118
754.946	0.069257
755.261	0.069364
755.576	0.069448
755.891	0.069423
756.206	0.069353
756.521	0.069253
756.836	0.069229
757.150	0.069238
757.465	0.069246
757.780	0.069204
758.094	0.069212
758.409	0.069263
758.723	0.069319
759.038	0.069372
759.352	0.069405
759.667	0.069392
759.981	0.069336
760.295	0.069119
760.609	0.068825
760.923	0.068550
761.238	0.068231
761.552	0.067976
761.866	0.067796
762.180	0.067672
762.493	0.067620
762.807	0.067600
763.121	0.067547
763.435	0.067369
763.749	0.067130
764.062	0.066902
764.376	0.066732
764.689	0.066471
765.003	0.066193
765.316	0.066020
765.630	0.066043
765.943	0.065878
766.257	0.065838
766.570	0.065711
766.883	0.065595
767.196	0.065484
767.509	0.065212
767.822	0.065006
768.135	0.064718
768.448	0.064433
768.761	0.064078
769.074	0.063795
769.387	0.063492
769.700	0.063247
770.013	0.063097
770.325	0.062951
770.638	0.062859
770.950	0.062685
771.263	0.062595
771.575	0.062447
771.888	0.062138
772.200	0.061691
772.513	0.061364
772.825	0.060952
773.137	0.060655
773.449	0.060381
773.761	0.059992
774.074	0.059790
774.386	0.059528
774.698	0.059345
775.010	0.059092
775.321	0.058921
775.633	0.058641
775.945	0.058517
776.257	0.058419
776.568	0.058280
776.880	0.058211
777.192	0.058170
777.503	0.058186
777.815	0.058194
778.126	0.058319
778.438	0.058536
778.749	0.058800
779.060	0.059054
779.372	0.059224
779.683	0.059351
779.994	0.059490
780.305	0.059657
780.616	0.059807
780.927	0.059945
781.238	0.059896
781.549	0.060043
781.860	0.060148
782.171	0.060276
782.481	0.060349
782.792	0.060390
783.103	0.060515
783.413	0.060591
783.724	0.060517
784.034	0.060506
784.345	0.060399
784.655	0.060335
784.966	0.060234
785.276	0.060101
785.586	0.059963
785.896	0.059958
786.207	0.059948
786.517	0.060025
786.827	0.060062
787.137	0.059971
787.447	0.059954
787.757	0.060149
788.066	0.060194
788.376	0.060261
788.686	0.060251
788.996	0.060283
789.305	0.060308
789.615	0.060268
789.925	0.060283
790.234	0.060370
790.544	0.060486
790.853	0.060649
791.162	0.060798
791.472	0.061027
791.781	0.061227
792.090	0.061443
792.399	0.061406
792.708	0.061396
793.017	0.061295
793.326	0.061208
793.635	0.061207
793.944	0.061057
794.253	0.060871
794.562	0.060639
794.871	0.060547
795.179	0.060488
795.488	0.060443
795.797	0.060399
796.105	0.060369
796.414	0.060367
796.722	0.060368
797.031	0.060274
797.339	0.060187
797.647	0.060025
797.956	0.059655
798.264	0.059190
798.572	0.058818
798.880	0.058598
799.188	0.058391
799.496	0.058167
799.804	0.058028
800.112	0.057846
800.420	0.057828
800.728	0.057871
801.035	0.057930
801.343	0.057602
801.651	0.057319
801.958	0.057002
802.266	0.056981
802.573	0.057092
802.881	0.057154
803.188	0.057142
803.496	0.057415
803.803	0.057687
804.110	0.057836
804.417	0.057905
804.724	0.057897
805.032	0.057920
805.339	0.057860
805.646	0.057838
805.953	0.057829
806.259	0.057839
806.566	0.057856
806.873	0.057917
807.180	0.057917
807.486	0.057934
807.793	0.058114
808.100	0.058259
808.406	0.058438
808.713	0.058385
809.019	0.058110
809.326	0.057876
809.632	0.057739
809.938	0.057077
810.244	0.056490
810.551	0.056206
810.857	0.055969
811.163	0.056016
811.469	0.055863
811.775	0.055875
812.081	0.055907
812.387	0.055928
812.692	0.055839
812.998	0.055978
813.304	0.055888
813.610	0.056003
813.915	0.056106
814.221	0.056099
814.526	0.056188
814.832	0.056286
815.137	0.056292
815.443	0.056393
815.748	0.056458
816.053	0.056434
816.358	0.056576
816.664	0.056684
816.969	0.056651
817.274	0.056846
817.579	0.056781
817.884	0.056829
818.189	0.056834
818.493	0.056804
818.798	0.056865
819.103	0.056823
819.408	0.056562
819.712	0.056602
820.017	0.056416
820.321	0.056228
820.626	0.056125
820.930	0.055830
821.235	0.055538
821.539	0.055422
821.843	0.055288
822.148	0.055140
822.452	0.055160
822.756	0.055358
823.060	0.055390
823.364	0.055530
823.668	0.055612
823.972	0.055643
824.276	0.055607
824.580	0.055709
824.883	0.055835
825.187	0.055947
825.491	0.056055
825.795	0.056251
826.098	0.056313
826.402	0.056429
826.705	0.056570
827.008	0.056482
827.312	0.056561
827.615	0.056514
827.918	0.056549
828.222	0.056450
828.525	0.056362
828.828	0.056425
829.131	0.056474
829.434	0.056200
829.737	0.055754
830.040	0.055199
830.343	0.054905
830.645	0.054857
830.948	0.054601
831.251	0.054251
831.553	0.053819
831.856	0.053912
832.159	0.053888
832.461	0.053580
832.764	0.053322
833.066	0.052767
833.368	0.052879
833.671	0.052640
833.973	0.052208
834.275	0.051798
834.577	0.051770
834.879	0.051661
835.181	0.051238
835.483	0.050747
835.785	0.050526
836.087	0.050221
836.389	0.050094
836.690	0.049341
836.992	0.048597
837.294	0.047758
837.595	0.046975
837.897	0.046152
838.198	0.045236
838.500	0.044297
838.801	0.043852
839.103	0.043292
839.404	0.043223
839.705	0.042821
840.006	0.042231
840.307	0.042490
840.608	0.042551
840.910	0.042464
841.210	0.042766
841.511	0.043005
841.812	0.042965
842.113	0.043040
842.414	0.042771
842.715	0.042315
843.015	0.041914
843.316	0.041709
843.616	0.041322
843.917	0.041024
844.217	0.040577
844.518	0.040190
844.818	0.039776
845.118	0.039754
845.419	0.040026
845.719	0.039698
846.019	0.038920
846.319	0.039353
846.619	0.038833
846.919	0.038754
847.219	0.038445
847.519	0.037895
847.819	0.037577
848.118	0.037339
848.418	0.037057
848.718	0.036893
849.017	0.036890
849.317	0.037337
849.616	0.037194
849.916	0.037922
850.215	0.038579
850.515	0.039389
850.814	0.039969
851.113	0.040492
851.412	0.040861
851.712	0.040680
852.011	0.040538
852.310	0.041107
852.609	0.041296
852.908	0.041448
853.206	0.041745
853.505	0.042066
853.804	0.042227
854.103	0.042208
854.401	0.042228
854.700	0.042418
854.999	0.042452
855.297	0.042380
855.595	0.042614
855.894	0.042625
856.192	0.042366
856.491	0.042175
856.789	0.041960
857.087	0.041423
857.385	0.040960
857.683	0.040297
857.981	0.039992
858.279	0.039967
858.577	0.039228
858.875	0.038698
859.173	0.038308
859.471	0.037763
859.768	0.037124
860.066	0.036730
860.363	0.036178
860.661	0.035588
860.959	0.035107
861.256	0.035477
861.553	0.035669
861.851	0.034978
862.148	0.034789
862.445	0.034788
862.742	0.034266
863.039	0.033392
863.337	0.033632
863.634	0.032787
863.931	0.032317
864.227	0.032238
864.524	0.031532
864.821	0.031541
865.118	0.030855
865.415	0.030272
865.711	0.029830
866.008	0.028947
866.304	0.028746
866.601	0.028566
866.897	0.028553
867.194	0.028512
867.490	0.028018
867.786	0.027286
868.082	0.027032
868.379	0.026969
868.675	0.026296
868.971	0.026455
869.267	0.026857
869.563	0.026951
869.859	0.027286
870.154	0.026834
870.450	0.026657
870.746	0.026829
871.042	0.026550
871.337	0.027106
871.633	0.026819
871.928	0.026466
872.224	0.026595
872.519	0.025893
872.815	0.025848
873.110	0.025826
873.405	0.025526
873.700	0.025001
873.995	0.024585
874.291	0.024353
874.586	0.024283
874.881	0.024408
875.175	0.023897
875.470	0.023166
875.765	0.022382
876.060	0.022185
876.355	0.023035
876.649	0.023483
876.944	0.023306
877.238	0.023035
877.533	0.022437
877.827	0.023185
878.122	0.023536
878.416	0.023854
878.710	0.024350
879.005	0.024289
879.299	0.023706
879.593	0.023317
879.887	0.023142
880.181	0.023088
880.475	0.023040
880.769	0.022677
881.063	0.022708
881.356	0.022431
881.650	0.022257
881.944	0.021855
882.238	0.008969
882.531	0.017158
882.825	0.017627
883.118	0.010153
883.412	0.018368
883.705	0.011270
883.998	0.020902
884.291	0.011013
884.585	0.010905
884.878	0.013668
>>>>>>>>>> END of Data <<<<<<<<<<
>>>>>>>>>> Raw Data Start <<<<<<<<
190.664	-402
191.040	7
191.415	7
191.791	3
192.166	9
192.542	10
192.917	7
193.293	6
193.668	8
194.044	6
194.419	-10
194.794	10
195.170	10
195.545	10
195.920	11
196.296	11
196.671	11
197.046	12
197.421	13
197.796	13
198.171	14
198.546	14
198.922	14
199.297	14
199.672	15
200.047	15
200.422	15
200.796	15
201.171	15
201.546	15
201.921	15
202.296	15
202.671	15
203.045	15
203.420	16
203.795	16
204.170	16
204.544	16
204.919	16
205.294	16
205.668	16
206.043	16
206.417	15
206.792	15
207.166	15
207.541	14
207.915	14
208.289	14
208.664	14
209.038	14
209.412	14
209.787	14
210.161	14
210.535	14
210.909	14
211.284	14
211.658	14
212.032	14
212.406	13
212.780	13
213.154	13
213.528	13
213.902	13
214.276	13
214.650	13
215.024	14
215.398	14
215.772	14
216.145	14
216.519	14
216.893	14
217.267	14
217.640	14
218.014	14
218.388	14
218.761	14
219.135	15
219.508	15
219.882	15
220.256	15
220.629	15
221.003	15
221.376	15
221.749	15
222.123	15
222.496	15
222.869	15
223.243	15
223.616	15
223.989	15
224.362	15
224.736	15
225.109	15
225.482	15
225.855	15
226.228	15
226.601	15
226.974	16
227.347	15
227.720	15
228.093	15
228.466	15
228.839	15
229.212	15
229.585	15
229.957	15
230.330	15
230.703	15
231.076	16
231.448	16
231.821	15
232.194	16
232.566	16
232.939	15
233.311	15
233.684	15
234.056	15
234.429	15
234.801	15
235.174	15
235.546	16
235.918	16
236.291	16
236.663	16
237.035	16
237.408	16
237.780	16
238.152	17
238.524	17
238.896	16
239.268	16
239.641	17
240.013	17
240.385	17
240.757	17
241.129	17
241.500	17
241.872	17
242.244	17
242.616	17
242.988	16
243.360	16
243.731	16
244.103	16
244.475	16
244.847	16
245.218	16
245.590	15
245.961	15
246.333	15
246.705	15
247.076	15
247.448	15
247.819	15
248.190	15
248.562	16
248.933	15
249.305	15
249.676	16
250.047	16
250.418	16
250.790	16
251.161	16
251.532	16
251.903	16
252.274	16
252.645	16
253.016	16
253.387	16
253.758	17
254.129	16
254.500	17
254.871	17
255.242	17
255.613	17
255.984	17
256.355	17
256.725	17
257.096	17
257.467	17
257.838	17
258.208	17
258.579	17
258.949	17
259.320	17
259.690	17
260.061	18
260.431	17
260.802	17
261.172	17
261.543	17
261.913	17
262.283	17
262.654	17
263.024	17
263.394	17
263.764	17
264.135	17
264.505	17
264.875	17
265.245	17
265.615	17
265.985	17
266.355	16
266.725	17
267.095	17
267.465	17
267.835	17
268.205	17
268.575	17
268.944	17
269.314	17
269.684	17
270.054	17
270.423	17
270.793	17
271.163	17
271.532	17
271.902	17
272.271	17
272.641	17
273.010	17
273.380	17
273.749	17
274.119	18
274.488	17
274.857	17
275.227	17
275.596	18
275.965	18
276.335	18
276.704	18
277.073	17
277.442	18
277.811	18
278.180	18
278.549	18
278.918	18
279.287	18
279.656	18
280.025	18
280.394	18
280.763	19
281.132	19
281.501	18
281.869	18
282.238	18
282.607	18
282.976	18
283.344	18
283.713	18
284.081	18
284.450	18
284.819	18
285.187	18
285.556	18
285.924	18
286.292	18
286.661	18
287.029	18
287.398	18
287.766	18
288.134	18
288.502	18
288.871	18
289.239	18
289.607	18
289.975	18
290.343	19
290.711	19
291.079	19
291.447	18
291.815	18
292.183	18
292.551	18
292.919	18
293.287	18
293.655	19
294.022	18
294.390	18
294.758	18
295.126	18
295.493	18
295.861	17
296.229	17
296.596	17
296.964	17
297.331	17
297.699	18
298.066	17
298.434	17
298.801	17
299.168	17
299.536	17
299.903	18
300.270	18
300.638	18
301.005	18
301.372	18
301.739	18
302.106	19
302.473	19
302.840	19
303.207	19
303.574	19
303.941	19
304.308	19
304.675	19
305.042	19
305.409	18
305.776	19
306.143	19
306.509	19
306.876	19
307.243	19
307.610	18
307.976	18
308.343	18
308.709	18
309.076	18
309.442	18
309.809	18
310.175	18
310.542	18
310.908	19
311.275	19
311.641	19
312.007	19
312.373	19
312.740	19
313.106	20
313.472	19
313.838	19
314.204	20
314.570	20
314.936	20
315.302	21
315.668	21
316.034	21
316.400	21
316.766	21
317.132	21
317.498	21
317.864	21
318.230	21
318.595	21
318.961	21
319.327	21
319.692	22
320.058	22
320.424	22
320.789	22
321.155	23
321.520	23
321.886	23
322.251	23
322.616	23
322.982	24
323.347	24
323.712	24
324.078	25
324.443	25
324.808	25
325.173	26
325.539	26
325.904	27
326.269	27
326.634	27
326.999	28
327.364	29
327.729	29
328.094	30
328.459	30
328.823	31
329.188	31
329.553	32
329.918	32
330.283	33
330.647	33
331.012	33
331.377	34
331.741	35
332.106	35
332.470	36
332.835	36
333.199	37
333.564	37
333.928	37
334.293	38
334.657	39
335.021	39
335.386	40
335.750	40
336.114	41
336.478	41
336.843	42
337.207	43
337.571	43
337.935	44
338.299	45
338.663	45
339.027	46
339.391	47
339.755	47
340.119	48
340.483	49
340.846	49
341.210	50
341.574	51
341.938	51
342.301	52
342.665	53
343.029	53
343.392	54
343.756	54
344.119	55
344.483	55
344.846	56
345.210	56
345.573	57
345.937	57
346.300	57
346.663	58
347.027	58
347.390	59
347.753	60
348.116	60
348.479	61
348.843	61
349.206	62
349.569	62
349.932	63
350.295	63
350.658	63
351.021	63
351.383	64
351.746	64
352.109	65
352.472	65
352.835	65
353.197	65
353.560	66
353.923	66
354.285	66
354.648	67
355.011	67
355.373	67
355.736	68
356.098	68
356.461	68
356.823	68
357.185	68
357.548	68
357.910	69
358.272	70
358.635	70
358.997	71
359.359	70
359.721	71
360.083	71
360.445	71
360.807	72
361.169	72
361.531	72
361.893	72
362.255	72
362.617	72
362.979	73
363.341	73
363.703	73
364.064	73
364.426	73
364.788	74
365.149	74
365.511	75
365.873	74
366.234	74
366.596	74
366.957	75
367.319	75
367.680	75
368.042	75
368.403	75
368.764	75
369.126	75
369.487	75
369.848	75
370.209	75
370.570	75
370.931	75
371.293	75
371.654	75
372.015	75
372.376	75
372.737	75
373.098	75
373.458	75
373.819	74
374.180	74
374.541	74
374.902	74
375.263	74
375.623	75
375.984	75
376.345	75
376.705	75
377.066	75
377.426	75
377.787	75
378.147	75
378.508	75
378.868	75
379.228	75
379.589	76
379.949	76
380.309	75
380.670	75
381.030	76
381.390	76
381.750	76
382.110	76
382.470	76
382.830	76
383.190	76
383.550	76
383.910	76
384.270	76
384.630	77
384.990	77
385.350	77
385.709	77
386.069	77
386.429	77
386.788	77
387.148	77
387.508	76
387.867	77
388.227	77
388.586	77
388.946	78
389.305	78
389.665	78
390.024	78
390.383	79
390.743	79
391.102	79
391.461	79
391.820	80
392.179	80
392.539	80
392.898	80
393.257	80
393.616	80
393.975	80
394.334	81
394.693	81
395.051	82
395.410	82
395.769	82
396.128	82
396.487	82
396.845	82
397.204	82
397.563	82
397.921	82
398.280	82
398.638	83
398.997	83
399.355	83
399.714	83
400.072	83
400.431	83
400.789	84
401.147	84
401.506	84
401.864	84
402.222	85
402.580	85
402.938	85
403.297	85
403.655	86
404.013	86
404.371	86
404.729	86
405.087	85
405.444	86
405.802	86
406.160	86
406.518	87
406.876	87
407.233	87
407.591	87
407.949	87
408.306	87
408.664	87
409.022	87
409.379	87
409.737	87
410.094	88
410.451	88
410.809	88
411.166	89
411.523	89
411.881	89
412.238	89
412.595	90
412.952	89
413.310	90
413.667	90
414.024	89
414.381	89
414.738	90
415.095	91
415.452	91
415.809	92
416.165	92
416.522	92
416.879	93
417.236	94
417.593	94
417.949	96
418.306	97
418.663	97
419.019	99
419.376	100
419.732	101
420.089	102
420.445	103
420.802	104
421.158	105
421.514	106
421.871	107
422.227	108
422.583	109
422.939	110
423.295	110
423.652	111
424.008	112
424.364	112
424.720	112
425.076	112
425.432	113
425.788	113
426.143	113
426.499	114
426.855	114
427.211	115
427.567	116
427.922	116
428.278	117
428.634	117
428.989	118
429.345	118
429.700	119
430.056	120
430.411	120
430.767	121
431.122	122
431.478	123
431.833	123
432.188	125
432.543	125
432.899	127
433.254	127
433.609	128
433.964	129
434.319	129
434.674	130
435.029	130
435.384	131
435.739	132
436.094	133
436.449	134
436.804	136
437.158	138
437.513	139
437.868	142
438.223	144
438.577	147
438.932	149
439.287	151
439.641	153
439.996	156
440.350	158
440.704	160
441.059	163
441.413	165
441.768	168
442.122	170
442.476	173
442.830	175
443.185	177
443.539	180
443.893	183
444.247	185
444.601	187
444.955	189
445.309	190
445.663	191
446.017	192
446.371	193
446.724	195
447.078	196
447.432	197
447.786	198
448.139	199
448.493	200
448.847	200
449.200	201
449.554	202
449.907	202
450.261	203
450.614	204
450.968	205
451.321	206
451.674	207
452.027	208
452.381	209
452.734	211
453.087	212
453.440	214
453.793	215
454.146	217
454.499	220
454.852	223
455.205	226
455.558	229
455.911	232
456.264	235
456.617	238
456.970	241
457.322	244
457.675	246
458.028	249
458.380	251
458.733	253
459.086	255
459.438	258
459.791	261
460.143	264
460.496	267
460.848	271
461.200	275
461.553	280
461.905	284
462.257	288
462.609	291
462.961	295
463.314	298
463.666	301
464.018	304
464.370	307
464.722	310
465.074	314
465.426	317
465.777	320
466.129	322
466.481	324
466.833	326
467.184	327
467.536	329
467.888	329
468.239	330
468.591	330
468.943	331
469.294	332
469.646	334
469.997	337
470.348	340
470.700	344
471.051	348
471.402	353
471.754	359
472.105	364
472.456	370
472.807	377
473.158	384
473.509	392
473.860	401
474.211	410
474.562	420
474.913	429
475.264	440
475.615	450
475.966	460
476.316	470
476.667	480
477.018	490
477.368	500
477.719	511
478.070	521
478.420	531
478.771	541
479.121	550
479.472	560
479.822	570
480.172	581
480.523	594
480.873	611
481.223	638
481.573	678
481.924	728
482.274	783
482.624	842
482.974	901
483.324	953
483.674	993
484.024	1021
484.374	1040
484.724	1053
485.073	1063
485.423	1071
485.773	1079
486.123	1087
486.472	1096
486.822	1103
487.172	1110
487.521	1116
487.871	1120
488.220	1119
488.570	1106
488.919	1082
489.268	1048
489.618	1007
489.967	964
490.316	920
490.666	882
491.015	855
491.364	840
491.713	834
492.062	834
492.411	837
492.760	842
493.109	848
493.458	853
493.807	858
494.156	863
494.505	867
494.853	872
495.202	878
495.551	885
495.900	892
496.248	899
496.597	907
496.945	915
497.294	922
497.642	930
497.991	939
498.339	949
498.688	959
499.036	969
499.384	978
499.732	986
500.081	993
500.429	1000
500.777	1007
501.125	1013
501.473	1020
501.821	1026
502.169	1033
502.517	1038
502.865	1043
503.213	1047
503.561	1050
503.908	1053
504.256	1055
504.604	1058
504.952	1059
505.299	1060
505.647	1059
505.994	1058
506.342	1058
506.689	1057
507.037	1056
507.384	1057
507.732	1057
508.079	1058
508.426	1059
508.774	1061
509.121	1061
509.468	1062
509.815	1061
510.162	1061
510.509	1061
510.856	1061
511.203	1061
511.550	1060
511.897	1060
512.244	1060
512.591	1060
512.938	1060
513.284	1060
513.631	1059
513.978	1059
514.324	1058
514.671	1056
515.018	1054
515.364	1054
515.711	1053
516.057	1053
516.403	1052
516.750	1051
517.096	1050
517.443	1048
517.789	1046
518.135	1043
518.481	1042
518.827	1041
519.173	1039
519.519	1038
519.865	1036
520.211	1035
520.557	1035
520.903	1035
521.249	1035
521.595	1035
521.941	1035
522.287	1036
522.632	1036
522.978	1036
523.324	1036
523.669	1037
524.015	1040
524.360	1044
524.706	1049
525.051	1055
525.397	1062
525.742	1069
526.087	1077
526.433	1084
526.778	1091
527.123	1096
527.468	1101
527.813	1106
528.158	1111
528.504	1117
528.849	1125
529.193	1134
529.538	1145
529.883	1158
530.228	1174
530.573	1190
530.918	1208
531.263	1225
531.607	1240
531.952	1255
532.296	1267
532.641	1278
532.986	1287
533.330	1296
533.675	1305
534.019	1317
534.363	1331
534.708	1347
535.052	1366
535.396	1385
535.741	1404
536.085	1421
536.429	1437
536.773	1452
537.117	1463
537.461	1474
537.805	1484
538.149	1495
538.493	1506
538.837	1519
539.181	1533
539.524	1551
539.868	1570
540.212	1592
540.556	1615
540.899	1638
541.243	1659
541.586	1678
541.930	1694
542.273	1707
542.617	1718
542.960	1729
543.304	1744
543.647	1760
543.990	1782
544.333	1805
544.677	1829
545.020	1853
545.363	1873
545.706	1890
546.049	1904
546.392	1914
546.735	1922
547.078	1928
547.421	1935
547.764	1942
548.106	1951
548.449	1963
548.792	1978
549.135	1997
549.477	2020
549.820	2042
550.162	2061
550.505	2079
550.847	2093
551.190	2105
551.532	2116
551.875	2127
552.217	2140
552.559	2154
552.901	2172
553.244	2192
553.586	2214
553.928	2236
554.270	2257
554.612	2275
554.954	2291
555.296	2305
555.638	2320
555.980	2335
556.322	2353
556.663	2377
557.005	2406
557.347	2441
557.689	2477
558.030	2513
558.372	2547
558.713	2579
559.055	2610
559.396	2641
559.738	2673
560.079	2708
560.421	2747
560.762	2790
561.103	2835
561.444	2886
561.786	2939
562.127	2994
562.468	3055
562.809	3120
563.150	3192
563.491	3270
563.832	3354
564.173	3451
564.514	3562
564.855	3694
565.195	3854
565.536	4044
565.877	4264
566.218	4513
566.558	4795
566.899	5104
567.239	5437
567.580	5787
567.920	6147
568.261	6511
568.601	6885
568.941	7272
569.282	7671
569.622	8085
569.962	8518
570.302	8981
570.643	9459
570.983	9944
571.323	10413
571.663	10866
572.003	11300
572.343	11708
572.683	12094
573.022	12488
573.362	12905
573.702	13337
574.042	13770
574.381	14188
574.721	14587
575.061	14972
575.400	15323
575.740	15638
576.079	15920
576.419	16202
576.758	16520
577.097	16892
577.437	17298
577.776	17732
578.115	18185
578.454	18644
578.794	19066
579.133	19397
579.472	19631
579.811	19775
580.150	19835
580.489	19833
580.828	19802
581.167	19777
581.505	19767
581.844	19767
582.183	19765
582.522	19777
582.860	19800
583.199	19820
583.538	19813
583.876	19744
584.215	19592
584.553	19347
584.891	19017
585.230	18605
585.568	18150
585.906	17685
586.245	17266
586.583	16907
586.921	16610
587.259	16341
587.597	16070
587.935	15785
588.273	15494
588.611	15226
588.949	14988
589.287	14792
589.625	14642
589.963	14525
590.300	14434
590.638	14351
590.976	14256
591.313	14141
591.651	14033
591.989	13940
592.326	13867
592.664	13804
593.001	13754
593.338	13727
593.676	13718
594.013	13734
594.350	13794
594.687	13889
595.025	13994
595.362	14091
595.699	14161
596.036	14209
596.373	14226
596.710	14207
597.047	14164
597.384	14109
597.720	14045
598.057	13997
598.394	13964
598.731	13949
599.067	13957
599.404	13989
599.741	14054
600.077	14142
600.414	14239
600.750	14341
601.087	14419
601.423	14459
601.759	14468
602.096	14451
602.432	14414
602.768	14357
603.104	14275
603.440	14171
603.776	14059
604.112	13938
604.448	13814
604.784	13683
605.120	13542
605.456	13406
605.792	13263
606.128	13113
606.463	12958
606.799	12802
607.135	12660
607.470	12519
607.806	12381
608.142	12246
608.477	12116
608.812	11990
609.148	11862
609.483	11728
609.819	11592
610.154	11461
610.489	11341
610.824	11238
611.159	11151
611.494	11064
611.830	10987
612.165	10912
612.500	10826
612.834	10725
613.169	10609
613.504	10483
613.839	10342
614.174	10181
614.509	10019
614.843	9858
615.178	9704
615.512	9551
615.847	9402
616.182	9253
616.516	9102
616.850	8943
617.185	8777
617.519	8609
617.853	8427
618.188	8239
618.522	8067
618.856	7921
619.190	7795
619.524	7684
619.858	7598
620.192	7529
620.526	7467
620.860	7407
621.194	7349
621.528	7292
621.862	7235
622.195	7165
622.529	7091
622.863	7014
623.196	6938
623.530	6860
623.864	6782
624.197	6702
624.530	6625
624.864	6555
625.197	6483
625.531	6400
625.864	6301
626.197	6194
626.530	6079
626.863	5949
627.196	5808
627.529	5665
627.862	5524
628.195	5385
628.528	5246
628.861	5113
629.194	4994
629.527	4881
629.860	4768
630.192	4657
630.525	4554
630.858	4457
631.190	4366
631.523	4278
631.855	4196
632.188	4124
632.520	4057
632.852	3994
633.185	3929
633.517	3866
633.849	3810
634.182	3758
634.514	3709
634.846	3664
635.178	3625
635.510	3591
635.842	3560
636.174	3530
636.506	3499
636.837	3469
637.169	3439
637.501	3408
637.833	3373
638.164	3334
638.496	3290
638.828	3241
639.159	3186
639.491	3126
639.822	3064
640.154	3001
640.485	2940
640.816	2879
641.147	2818
641.479	2760
641.810	2703
642.141	2648
642.472	2595
642.803	2541
643.134	2490
643.465	2447
643.796	2412
644.127	2387
644.458	2374
644.789	2375
645.119	2388
645.450	2411
645.781	2436
646.111	2460
646.442	2482
646.773	2500
647.103	2513
647.433	2525
647.764	2537
648.094	2553
648.425	2574
648.755	2598
649.085	2627
649.415	2657
649.745	2689
650.075	2721
650.405	2758
650.735	2838
651.065	3411
651.395	5188
651.725	8118
652.055	11763
652.385	15404
652.715	19043
653.044	22685
653.374	26331
653.704	29982
654.033	32680
654.363	34470
654.692	35656
655.022	36428
655.351	36935
655.680	37250
656.010	37421
656.339	37498
656.668	37519
656.997	37510
657.326	37479
657.655	37392
657.984	36802
658.313	34996
658.642	32029
658.971	28337
659.300	24645
659.629	20954
659.958	17263
660.286	13572
660.615	9883
660.944	7154
661.272	5338
661.601	4127
661.929	3327
662.258	2789
662.586	2436
662.915	2221
663.243	2097
663.571	2027
663.899	1984
664.228	1957
664.556	1939
664.884	1927
665.212	1919
665.540	1913
665.868	1909
666.196	1908
666.524	1907
666.852	1909
667.179	1916
667.507	1931
667.835	1954
668.162	1982
668.490	2017
668.818	2059
669.145	2103
669.473	2146
669.800	2187
670.127	2222
670.455	2252
670.782	2276
671.109	2299
671.436	2318
671.764	2333
672.091	2345
672.418	2356
672.745	2364
673.072	2374
673.399	2385
673.726	2396
674.053	2405
674.379	2408
674.706	2407
675.033	2406
675.359	2403
675.686	2398
676.013	2396
676.339	2397
676.666	2405
676.992	2423
677.318	2448
677.645	2477
677.971	2503
678.297	2527
678.624	2550
678.950	2573
679.276	2594
679.602	2614
679.928	2635
680.254	2662
680.580	2695
680.906	2738
681.232	2791
681.558	2846
681.883	2900
682.209	2951
682.535	2998
682.860	3041
683.186	3077
683.511	3106
683.837	3124
684.162	3138
684.488	3149
684.813	3162
685.138	3173
685.464	3183
685.789	3191
686.114	3199
686.439	3211
686.764	3222
687.089	3231
687.414	3231
687.739	3222
688.064	3203
688.389	3178
688.714	3150
689.039	3118
689.363	3086
689.688	3050
690.013	3015
690.337	2984
690.662	2958
690.986	2936
691.311	2912
691.635	2889
691.959	2867
692.284	2853
692.608	2849
692.932	2855
693.256	2865
693.580	2877
693.904	2893
694.228	2912
694.552	2929
694.876	2936
695.200	2935
695.524	2922
695.848	2904
696.172	2881
696.495	2856
696.819	2831
697.143	2805
697.466	2778
697.790	2755
698.113	2740
698.437	2733
698.760	2732
699.083	2730
699.407	2723
699.730	2709
700.053	2687
700.376	2657
700.699	2615
701.022	2561
701.345	2503
701.668	2449
701.991	2404
702.314	2373
702.637	2359
702.960	2365
703.283	2390
703.605	2433
703.928	2493
704.251	2559
704.573	2626
704.896	2686
705.218	2735
705.540	2774
705.863	2806
706.185	2832
706.507	2854
706.830	2876
707.152	2898
707.474	2921
707.796	2947
708.118	2976
708.440	3003
708.762	3026
709.084	3046
709.406	3057
709.728	3059
710.049	3054
710.371	3041
710.693	3022
711.014	3000
711.336	2980
711.658	2961
711.979	2945
712.301	2929
712.622	2912
712.943	2893
713.265	2868
713.586	2843
713.907	2819
714.228	2798
714.549	2781
714.870	2770
715.191	2765
715.512	2764
715.833	2761
716.154	2754
716.475	2742
716.796	2725
717.117	2700
717.437	2670
717.758	2636
718.078	2602
718.399	2568
718.719	2539
719.040	2513
719.360	2494
719.681	2479
720.001	2470
720.321	2465
720.642	2463
720.962	2466
721.282	2472
721.602	2480
721.922	2490
722.242	2503
722.562	2519
722.882	2539
723.202	2557
723.521	2574
723.841	2592
724.161	2610
724.481	2628
724.800	2647
725.120	2670
725.439	2699
725.759	2731
726.078	2768
726.398	2813
726.717	2868
727.036	2929
727.355	2995
727.675	3059
727.994	3119
728.313	3177
728.632	3227
728.951	3269
729.270	3304
729.589	3338
729.908	3380
730.226	3426
730.545	3478
730.864	3534
731.182	3594
731.501	3656
731.820	3714
732.138	3765
732.457	3810
732.775	3850
733.093	3883
733.412	3902
733.730	3908
734.048	3900
734.367	3883
734.685	3860
735.003	3834
735.321	3811
735.639	3792
735.957	3777
736.275	3764
736.593	3743
736.910	3712
737.228	3668
737.546	3612
737.863	3545
738.181	3472
738.499	3395
738.816	3319
739.134	3245
739.451	3170
739.768	3094
740.086	3022
740.403	2954
740.720	2892
741.038	2833
741.355	2776
741.672	2719
741.989	2661
742.306	2602
742.623	2540
742.940	2481
743.257	2425
743.573	2376
743.890	2337
744.207	2308
744.523	2288
744.840	2275
745.157	2267
745.473	2266
745.790	2274
746.106	2291
746.422	2319
746.739	2352
747.055	2392
747.371	2437
747.687	2484
748.004	2530
748.320	2569
748.636	2605
748.952	2641
749.268	2676
749.584	2710
749.899	2741
750.215	2773
750.531	2809
750.847	2848
751.162	2889
751.478	2928
751.793	2968
752.109	3012
752.424	3058
752.740	3106
753.055	3161
753.370	3226
753.686	3301
754.001	3382
754.316	3467
754.631	3556
754.946	3652
755.261	3752
755.576	3849
755.891	3943
756.206	4036
756.521	4135
756.836	4234
757.150	4331
757.465	4415
757.780	4488
758.094	4549
758.409	4596
758.723	4626
759.038	4638
759.352	4638
759.667	4625
759.981	4602
760.295	4579
760.609	4561
760.923	4551
761.238	4545
761.552	4541
761.866	4534
762.180	4525
762.493	4500
762.807	4453
763.121	4381
763.435	4291
763.749	4192
764.062	4099
764.376	4021
764.689	3967
765.003	3939
765.316	3934
765.630	3946
765.943	3969
766.257	3995
766.570	4017
766.883	4023
767.196	4012
767.509	3986
767.822	3948
768.135	3898
768.448	3845
768.761	3789
769.074	3740
769.387	3703
769.700	3680
770.013	3665
770.325	3654
770.638	3637
770.950	3607
771.263	3558
771.575	3491
771.888	3405
772.200	3306
772.513	3197
772.825	3083
773.137	2967
773.449	2852
773.761	2741
774.074	2637
774.386	2545
774.698	2468
775.010	2404
775.321	2358
775.633	2328
775.945	2311
776.257	2301
776.568	2299
776.880	2305
777.192	2322
777.503	2347
777.815	2378
778.126	2418
778.438	2466
778.749	2518
779.060	2568
779.372	2616
779.683	2662
779.994	2703
780.305	2736
780.616	2758
780.927	2772
781.238	2777
781.549	2771
781.860	2752
782.171	2727
782.481	2698
782.792	2670
783.103	2641
783.413	2610
783.724	2577
784.034	2545
784.345	2517
784.655	2490
784.966	2463
785.276	2435
785.586	2408
785.896	2380
786.207	2351
786.517	2320
786.827	2289
787.137	2261
787.447	2234
787.757	2207
788.066	2182
788.376	2157
788.686	2133
788.996	2109
789.305	2084
789.615	2065
789.925	2054
790.234	2051
790.544	2055
790.853	2065
791.162	2075
791.472	2084
791.781	2087
792.090	2082
792.399	2070
792.708	2050
793.017	2028
793.326	2006
793.635	1986
793.944	1968
794.253	1952
794.562	1941
794.871	1934
795.179	1928
795.488	1921
795.797	1911
796.105	1893
796.414	1865
796.722	1826
797.031	1777
797.339	1718
797.647	1651
797.956	1582
798.264	1517
798.572	1464
798.880	1422
799.188	1392
799.496	1369
799.804	1353
800.112	1340
800.420	1329
800.728	1318
801.035	1304
801.343	1288
801.651	1276
801.958	1273
802.266	1277
802.573	1288
802.881	1301
803.188	1318
803.496	1337
803.803	1356
804.110	1373
804.417	1388
804.724	1402
805.032	1415
805.339	1426
805.646	1433
805.953	1436
806.259	1437
806.566	1434
806.873	1428
807.180	1421
807.486	1413
807.793	1404
808.100	1389
808.406	1366
808.713	1334
809.019	1298
809.326	1261
809.632	1225
809.938	1193
810.244	1163
810.551	1138
810.857	1116
811.163	1097
811.469	1077
811.775	1056
812.081	1034
812.387	1014
812.692	998
812.998	986
813.304	977
813.610	969
813.915	962
814.221	957
814.526	952
814.832	948
815.137	944
815.443	938
815.748	928
816.053	916
816.358	903
816.664	891
816.969	880
817.274	871
817.579	863
817.884	859
818.189	857
818.493	857
818.798	854
819.103	849
819.408	840
819.712	830
820.017	819
820.321	808
820.626	797
820.930	787
821.235	780
821.539	777
821.843	777
822.148	779
822.452	780
822.756	779
823.060	776
823.364	772
823.668	764
823.972	756
824.276	748
824.580	742
824.883	738
825.187	737
825.491	736
825.795	736
826.098	736
826.402	735
826.705	732
827.008	727
827.312	719
827.615	707
827.918	692
828.222	675
828.525	658
828.828	642
829.131	625
829.434	610
829.737	594
830.040	583
830.343	573
830.645	564
830.948	555
831.251	546
831.553	539
831.856	533
832.159	527
832.461	520
832.764	513
833.066	506
833.368	500
833.671	496
833.973	492
834.275	489
834.577	486
834.879	482
835.181	477
835.483	472
835.785	465
836.087	457
836.389	447
836.690	436
836.992	424
837.294	412
837.595	399
837.897	385
838.198	371
838.500	358
838.801	347
839.103	336
839.404	328
839.705	320
840.006	314
840.307	309
840.608	305
840.910	303
841.210	301
841.511	298
841.812	296
842.113	292
842.414	288
842.715	283
843.015	277
843.316	271
843.616	265
843.917	260
844.217	255
844.518	252
844.818	249
845.118	247
845.419	245
845.719	244
846.019	243
846.319	242
846.619	241
846.919	240
847.219	239
847.519	237
847.819	236
848.118	236
848.418	239
848.718	246
849.017	258
849.317	275
849.616	295
849.916	318
850.215	345
850.515	372
850.814	400
851.113	425
851.412	447
851.712	468
852.011	488
852.310	506
852.609	521
852.908	535
853.206	548
853.505	559
853.804	569
854.103	578
854.401	584
854.700	586
854.999	584
855.297	577
855.595	565
855.894	549
856.192	529
856.491	506
856.789	481
857.087	455
857.385	431
857.683	410
857.981	390
858.279	372
858.577	355
858.875	340
859.173	327
859.471	318
859.768	310
860.066	302
860.363	296
860.661	291
860.959	288
861.256	284
861.553	279
861.851	274
862.148	268
862.445	262
862.742	258
863.039	253
863.337	249
863.634	247
863.931	245
864.227	244
864.524	243
864.821	243
865.118	242
865.415	241
865.711	237
866.008	233
866.304	229
866.601	224
866.897	220
867.194	217
867.490	215
867.786	214
868.082	214
868.379	214
868.675	215
868.971	215
869.267	215
869.563	215
869.859	215
870.154	214
870.450	213
870.746	212
871.042	211
871.337	210
871.633	211
871.928	212
872.224	213
872.519	215
872.815	217
873.110	217
873.405	217
873.700	217
873.995	216
874.291	216
874.586	218
874.881	219
875.175	221
875.470	225
875.765	229
876.060	234
876.355	238
876.649	242
876.944	247
877.238	251
877.533	255
877.827	258
878.122	260
878.416	261
878.710	261
879.005	261
879.299	260
879.593	259
879.887	258
880.181	256
880.475	255
880.769	253
881.063	251
881.356	248
881.650	245
881.944	241
882.238	204
882.531	192
882.825	188
883.118	194
883.412	194
883.705	194
883.998	197
884.291	207
884.585	208
884.878	215
>>>>>>>>>> END of Data <<<<<<<<<<