Date	2021年06月15日火曜日 04時54分54秒
Spectrometers	USB2+H05879
ダーク	使用
リファレンス	使用
積分時間[msec]	10
平均回数	280
ｽﾑｰｼﾞﾝｸﾞ	10
Electrical Dark	USE
ピクセル数	2048
計測モード	吸光度
保存開始波長[nm]	190.664
保存終了波長[nm]	884.878
保存ﾋﾟｯﾁ波長[nm]	全波長

>>>>>>>>>> Data Start <<<<<<<<<<<<
190.664	0.000000
191.040	0.000000
191.415	0.000000
191.791	-2.207063
192.166	-0.284369
192.542	-0.682390
192.917	0.000000
193.293	-0.529521
193.668	-0.597902
194.044	-1.120085
194.419	0.000000
194.794	-1.399508
195.170	-1.324868
195.545	-1.232066
195.920	-1.102685
196.296	-0.990783
196.671	-0.835465
197.046	-0.672702
197.421	-0.615480
197.796	-0.599065
198.171	-0.562229
198.546	-0.515323
198.922	-0.458756
199.297	-0.433478
199.672	-0.407647
200.047	-0.380709
200.422	-0.354052
200.796	-0.338967
201.171	-0.326512
201.546	-0.323990
201.921	-0.313968
202.296	-0.301147
202.671	-0.272726
203.045	-0.240463
203.420	-0.228112
203.795	-0.211785
204.170	-0.206486
204.544	-0.197376
204.919	-0.193912
205.294	-0.189907
205.668	-0.180232
206.043	-0.170852
206.417	-0.174261
206.792	-0.170251
207.166	-0.157704
207.541	-0.155115
207.915	-0.159710
208.289	-0.146023
208.664	-0.143816
209.038	-0.141295
209.412	-0.125826
209.787	-0.103515
210.161	-0.091097
210.535	-0.096640
210.909	-0.096578
211.284	-0.090627
211.658	-0.097825
212.032	-0.099580
212.406	-0.111749
212.780	-0.120922
213.154	-0.115115
213.528	-0.113080
213.902	-0.101260
214.276	-0.093637
214.650	-0.091074
215.024	-0.093620
215.398	-0.097789
215.772	-0.083585
216.145	-0.081927
216.519	-0.078750
216.893	-0.075599
217.267	-0.074851
217.640	-0.081980
218.014	-0.073106
218.388	-0.057834
218.761	-0.053301
219.135	-0.044172
219.508	-0.049408
219.882	-0.054992
220.256	-0.050453
220.629	-0.038618
221.003	-0.043734
221.376	-0.042651
221.749	-0.044816
222.123	-0.042488
222.496	-0.048447
222.869	-0.040983
223.243	-0.031708
223.616	-0.032075
223.989	-0.036981
224.362	-0.032655
224.736	-0.036624
225.109	-0.035951
225.482	-0.037382
225.855	-0.042858
226.228	-0.049960
226.601	-0.052255
226.974	-0.052483
227.347	-0.040316
227.720	-0.031960
228.093	-0.037479
228.466	-0.041962
228.839	-0.037933
229.212	-0.042181
229.585	-0.048356
229.957	-0.052210
230.330	-0.046504
230.703	-0.043946
231.076	-0.048071
231.448	-0.047350
231.821	-0.043785
232.194	-0.041565
232.566	-0.035141
232.939	-0.042709
233.311	-0.046953
233.684	-0.041831
234.056	-0.042191
234.429	-0.038732
234.801	-0.043566
235.174	-0.048317
235.546	-0.054568
235.918	-0.053911
236.291	-0.053298
236.663	-0.057123
237.035	-0.055869
237.408	-0.050204
237.780	-0.042110
238.152	-0.042466
238.524	-0.053686
238.896	-0.050497
239.268	-0.052375
239.641	-0.059957
240.013	-0.058858
240.385	-0.060906
240.757	-0.052976
241.129	-0.045862
241.500	-0.052708
241.872	-0.048167
242.244	-0.046910
242.616	-0.047576
242.988	-0.039923
243.360	-0.024408
243.731	-0.012854
244.103	-0.009729
244.475	-0.008850
244.847	-0.006741
245.218	-0.001583
245.590	-0.002987
245.961	0.001320
246.333	0.011035
246.705	0.008357
247.076	0.009836
247.448	0.020348
247.819	0.025058
248.190	0.036258
248.562	0.030630
248.933	0.028613
249.305	0.036680
249.676	0.039733
250.047	0.028220
250.418	0.032848
250.790	0.032361
251.161	0.029297
251.532	0.027942
251.903	0.027806
252.274	0.038118
252.645	0.045117
253.016	0.038898
253.387	0.036117
253.758	0.033387
254.129	0.027820
254.500	0.029885
254.871	0.032167
255.242	0.027256
255.613	0.017355
255.984	0.010241
256.355	0.016166
256.725	0.022371
257.096	0.026146
257.467	0.025228
257.838	0.032835
258.208	0.035415
258.579	0.036265
258.949	0.031652
259.320	0.038618
259.690	0.036376
260.061	0.039445
260.431	0.043363
260.802	0.047703
261.172	0.052791
261.543	0.055440
261.913	0.061217
262.283	0.058739
262.654	0.056653
263.024	0.060017
263.394	0.068228
263.764	0.069932
264.135	0.065962
264.505	0.068882
264.875	0.066047
265.245	0.062740
265.615	0.065520
265.985	0.062062
266.355	0.061788
266.725	0.061860
267.095	0.059763
267.465	0.062781
267.835	0.053723
268.205	0.044617
268.575	0.046211
268.944	0.045446
269.314	0.040405
269.684	0.039419
270.054	0.040493
270.423	0.047464
270.793	0.049217
271.163	0.050000
271.532	0.051969
271.902	0.053569
272.271	0.050699
272.641	0.060388
273.010	0.059128
273.380	0.059745
273.749	0.056729
274.119	0.058048
274.488	0.070328
274.857	0.068532
275.227	0.069344
275.596	0.071766
275.965	0.074522
276.335	0.071383
276.704	0.072443
277.073	0.072635
277.442	0.076861
277.811	0.072387
278.180	0.070697
278.549	0.067225
278.918	0.067341
279.287	0.066708
279.656	0.075258
280.025	0.072692
280.394	0.061023
280.763	0.066571
281.132	0.069200
281.501	0.075513
281.869	0.074040
282.238	0.064921
282.607	0.066557
282.976	0.070394
283.344	0.073090
283.713	0.075457
284.081	0.076646
284.450	0.083189
284.819	0.090012
285.187	0.098221
285.556	0.106546
285.924	0.108638
286.292	0.107600
286.661	0.109617
287.029	0.113668
287.398	0.108254
287.766	0.109201
288.134	0.107662
288.502	0.108583
288.871	0.110901
289.239	0.110009
289.607	0.116970
289.975	0.114979
290.343	0.117635
290.711	0.117622
291.079	0.113831
291.447	0.117638
291.815	0.120812
292.183	0.121867
292.551	0.123759
292.919	0.112445
293.287	0.110359
293.655	0.107843
294.022	0.113250
294.390	0.118094
294.758	0.121299
295.126	0.122459
295.493	0.128068
295.861	0.137549
296.229	0.132751
296.596	0.137164
296.964	0.134278
297.331	0.128671
297.699	0.136016
298.066	0.136120
298.434	0.135056
298.801	0.139000
299.168	0.135026
299.536	0.137515
299.903	0.133470
300.270	0.134070
300.638	0.141674
301.005	0.150835
301.372	0.159753
301.739	0.166195
302.106	0.161636
302.473	0.163561
302.840	0.173086
303.207	0.187132
303.574	0.195677
303.941	0.213536
304.308	0.221651
304.675	0.234354
305.042	0.251357
305.409	0.274002
305.776	0.287527
306.143	0.302813
306.509	0.321751
306.876	0.350584
307.243	0.372232
307.610	0.397513
307.976	0.424308
308.343	0.453454
308.709	0.482651
309.076	0.513109
309.442	0.542455
309.809	0.578019
310.175	0.611056
310.542	0.640178
310.908	0.664806
311.275	0.687108
311.641	0.717965
312.007	0.749517
312.373	0.784553
312.740	0.810735
313.106	0.833783
313.472	0.866878
313.838	0.899555
314.204	0.927340
314.570	0.942850
314.936	0.963052
315.302	0.989812
315.668	1.013253
316.034	1.035713
316.400	1.065695
316.766	1.079355
317.132	1.103813
317.498	1.119926
317.864	1.132156
318.230	1.147996
318.595	1.167218
318.961	1.187554
319.327	1.204759
319.692	1.223138
320.058	1.233019
320.424	1.250696
320.789	1.264216
321.155	1.276847
321.520	1.293418
321.886	1.313636
322.251	1.329065
322.616	1.341883
322.982	1.348502
323.347	1.355790
323.712	1.366566
324.078	1.369523
324.443	1.379804
324.808	1.385345
325.173	1.399266
325.539	1.409829
325.904	1.416638
326.269	1.420635
326.634	1.425005
326.999	1.430404
327.364	1.432276
327.729	1.438103
328.094	1.442155
328.459	1.447689
328.823	1.450672
329.188	1.453637
329.553	1.453546
329.918	1.455597
330.283	1.459881
330.647	1.466334
331.012	1.470893
331.377	1.473373
331.741	1.475363
332.106	1.477788
332.470	1.480383
332.835	1.479940
333.199	1.481726
333.564	1.485855
333.928	1.489036
334.293	1.492993
334.657	1.491157
335.021	1.493592
335.386	1.494482
335.750	1.493941
336.114	1.494092
336.478	1.496736
336.843	1.495509
337.207	1.495474
337.571	1.499361
337.935	1.501630
338.299	1.500934
338.663	1.499408
339.027	1.500821
339.391	1.502188
339.755	1.502146
340.119	1.500786
340.483	1.499792
340.846	1.500607
341.210	1.499801
341.574	1.499564
341.938	1.498619
342.301	1.498880
342.665	1.499168
343.029	1.499242
343.392	1.499798
343.756	1.499422
344.119	1.497939
344.483	1.498953
344.846	1.498778
345.210	1.498447
345.573	1.496324
345.937	1.495191
346.300	1.495886
346.663	1.494618
347.027	1.494804
347.390	1.495385
347.753	1.495688
348.116	1.495887
348.479	1.495946
348.843	1.494523
349.206	1.493221
349.569	1.493028
349.932	1.494157
350.295	1.493233
350.658	1.493443
351.021	1.494773
351.383	1.495156
351.746	1.494510
352.109	1.494886
352.472	1.496064
352.835	1.496055
353.197	1.496786
353.560	1.498138
353.923	1.497346
354.285	1.497199
354.648	1.496106
355.011	1.495852
355.373	1.496478
355.736	1.497521
356.098	1.496674
356.461	1.497683
356.823	1.498057
357.185	1.499331
357.548	1.499393
357.910	1.499487
358.272	1.498947
358.635	1.497676
358.997	1.497126
359.359	1.499490
359.721	1.500031
360.083	1.500564
360.445	1.500606
360.807	1.500807
361.169	1.500847
361.531	1.502050
361.893	1.502749
362.255	1.504017
362.617	1.504354
362.979	1.504250
363.341	1.503395
363.703	1.503801
364.064	1.504177
364.426	1.504839
364.788	1.504723
365.149	1.505567
365.511	1.505814
365.873	1.507504
366.234	1.507835
366.596	1.508678
366.957	1.508496
367.319	1.508048
367.680	1.507704
368.042	1.507235
368.403	1.508011
368.764	1.508756
369.126	1.509159
369.487	1.509726
369.848	1.509997
370.209	1.511512
370.570	1.512007
370.931	1.513330
371.293	1.513606
371.654	1.514166
372.015	1.515595
372.376	1.516347
372.737	1.516099
373.098	1.516990
373.458	1.516765
373.819	1.518489
374.180	1.520250
374.541	1.520383
374.902	1.520564
375.263	1.521554
375.623	1.522461
375.984	1.523509
376.345	1.523571
376.705	1.524339
377.066	1.525374
377.426	1.525393
377.787	1.525347
378.147	1.526278
378.508	1.525379
378.868	1.526972
379.228	1.528563
379.589	1.528326
379.949	1.528962
380.309	1.529911
380.670	1.529758
381.030	1.530054
381.390	1.530376
381.750	1.529956
382.110	1.530852
382.470	1.532140
382.830	1.532407
383.190	1.533966
383.550	1.534691
383.910	1.536000
384.270	1.536711
384.630	1.537997
384.990	1.538994
385.350	1.539798
385.709	1.540177
386.069	1.542271
386.429	1.542082
386.788	1.542577
387.148	1.544330
387.508	1.545197
387.867	1.545973
388.227	1.547452
388.586	1.548909
388.946	1.549999
389.305	1.550405
389.665	1.551159
390.024	1.552465
390.383	1.553127
390.743	1.553350
391.102	1.553724
391.461	1.553515
391.820	1.553985
392.179	1.553522
392.539	1.554275
392.898	1.555434
393.257	1.556840
393.616	1.558319
393.975	1.559347
394.334	1.559535
394.693	1.559422
395.051	1.560390
395.410	1.561219
395.769	1.562908
396.128	1.563415
396.487	1.563382
396.845	1.564135
397.204	1.564226
397.563	1.564033
397.921	1.564217
398.280	1.564607
398.638	1.564388
398.997	1.565399
399.355	1.565655
399.714	1.566041
400.072	1.565979
400.431	1.564725
400.789	1.564185
401.147	1.563447
401.506	1.563150
401.864	1.563215
402.222	1.563177
402.580	1.561795
402.938	1.561842
403.297	1.560875
403.655	1.560502
404.013	1.560159
404.371	1.560251
404.729	1.560450
405.087	1.560389
405.444	1.560598
405.802	1.559964
406.160	1.559622
406.518	1.558883
406.876	1.558306
407.233	1.558356
407.591	1.558506
407.949	1.559517
408.306	1.559436
408.664	1.559803
409.022	1.560464
409.379	1.560125
409.737	1.559968
410.094	1.560804
410.451	1.561099
410.809	1.561145
411.166	1.560791
411.523	1.561640
411.881	1.562063
412.238	1.561538
412.595	1.560734
412.952	1.560913
413.310	1.560820
413.667	1.561051
414.024	1.562308
414.381	1.562292
414.738	1.561547
415.095	1.561140
415.452	1.560268
415.809	1.559943
416.165	1.559615
416.522	1.559071
416.879	1.558583
417.236	1.558149
417.593	1.557056
417.949	1.555939
418.306	1.555213
418.663	1.556232
419.019	1.555131
419.376	1.553967
419.732	1.553200
420.089	1.553888
420.445	1.552851
420.802	1.552899
421.158	1.552004
421.514	1.550886
421.871	1.550683
422.227	1.549913
422.583	1.549650
422.939	1.548748
423.295	1.548094
423.652	1.546918
424.008	1.545774
424.364	1.545439
424.720	1.544759
425.076	1.545152
425.432	1.544447
425.788	1.544022
426.143	1.542652
426.499	1.542337
426.855	1.542649
427.211	1.542595
427.567	1.541057
427.922	1.540826
428.278	1.538822
428.634	1.538608
428.989	1.537362
429.345	1.536355
429.700	1.536116
430.056	1.535487
430.411	1.535266
430.767	1.534452
431.122	1.533738
431.478	1.532733
431.833	1.531267
432.188	1.530159
432.543	1.528344
432.899	1.527462
433.254	1.526142
433.609	1.524560
433.964	1.523196
434.319	1.521205
434.674	1.519309
435.029	1.518491
435.384	1.516663
435.739	1.516118
436.094	1.514606
436.449	1.513054
436.804	1.511544
437.158	1.510020
437.513	1.508765
437.868	1.507008
438.223	1.505708
438.577	1.503471
438.932	1.502593
439.287	1.501579
439.641	1.499939
439.996	1.498924
440.350	1.496876
440.704	1.495833
441.059	1.494319
441.413	1.492026
441.768	1.490193
442.122	1.489281
442.476	1.486746
442.830	1.484816
443.185	1.483242
443.539	1.481311
443.893	1.479755
444.247	1.477289
444.601	1.475209
444.955	1.472419
445.309	1.470081
445.663	1.467434
446.017	1.465400
446.371	1.462550
446.724	1.459823
447.078	1.457550
447.432	1.454549
447.786	1.451916
448.139	1.448237
448.493	1.445312
448.847	1.442480
449.200	1.439286
449.554	1.435921
449.907	1.433482
450.261	1.430307
450.614	1.426901
450.968	1.423431
451.321	1.419640
451.674	1.416825
452.027	1.413326
452.381	1.410077
452.734	1.406867
453.087	1.403557
453.440	1.399766
453.793	1.396731
454.146	1.393448
454.499	1.389840
454.852	1.386174
455.205	1.382663
455.558	1.379387
455.911	1.376229
456.264	1.372831
456.617	1.369474
456.970	1.366178
457.322	1.362850
457.675	1.360287
458.028	1.357321
458.380	1.354730
458.733	1.352251
459.086	1.349157
459.438	1.346427
459.791	1.343145
460.143	1.340107
460.496	1.337218
460.848	1.334353
461.200	1.331076
461.553	1.327871
461.905	1.325406
462.257	1.322194
462.609	1.319499
462.961	1.316687
463.314	1.313644
463.666	1.310665
464.018	1.307742
464.370	1.304796
464.722	1.301902
465.074	1.298191
465.426	1.295542
465.777	1.292307
466.129	1.289095
466.481	1.286368
466.833	1.283473
467.184	1.281081
467.536	1.278131
467.888	1.275068
468.239	1.272073
468.591	1.268634
468.943	1.265038
469.294	1.260881
469.646	1.257417
469.997	1.253303
470.348	1.249739
470.700	1.246128
471.051	1.243071
471.402	1.240181
471.754	1.237148
472.105	1.234330
472.456	1.231737
472.807	1.228643
473.158	1.226197
473.509	1.223687
473.860	1.221092
474.211	1.218444
474.562	1.215650
474.913	1.213051
475.264	1.210403
475.615	1.207921
475.966	1.205645
476.316	1.202998
476.667	1.200560
477.018	1.198113
477.368	1.195961
477.719	1.193573
478.070	1.190959
478.420	1.188546
478.771	1.186019
479.121	1.183398
479.472	1.180783
479.822	1.178412
480.172	1.175954
480.523	1.173334
480.873	1.170577
481.223	1.167445
481.573	1.164496
481.924	1.161559
482.274	1.158660
482.624	1.156183
482.974	1.153907
483.324	1.151924
483.674	1.150232
484.024	1.148773
484.374	1.147335
484.724	1.145638
485.073	1.143974
485.423	1.142629
485.773	1.140981
486.123	1.139413
486.472	1.137789
486.822	1.136179
487.172	1.134687
487.521	1.133019
487.871	1.131357
488.220	1.129720
488.570	1.127951
488.919	1.125728
489.268	1.123189
489.618	1.120378
489.967	1.117024
490.316	1.113248
490.666	1.109575
491.015	1.105879
491.364	1.102402
491.713	1.099133
492.062	1.096168
492.411	1.093547
492.760	1.090744
493.109	1.088150
493.458	1.085495
493.807	1.083015
494.156	1.080450
494.505	1.077668
494.853	1.075082
495.202	1.072447
495.551	1.069771
495.900	1.067072
496.248	1.064354
496.597	1.061844
496.945	1.059294
497.294	1.056785
497.642	1.054340
497.991	1.051581
498.339	1.048918
498.688	1.046406
499.036	1.043974
499.384	1.041610
499.732	1.039088
500.081	1.036670
500.429	1.034224
500.777	1.031734
501.125	1.029275
501.473	1.026882
501.821	1.024583
502.169	1.022352
502.517	1.020080
502.865	1.017832
503.213	1.015577
503.561	1.013341
503.908	1.011071
504.256	1.008681
504.604	1.006405
504.952	1.003979
505.299	1.001441
505.647	0.999286
505.994	0.996731
506.342	0.994374
506.689	0.992155
507.037	0.989939
507.384	0.987528
507.732	0.985140
508.079	0.982897
508.426	0.980704
508.774	0.978484
509.121	0.976274
509.468	0.974072
509.815	0.971915
510.162	0.969670
510.509	0.967527
510.856	0.965447
511.203	0.963385
511.550	0.961293
511.897	0.959225
512.244	0.957362
512.591	0.955490
512.938	0.953515
513.284	0.951605
513.631	0.949624
513.978	0.947543
514.324	0.945560
514.671	0.943673
515.018	0.941710
515.364	0.939807
515.711	0.937943
516.057	0.935949
516.403	0.933982
516.750	0.932053
517.096	0.930179
517.443	0.928376
517.789	0.926641
518.135	0.924928
518.481	0.923044
518.827	0.921377
519.173	0.919645
519.519	0.917793
519.865	0.916127
520.211	0.914386
520.557	0.912560
520.903	0.910832
521.249	0.909142
521.595	0.907277
521.941	0.905292
522.287	0.903410
522.632	0.901457
522.978	0.899574
523.324	0.897744
523.669	0.896030
524.015	0.894242
524.360	0.892368
524.706	0.890524
525.051	0.888713
525.397	0.886812
525.742	0.885069
526.087	0.883403
526.433	0.881542
526.778	0.879921
527.123	0.878147
527.468	0.876351
527.813	0.874829
528.158	0.873042
528.504	0.871152
528.849	0.869194
529.193	0.867669
529.538	0.866036
529.883	0.864187
530.228	0.862175
530.573	0.860395
530.918	0.858461
531.263	0.856487
531.607	0.854654
531.952	0.852816
532.296	0.850953
532.641	0.849174
532.986	0.847142
533.330	0.845162
533.675	0.843395
534.019	0.841320
534.363	0.839353
534.708	0.837412
535.052	0.835406
535.396	0.833403
535.741	0.831613
536.085	0.829740
536.429	0.827623
536.773	0.825548
537.117	0.823561
537.461	0.821488
537.805	0.819183
538.149	0.816880
538.493	0.814744
538.837	0.812455
539.181	0.810077
539.524	0.807611
539.868	0.805196
540.212	0.802970
540.556	0.800614
540.899	0.798235
541.243	0.796014
541.586	0.793594
541.930	0.791138
542.273	0.788687
542.617	0.786253
542.960	0.783533
543.304	0.780844
543.647	0.778045
543.990	0.775295
544.333	0.772468
544.677	0.769722
545.020	0.767026
545.363	0.764293
545.706	0.761367
546.049	0.758659
546.392	0.755998
546.735	0.753374
547.078	0.750475
547.421	0.747500
547.764	0.744430
548.106	0.741320
548.449	0.738072
548.792	0.734921
549.135	0.731727
549.477	0.728429
549.820	0.725245
550.162	0.722108
550.505	0.718948
550.847	0.715758
551.190	0.712246
551.532	0.708668
551.875	0.704957
552.217	0.701194
552.559	0.697440
552.901	0.693849
553.244	0.690181
553.586	0.686618
553.928	0.683091
554.270	0.679712
554.612	0.676368
554.954	0.673021
555.296	0.669480
555.638	0.665912
555.980	0.662177
556.322	0.658168
556.663	0.654161
557.005	0.649948
557.347	0.645835
557.689	0.641722
558.030	0.637660
558.372	0.633653
558.713	0.629628
559.055	0.625675
559.396	0.621659
559.738	0.617527
560.079	0.613388
560.421	0.609357
560.762	0.605301
561.103	0.601285
561.444	0.597429
561.786	0.593483
562.127	0.589649
562.468	0.585761
562.809	0.581853
563.150	0.577715
563.491	0.573552
563.832	0.569235
564.173	0.564800
564.514	0.560201
564.855	0.555459
565.195	0.550693
565.536	0.545919
565.877	0.541207
566.218	0.536606
566.558	0.532089
566.899	0.527747
567.239	0.523589
567.580	0.519632
567.920	0.515997
568.261	0.512633
568.601	0.509379
568.941	0.506290
569.282	0.503286
569.622	0.500388
569.962	0.497413
570.302	0.494503
570.643	0.491727
570.983	0.489002
571.323	0.486373
571.663	0.483804
572.003	0.481255
572.343	0.478684
572.683	0.476023
573.022	0.473272
573.362	0.470372
573.702	0.467436
574.042	0.464574
574.381	0.461763
574.721	0.458997
575.061	0.456326
575.400	0.453774
575.740	0.451294
576.079	0.448845
576.419	0.446286
576.758	0.443625
577.097	0.440896
577.437	0.438077
577.776	0.435197
578.115	0.432358
578.454	0.429655
578.794	0.427188
579.133	0.424948
579.472	0.422871
579.811	0.420919
580.150	0.418967
580.489	0.416986
580.828	0.414895
581.167	0.412733
581.505	0.410537
581.844	0.408396
582.183	0.406222
582.522	0.404103
582.860	0.402041
583.199	0.400066
583.538	0.398187
583.876	0.396330
584.215	0.394488
584.553	0.392605
584.891	0.390706
585.230	0.388766
585.568	0.386763
585.906	0.384674
586.245	0.382628
586.583	0.380698
586.921	0.378953
587.259	0.377373
587.597	0.375860
587.935	0.374296
588.273	0.372589
588.611	0.370721
588.949	0.368721
589.287	0.366690
589.625	0.364612
589.963	0.362623
590.300	0.360682
590.638	0.358863
590.976	0.357090
591.313	0.355227
591.651	0.353403
591.989	0.351612
592.326	0.349909
592.664	0.348324
593.001	0.346840
593.338	0.345493
593.676	0.344247
594.013	0.342987
594.350	0.341767
594.687	0.340573
595.025	0.339469
595.362	0.338307
595.699	0.337108
596.036	0.335852
596.373	0.334595
596.710	0.333342
597.047	0.331998
597.384	0.330701
597.720	0.329392
598.057	0.328096
598.394	0.326832
598.731	0.325547
599.067	0.324285
599.404	0.323023
599.741	0.321852
600.077	0.320705
600.414	0.319614
600.750	0.318600
601.087	0.317636
601.423	0.316637
601.759	0.315646
602.096	0.314621
602.432	0.313660
602.768	0.312647
603.104	0.311647
603.440	0.310631
603.776	0.309637
604.112	0.308713
604.448	0.307802
604.784	0.306919
605.120	0.306024
605.456	0.305187
605.792	0.304401
606.128	0.303593
606.463	0.302832
606.799	0.301961
607.135	0.301149
607.470	0.300326
607.806	0.299488
608.142	0.298698
608.477	0.297926
608.812	0.297153
609.148	0.296377
609.483	0.295593
609.819	0.294822
610.154	0.294032
610.489	0.293218
610.824	0.292421
611.159	0.291679
611.494	0.290900
611.830	0.290246
612.165	0.289623
612.500	0.289004
612.834	0.288369
613.169	0.287748
613.504	0.287065
613.839	0.286396
614.174	0.285718
614.509	0.285045
614.843	0.284364
615.178	0.283706
615.512	0.283092
615.847	0.282515
616.182	0.281978
616.516	0.281445
616.850	0.280930
617.185	0.280384
617.519	0.279844
617.853	0.279331
618.188	0.278655
618.522	0.278006
618.856	0.277279
619.190	0.276601
619.524	0.275957
619.858	0.275332
620.192	0.274751
620.526	0.274180
620.860	0.273683
621.194	0.273191
621.528	0.272664
621.862	0.272161
622.195	0.271679
622.529	0.271150
622.863	0.270612
623.196	0.270066
623.530	0.269563
623.864	0.269080
624.197	0.268641
624.530	0.268160
624.864	0.267696
625.197	0.267309
625.531	0.266907
625.864	0.266440
626.197	0.265948
626.530	0.265498
626.863	0.264985
627.196	0.264431
627.529	0.263929
627.862	0.263375
628.195	0.262783
628.528	0.262286
628.861	0.261742
629.194	0.261249
629.527	0.260765
629.860	0.260293
630.192	0.259769
630.525	0.259210
630.858	0.258664
631.190	0.258075
631.523	0.257536
631.855	0.256870
632.188	0.256284
632.520	0.255772
632.852	0.255238
633.185	0.254759
633.517	0.254179
633.849	0.253698
634.182	0.253270
634.514	0.252882
634.846	0.252556
635.178	0.252270
635.510	0.251925
635.842	0.251623
636.174	0.251199
636.506	0.250874
636.837	0.250539
637.169	0.250226
637.501	0.249874
637.833	0.249594
638.164	0.249312
638.496	0.248978
638.828	0.248618
639.159	0.248250
639.491	0.247769
639.822	0.247320
640.154	0.246710
640.485	0.246140
640.816	0.245563
641.147	0.244977
641.479	0.244314
641.810	0.243695
642.141	0.243143
642.472	0.242517
642.803	0.241937
643.134	0.241385
643.465	0.240813
643.796	0.240345
644.127	0.239883
644.458	0.239578
644.789	0.239172
645.119	0.238944
645.450	0.238786
645.781	0.238837
646.111	0.238858
646.442	0.238868
646.773	0.238791
647.103	0.238679
647.433	0.238584
647.764	0.238400
648.094	0.238203
648.425	0.238111
648.755	0.238041
649.085	0.237818
649.415	0.237791
649.745	0.237688
650.075	0.237676
650.405	0.237566
650.735	0.235919
651.065	0.227418
651.395	0.220701
651.725	0.206475
652.055	0.167617
652.385	0.129145
652.715	0.100811
653.044	0.081713
653.374	0.067993
653.704	0.069390
654.033	0.083171
654.363	0.091246
654.692	0.095859
655.022	0.098521
655.351	0.100100
655.680	0.101013
656.010	0.101481
656.339	0.101668
656.668	0.101686
656.997	0.101614
657.326	0.101477
657.655	0.101261
657.984	0.099913
658.313	0.094227
658.642	0.086157
658.971	0.087673
659.300	0.099198
659.629	0.118729
659.958	0.146586
660.286	0.189676
660.615	0.223638
660.944	0.221133
661.272	0.218830
661.601	0.218210
661.929	0.219186
662.258	0.221142
662.586	0.223091
662.915	0.224574
663.243	0.225138
663.571	0.225379
663.899	0.225209
664.228	0.224945
664.556	0.224741
664.884	0.224555
665.212	0.224362
665.540	0.224178
665.868	0.223993
666.196	0.223926
666.524	0.223745
666.852	0.223574
667.179	0.223426
667.507	0.223306
667.835	0.223232
668.162	0.223072
668.490	0.223055
668.818	0.223038
669.145	0.223106
669.473	0.223210
669.800	0.223283
670.127	0.223438
670.455	0.223354
670.782	0.223403
671.109	0.223332
671.436	0.223338
671.764	0.223375
672.091	0.223271
672.418	0.223238
672.745	0.223131
673.072	0.223038
673.399	0.222932
673.726	0.222853
674.053	0.222783
674.379	0.222650
674.706	0.222505
675.033	0.222275
675.359	0.222031
675.686	0.221787
676.013	0.221502
676.339	0.221261
676.666	0.220979
676.992	0.220831
677.318	0.220736
677.645	0.220615
677.971	0.220579
678.297	0.220458
678.624	0.220260
678.950	0.220230
679.276	0.219971
679.602	0.219714
679.928	0.219514
680.254	0.219267
680.580	0.219117
680.906	0.218963
681.232	0.218959
681.558	0.219011
681.883	0.219124
682.209	0.219216
682.535	0.219212
682.860	0.219246
683.186	0.219198
683.511	0.219127
683.837	0.218892
684.162	0.218819
684.488	0.218639
684.813	0.218477
685.138	0.218305
685.464	0.218172
685.789	0.217938
686.114	0.217844
686.439	0.217776
686.764	0.217690
687.089	0.217633
687.414	0.217535
687.739	0.217446
688.064	0.217230
688.389	0.216991
688.714	0.216711
689.039	0.216354
689.363	0.216171
689.688	0.215884
690.013	0.215641
690.337	0.215442
690.662	0.215321
690.986	0.215181
691.311	0.215042
691.635	0.214973
691.959	0.214870
692.284	0.214679
692.608	0.214540
692.932	0.214428
693.256	0.214396
693.580	0.214342
693.904	0.214262
694.228	0.214295
694.552	0.214334
694.876	0.214404
695.200	0.214315
695.524	0.214122
695.848	0.213932
696.172	0.213649
696.495	0.213367
696.819	0.213122
697.143	0.212833
697.466	0.212526
697.790	0.212151
698.113	0.211918
698.437	0.211633
698.760	0.211381
699.083	0.211329
699.407	0.211278
699.730	0.211238
700.053	0.211160
700.376	0.210982
700.699	0.210733
701.022	0.210289
701.345	0.209732
701.668	0.209067
701.991	0.208375
702.314	0.207770
702.637	0.207210
702.960	0.206750
703.283	0.206515
703.605	0.206208
703.928	0.206214
704.251	0.206309
704.573	0.206382
704.896	0.206349
705.218	0.206172
705.540	0.205964
705.863	0.205549
706.185	0.205120
706.507	0.204576
706.830	0.204077
707.152	0.203531
707.474	0.203074
707.796	0.202689
708.118	0.202285
708.440	0.202016
708.762	0.201937
709.084	0.201815
709.406	0.201643
709.728	0.201431
710.049	0.201210
710.371	0.201026
710.693	0.200773
711.014	0.200339
711.336	0.199999
711.658	0.199703
711.979	0.199542
712.301	0.199362
712.622	0.199260
712.943	0.199093
713.265	0.199047
713.586	0.198811
713.907	0.198740
714.228	0.198744
714.549	0.198705
714.870	0.198803
715.191	0.198830
715.512	0.198822
715.833	0.198846
716.154	0.198774
716.475	0.198664
716.796	0.198473
717.117	0.198188
717.437	0.197665
717.758	0.197345
718.078	0.196894
718.399	0.196550
718.719	0.196206
719.040	0.195939
719.360	0.195694
719.681	0.195483
720.001	0.195270
720.321	0.195255
720.642	0.195063
720.962	0.194785
721.282	0.194717
721.602	0.194522
721.922	0.194450
722.242	0.194254
722.562	0.194203
722.882	0.194172
723.202	0.194170
723.521	0.194134
723.841	0.194092
724.161	0.194121
724.481	0.194098
724.800	0.194088
725.120	0.194033
725.439	0.193981
725.759	0.193938
726.078	0.193997
726.398	0.193975
726.717	0.194081
727.036	0.194242
727.355	0.194520
727.675	0.194804
727.994	0.194910
728.313	0.195155
728.632	0.195184
728.951	0.195328
729.270	0.195145
729.589	0.195026
729.908	0.194877
730.226	0.194716
730.545	0.194633
730.864	0.194503
731.182	0.194412
731.501	0.194384
731.820	0.194330
732.138	0.194350
732.457	0.194206
732.775	0.194118
733.093	0.194135
733.412	0.194050
733.730	0.193897
734.048	0.193691
734.367	0.193334
734.685	0.193006
735.003	0.192581
735.321	0.192357
735.639	0.192087
735.957	0.191997
736.275	0.191899
736.593	0.191814
736.910	0.191733
737.228	0.191646
737.546	0.191604
737.863	0.191472
738.181	0.191196
738.499	0.190933
738.816	0.190663
739.134	0.190515
739.451	0.190299
739.768	0.190079
740.086	0.189752
740.403	0.189473
740.720	0.189174
741.038	0.189055
741.355	0.188891
741.672	0.188656
741.989	0.188313
742.306	0.187925
742.623	0.187441
742.940	0.186939
743.257	0.186487
743.573	0.186065
743.890	0.185600
744.207	0.185184
744.523	0.184892
744.840	0.184702
745.157	0.184520
745.473	0.184207
745.790	0.184063
746.106	0.183735
746.422	0.183590
746.739	0.183571
747.055	0.183393
747.371	0.183355
747.687	0.183456
748.004	0.183461
748.320	0.183586
748.636	0.183603
748.952	0.183555
749.268	0.183702
749.584	0.183742
749.899	0.183706
750.215	0.183743
750.531	0.183846
750.847	0.183861
751.162	0.183893
751.478	0.184009
751.793	0.184048
752.109	0.184038
752.424	0.184052
752.740	0.184190
753.055	0.184240
753.370	0.184338
753.686	0.184717
754.001	0.185108
754.316	0.185425
754.631	0.185768
754.946	0.185988
755.261	0.186232
755.576	0.186392
755.891	0.186410
756.206	0.186495
756.521	0.186545
756.836	0.186571
757.150	0.186653
757.465	0.186735
757.780	0.186789
758.094	0.186885
758.409	0.186950
758.723	0.187057
759.038	0.187059
759.352	0.187061
759.667	0.187027
759.981	0.186960
760.295	0.186690
760.609	0.186443
760.923	0.186235
761.238	0.185908
761.552	0.185706
761.866	0.185526
762.180	0.185463
762.493	0.185496
762.807	0.185457
763.121	0.185348
763.435	0.185195
763.749	0.184873
764.062	0.184661
764.376	0.184438
764.689	0.184107
765.003	0.183923
765.316	0.183786
765.630	0.183827
765.943	0.183812
766.257	0.183825
766.570	0.183678
766.883	0.183584
767.196	0.183338
767.509	0.182916
767.822	0.182726
768.135	0.182428
768.448	0.182101
768.761	0.181734
769.074	0.181334
769.387	0.180969
769.700	0.180740
770.013	0.180560
770.325	0.180472
770.638	0.180382
770.950	0.180237
771.263	0.180094
771.575	0.179849
771.888	0.179519
772.200	0.179114
772.513	0.178621
772.825	0.178139
773.137	0.177759
773.449	0.177408
773.761	0.177091
774.074	0.176911
774.386	0.176633
774.698	0.176420
775.010	0.176141
775.321	0.175941
775.633	0.175686
775.945	0.175682
776.257	0.175706
776.568	0.175726
776.880	0.175621
777.192	0.175483
777.503	0.175442
777.815	0.175523
778.126	0.175572
778.438	0.175728
778.749	0.175929
779.060	0.176182
779.372	0.176299
779.683	0.176428
779.994	0.176537
780.305	0.176609
780.616	0.176699
780.927	0.176748
781.238	0.176694
781.549	0.176815
781.860	0.176889
782.171	0.177030
782.481	0.177005
782.792	0.176933
783.103	0.176796
783.413	0.176873
783.724	0.176756
784.034	0.176665
784.345	0.176497
784.655	0.176427
784.966	0.176308
785.276	0.176154
785.586	0.176015
785.896	0.175934
786.207	0.175931
786.517	0.175828
786.827	0.175763
787.137	0.175644
787.447	0.175609
787.757	0.175696
788.066	0.175562
788.376	0.175580
788.686	0.175541
788.996	0.175567
789.305	0.175485
789.615	0.175524
789.925	0.175374
790.234	0.175384
790.544	0.175527
790.853	0.175666
791.162	0.175799
791.472	0.175966
791.781	0.176048
792.090	0.176174
792.399	0.176083
792.708	0.175926
793.017	0.175862
793.326	0.175773
793.635	0.175658
793.944	0.175353
794.253	0.175044
794.562	0.174898
794.871	0.174653
795.179	0.174474
795.488	0.174361
795.797	0.174373
796.105	0.174184
796.414	0.174120
796.722	0.174020
797.031	0.173746
797.339	0.173468
797.647	0.172928
797.956	0.172393
798.264	0.171738
798.572	0.171106
798.880	0.170676
799.188	0.170312
799.496	0.170009
799.804	0.169743
800.112	0.169641
800.420	0.169582
800.728	0.169517
801.035	0.169246
801.343	0.168957
801.651	0.168456
801.958	0.168075
802.266	0.167757
802.573	0.167781
802.881	0.167896
803.188	0.167867
803.496	0.167997
803.803	0.168003
804.110	0.168283
804.417	0.168251
804.724	0.168308
805.032	0.168179
805.339	0.168180
805.646	0.168148
805.953	0.167914
806.259	0.167917
806.566	0.167658
806.873	0.167593
807.180	0.167470
807.486	0.167443
807.793	0.167525
808.100	0.167554
808.406	0.167490
808.713	0.167284
809.019	0.166884
809.326	0.166335
809.632	0.165962
809.938	0.165235
810.244	0.164657
810.551	0.164159
810.857	0.163704
811.163	0.163308
811.469	0.163222
811.775	0.163130
812.081	0.162824
812.387	0.162845
812.692	0.162494
812.998	0.162513
813.304	0.162446
813.610	0.162396
813.915	0.162317
814.221	0.162124
814.526	0.162158
814.832	0.162095
815.137	0.162114
815.443	0.162054
815.748	0.162077
816.053	0.162000
816.358	0.161839
816.664	0.161803
816.969	0.161585
817.274	0.161715
817.579	0.161651
817.884	0.161280
818.189	0.160895
818.493	0.160887
818.798	0.160964
819.103	0.160875
819.408	0.160504
819.712	0.160157
820.017	0.159894
820.321	0.159699
820.626	0.159393
820.930	0.158955
821.235	0.158740
821.539	0.158439
821.843	0.158297
822.148	0.158147
822.452	0.158145
822.756	0.158306
823.060	0.158094
823.364	0.157961
823.668	0.157713
823.972	0.157482
824.276	0.157320
824.580	0.157337
824.883	0.157152
825.187	0.157062
825.491	0.157091
825.795	0.157180
826.098	0.157272
826.402	0.157372
826.705	0.157258
827.008	0.157035
827.312	0.156995
827.615	0.156641
827.918	0.156321
828.222	0.155938
828.525	0.155519
828.828	0.155328
829.131	0.155110
829.434	0.154828
829.737	0.154255
830.040	0.153460
830.343	0.152949
830.645	0.152820
830.948	0.152224
831.251	0.152151
831.553	0.151363
831.856	0.151043
832.159	0.151116
832.461	0.151038
832.764	0.150493
833.066	0.150163
833.368	0.150155
833.671	0.149938
833.973	0.149770
834.275	0.149740
834.577	0.149721
834.879	0.149611
835.181	0.148967
835.483	0.148425
835.785	0.147978
836.087	0.147721
836.389	0.147878
836.690	0.147533
836.992	0.146266
837.294	0.145267
837.595	0.143922
837.897	0.143181
838.198	0.142124
838.500	0.140595
838.801	0.139506
839.103	0.139129
839.404	0.138926
839.705	0.137789
840.006	0.137085
840.307	0.136685
840.608	0.136252
840.910	0.136291
841.210	0.136230
841.511	0.136116
841.812	0.136027
842.113	0.136211
842.414	0.135628
842.715	0.134624
843.015	0.133796
843.316	0.133408
843.616	0.133194
843.917	0.132425
844.217	0.131964
844.518	0.131669
844.818	0.131599
845.118	0.131489
845.419	0.131163
845.719	0.130517
846.019	0.130383
846.319	0.130782
846.619	0.130367
846.919	0.131153
847.219	0.130770
847.519	0.130553
847.819	0.130512
848.118	0.129851
848.418	0.129734
848.718	0.129924
849.017	0.130271
849.317	0.130943
849.616	0.131721
849.916	0.131975
850.215	0.133148
850.515	0.133638
850.814	0.134288
851.113	0.134792
851.412	0.135206
851.712	0.135214
852.011	0.135124
852.310	0.135558
852.609	0.135501
852.908	0.135739
853.206	0.135690
853.505	0.136198
853.804	0.136434
854.103	0.136608
854.401	0.136997
854.700	0.136779
854.999	0.136568
855.297	0.136368
855.595	0.136220
855.894	0.135874
856.192	0.135742
856.491	0.135322
856.789	0.134918
857.087	0.133848
857.385	0.132825
857.683	0.132089
857.981	0.131736
858.279	0.131638
858.577	0.130594
858.875	0.129998
859.173	0.129224
859.471	0.128776
859.768	0.127609
860.066	0.126670
860.363	0.125881
860.661	0.124317
860.959	0.124329
861.256	0.124255
861.553	0.124256
861.851	0.123589
862.148	0.123072
862.445	0.123158
862.742	0.122458
863.039	0.121612
863.337	0.121429
863.634	0.120854
863.931	0.119701
864.227	0.118855
864.524	0.117955
864.821	0.117943
865.118	0.117481
865.415	0.117276
865.711	0.116382
866.008	0.115493
866.304	0.115513
866.601	0.114537
866.897	0.114346
867.194	0.113637
867.490	0.113189
867.786	0.112472
868.082	0.112220
868.379	0.112051
868.675	0.111474
868.971	0.111668
869.267	0.112178
869.563	0.113021
869.859	0.112960
870.154	0.113299
870.450	0.112996
870.746	0.112894
871.042	0.113351
871.337	0.113604
871.633	0.113673
871.928	0.113858
872.224	0.113938
872.519	0.112547
872.815	0.113391
873.110	0.113821
873.405	0.113511
873.700	0.113449
873.995	0.113380
874.291	0.112552
874.586	0.113061
874.881	0.113160
875.175	0.112913
875.470	0.112579
875.765	0.112376
876.060	0.113194
876.355	0.113240
876.649	0.113584
876.944	0.114007
877.238	0.113909
877.533	0.113972
877.827	0.114503
878.122	0.114590
878.416	0.115216
878.710	0.116232
879.005	0.115296
879.299	0.114901
879.593	0.114541
879.887	0.113838
880.181	0.113427
880.475	0.114504
880.769	0.114418
881.063	0.114349
881.356	0.114156
881.650	0.113792
881.944	0.113217
882.238	0.099269
882.531	0.104723
882.825	0.091324
883.118	0.098376
883.412	0.120879
883.705	0.112838
883.998	0.115493
884.291	0.109074
884.585	0.101846
884.878	0.107974
>>>>>>>>>> END of Data <<<<<<<<<<
>>>>>>>>>> Raw Data Start <<<<<<<<
190.664	-406
191.040	7
191.415	7
191.791	3
192.166	4
192.542	6
192.917	9
193.293	9
193.668	8
194.044	10
194.419	-10
194.794	10
195.170	10
195.545	10
195.920	11
196.296	11
196.671	12
197.046	12
197.421	13
197.796	13
198.171	13
198.546	13
198.922	14
199.297	14
199.672	14
200.047	14
200.422	15
200.796	15
201.171	15
201.546	15
201.921	15
202.296	15
202.671	15
203.045	15
203.420	15
203.795	15
204.170	15
204.544	15
204.919	15
205.294	15
205.668	15
206.043	15
206.417	15
206.792	15
207.166	14
207.541	14
207.915	14
208.289	14
208.664	14
209.038	14
209.412	14
209.787	14
210.161	13
210.535	14
210.909	14
211.284	14
211.658	14
212.032	14
212.406	14
212.780	14
213.154	14
213.528	14
213.902	13
214.276	14
214.650	13
215.024	14
215.398	14
215.772	14
216.145	14
216.519	14
216.893	14
217.267	13
217.640	14
218.014	14
218.388	14
218.761	14
219.135	14
219.508	14
219.882	14
220.256	14
220.629	14
221.003	14
221.376	14
221.749	14
222.123	14
222.496	14
222.869	14
223.243	14
223.616	14
223.989	14
224.362	14
224.736	14
225.109	15
225.482	15
225.855	15
226.228	14
226.601	15
226.974	15
227.347	14
227.720	14
228.093	14
228.466	14
228.839	14
229.212	14
229.585	14
229.957	14
230.330	14
230.703	14
231.076	15
231.448	14
231.821	14
232.194	14
232.566	14
232.939	14
233.311	14
233.684	14
234.056	14
234.429	14
234.801	14
235.174	14
235.546	14
235.918	15
236.291	15
236.663	15
237.035	15
237.408	16
237.780	16
238.152	16
238.524	16
238.896	16
239.268	16
239.641	17
240.013	17
240.385	17
240.757	17
241.129	17
241.500	17
241.872	17
242.244	17
242.616	17
242.988	17
243.360	16
243.731	16
244.103	16
244.475	16
244.847	16
245.218	16
245.590	16
245.961	16
246.333	16
246.705	16
247.076	16
247.448	16
247.819	15
248.190	15
248.562	16
248.933	16
249.305	16
249.676	16
250.047	16
250.418	16
250.790	16
251.161	16
251.532	16
251.903	16
252.274	16
252.645	15
253.016	15
253.387	16
253.758	16
254.129	16
254.500	16
254.871	16
255.242	16
255.613	17
255.984	17
256.355	16
256.725	16
257.096	16
257.467	16
257.838	16
258.208	16
258.579	16
258.949	16
259.320	16
259.690	16
260.061	16
260.431	16
260.802	16
261.172	16
261.543	16
261.913	16
262.283	16
262.654	16
263.024	16
263.394	16
263.764	16
264.135	16
264.505	16
264.875	16
265.245	16
265.615	16
265.985	16
266.355	16
266.725	16
267.095	17
267.465	17
267.835	17
268.205	17
268.575	17
268.944	17
269.314	17
269.684	17
270.054	16
270.423	16
270.793	16
271.163	16
271.532	16
271.902	16
272.271	16
272.641	16
273.010	16
273.380	16
273.749	16
274.119	16
274.488	16
274.857	16
275.227	16
275.596	16
275.965	16
276.335	17
276.704	17
277.073	17
277.442	17
277.811	17
278.180	17
278.549	17
278.918	18
279.287	18
279.656	18
280.025	18
280.394	18
280.763	18
281.132	18
281.501	18
281.869	18
282.238	18
282.607	18
282.976	17
283.344	17
283.713	17
284.081	17
284.450	17
284.819	17
285.187	16
285.556	16
285.924	16
286.292	16
286.661	16
287.029	15
287.398	16
287.766	16
288.134	16
288.502	16
288.871	16
289.239	16
289.607	16
289.975	16
290.343	16
290.711	16
291.079	16
291.447	16
291.815	16
292.183	16
292.551	16
292.919	17
293.287	17
293.655	17
294.022	17
294.390	17
294.758	17
295.126	16
295.493	16
295.861	16
296.229	16
296.596	16
296.964	16
297.331	16
297.699	16
298.066	16
298.434	17
298.801	17
299.168	17
299.536	17
299.903	17
300.270	17
300.638	17
301.005	17
301.372	17
301.739	17
302.106	18
302.473	18
302.840	18
303.207	18
303.574	19
303.941	18
304.308	19
304.675	19
305.042	19
305.409	18
305.776	19
306.143	19
306.509	19
306.876	19
307.243	19
307.610	19
307.976	19
308.343	19
308.709	19
309.076	19
309.442	19
309.809	19
310.175	19
310.542	19
310.908	19
311.275	19
311.641	19
312.007	19
312.373	19
312.740	19
313.106	20
313.472	20
313.838	19
314.204	19
314.570	20
314.936	21
315.302	21
315.668	21
316.034	21
316.400	21
316.766	21
317.132	21
317.498	22
317.864	22
318.230	23
318.595	23
318.961	23
319.327	23
319.692	24
320.058	24
320.424	24
320.789	25
321.155	25
321.520	26
321.886	26
322.251	26
322.616	27
322.982	28
323.347	29
323.712	29
324.078	31
324.443	31
324.808	32
325.173	33
325.539	33
325.904	34
326.269	35
326.634	36
326.999	37
327.364	38
327.729	39
328.094	40
328.459	41
328.823	42
329.188	43
329.553	44
329.918	46
330.283	46
330.647	47
331.012	48
331.377	49
331.741	50
332.106	51
332.470	52
332.835	53
333.199	54
333.564	55
333.928	56
334.293	57
334.657	58
335.021	59
335.386	60
335.750	62
336.114	63
336.478	64
336.843	66
337.207	67
337.571	68
337.935	69
338.299	70
338.663	72
339.027	73
339.391	74
339.755	75
340.119	77
340.483	78
340.846	79
341.210	81
341.574	82
341.938	83
342.301	85
342.665	86
343.029	87
343.392	88
343.756	89
344.119	91
344.483	92
344.846	93
345.210	95
345.573	96
345.937	98
346.300	99
346.663	100
347.027	101
347.390	102
347.753	103
348.116	104
348.479	105
348.843	107
349.206	108
349.569	109
349.932	110
350.295	111
350.658	112
351.021	112
351.383	113
351.746	114
352.109	115
352.472	116
352.835	117
353.197	117
353.560	118
353.923	119
354.285	120
354.648	121
355.011	122
355.373	122
355.736	123
356.098	124
356.461	124
356.823	125
357.185	125
357.548	126
357.910	127
358.272	128
358.635	129
358.997	130
359.359	130
359.721	130
360.083	131
360.445	131
360.807	132
361.169	133
361.531	133
361.893	133
362.255	134
362.617	134
362.979	135
363.341	136
363.703	137
364.064	137
364.426	138
364.788	138
365.149	139
365.511	140
365.873	140
366.234	140
366.596	140
366.957	141
367.319	141
367.680	142
368.042	143
368.403	143
368.764	143
369.126	143
369.487	143
369.848	143
370.209	143
370.570	143
370.931	143
371.293	143
371.654	143
372.015	143
372.376	143
372.737	143
373.098	143
373.458	143
373.819	143
374.180	143
374.541	144
374.902	144
375.263	144
375.623	145
375.984	145
376.345	146
376.705	146
377.066	146
377.426	147
377.787	148
378.147	148
378.508	149
378.868	149
379.228	149
379.589	149
379.949	150
380.309	150
380.670	150
381.030	151
381.390	151
381.750	151
382.110	151
382.470	151
382.830	151
383.190	151
383.550	151
383.910	151
384.270	151
384.630	151
384.990	152
385.350	152
385.709	152
386.069	152
386.429	153
386.788	153
387.148	153
387.508	153
387.867	153
388.227	153
388.586	153
388.946	154
389.305	155
389.665	155
390.024	156
390.383	156
390.743	157
391.102	158
391.461	158
391.820	158
392.179	159
392.539	159
392.898	159
393.257	159
393.616	159
393.975	159
394.334	160
394.693	161
395.051	162
395.410	163
395.769	164
396.128	164
396.487	165
396.845	164
397.204	165
397.563	165
397.921	165
398.280	164
398.638	165
398.997	164
399.355	164
399.714	164
400.072	165
400.431	165
400.789	166
401.147	166
401.506	167
401.864	167
402.222	167
402.580	167
402.938	166
403.297	166
403.655	166
404.013	166
404.371	165
404.729	165
405.087	165
405.444	165
405.802	165
406.160	166
406.518	166
406.876	166
407.233	166
407.591	166
407.949	166
408.306	166
408.664	165
409.022	165
409.379	165
409.737	165
410.094	165
410.451	165
410.809	165
411.166	166
411.523	165
411.881	165
412.238	166
412.595	166
412.952	166
413.310	166
413.667	166
414.024	166
414.381	166
414.738	166
415.095	166
415.452	167
415.809	167
416.165	167
416.522	167
416.879	168
417.236	169
417.593	170
417.949	171
418.306	173
418.663	174
419.019	176
419.376	178
419.732	179
420.089	180
420.445	182
420.802	183
421.158	184
421.514	186
421.871	186
422.227	187
422.583	188
422.939	189
423.295	189
423.652	190
424.008	191
424.364	191
424.720	192
425.076	191
425.432	191
425.788	191
426.143	192
426.499	192
426.855	192
427.211	192
427.567	193
427.922	194
428.278	194
428.634	194
428.989	195
429.345	195
429.700	195
430.056	196
430.411	196
430.767	197
431.122	198
431.478	199
431.833	200
432.188	200
432.543	201
432.899	201
433.254	201
433.609	201
433.964	201
434.319	201
434.674	201
435.029	201
435.384	202
435.739	202
436.094	203
436.449	204
436.804	206
437.158	207
437.513	209
437.868	211
438.223	213
438.577	216
438.932	218
439.287	221
439.641	223
439.996	226
440.350	228
440.704	231
441.059	233
441.413	236
441.768	239
442.122	241
442.476	244
442.830	247
443.185	249
443.539	251
443.893	253
444.247	256
444.601	257
444.955	259
445.309	260
445.663	261
446.017	261
446.371	262
446.724	262
447.078	263
447.432	263
447.786	263
448.139	264
448.493	264
448.847	263
449.200	263
449.554	264
449.907	263
450.261	263
450.614	263
450.968	263
451.321	264
451.674	264
452.027	264
452.381	264
452.734	265
453.087	265
453.440	266
453.793	267
454.146	269
454.499	271
454.852	273
455.205	276
455.558	279
455.911	281
456.264	284
456.617	287
456.970	290
457.322	292
457.675	294
458.028	296
458.380	298
458.733	299
459.086	301
459.438	303
459.791	306
460.143	309
460.496	312
460.848	315
461.200	320
461.553	324
461.905	328
462.257	331
462.609	334
462.961	337
463.314	340
463.666	343
464.018	345
464.370	348
464.722	350
465.074	354
465.426	356
465.777	359
466.129	361
466.481	363
466.833	364
467.184	365
467.536	365
467.888	365
468.239	365
468.591	365
468.943	366
469.294	367
469.646	368
469.997	370
470.348	373
470.700	377
471.051	381
471.402	385
471.754	391
472.105	396
472.456	402
472.807	409
473.158	416
473.509	424
473.860	433
474.211	442
474.562	452
474.913	462
475.264	472
475.615	482
475.966	492
476.316	502
476.667	512
477.018	523
477.368	533
477.719	543
478.070	554
478.420	563
478.771	573
479.121	583
479.472	593
479.822	602
480.172	613
480.523	626
480.873	643
481.223	670
481.573	711
481.924	761
482.274	819
482.624	879
482.974	939
483.324	992
483.674	1033
484.024	1060
484.374	1079
484.724	1092
485.073	1101
485.423	1108
485.773	1116
486.123	1123
486.472	1130
486.822	1137
487.172	1142
487.521	1147
487.871	1150
488.220	1148
488.570	1134
488.919	1108
489.268	1072
489.618	1028
489.967	982
490.316	935
490.666	894
491.015	865
491.364	849
491.713	841
492.062	840
492.411	842
492.760	846
493.109	850
493.458	854
493.807	858
494.156	861
494.505	865
494.853	868
495.202	873
495.551	879
495.900	885
496.248	891
496.597	898
496.945	904
497.294	909
497.642	916
497.991	923
498.339	932
498.688	941
499.036	949
499.384	957
499.732	964
500.081	970
500.429	976
500.777	981
501.125	986
501.473	991
501.821	997
502.169	1001
502.517	1006
502.865	1009
503.213	1012
503.561	1014
503.908	1016
504.256	1017
504.604	1018
504.952	1019
505.299	1020
505.647	1019
505.994	1017
506.342	1016
506.689	1014
507.037	1012
507.384	1012
507.732	1012
508.079	1012
508.426	1012
508.774	1013
509.121	1013
509.468	1013
509.815	1012
510.162	1012
510.509	1012
510.856	1011
511.203	1009
511.550	1008
511.897	1008
512.244	1006
512.591	1005
512.938	1004
513.284	1004
513.631	1002
513.978	1001
514.324	999
514.671	997
515.018	995
515.364	993
515.711	992
516.057	990
516.403	989
516.750	987
517.096	984
517.443	981
517.789	978
518.135	975
518.481	973
518.827	971
519.173	968
519.519	966
519.865	964
520.211	963
520.557	961
520.903	960
521.249	959
521.595	958
521.941	958
522.287	957
522.632	956
522.978	956
523.324	956
523.669	956
524.015	957
524.360	959
524.706	963
525.051	968
525.397	973
525.742	979
526.087	985
526.433	991
526.778	996
527.123	1000
527.468	1004
527.813	1007
528.158	1010
528.504	1015
528.849	1021
529.193	1028
529.538	1036
529.883	1047
530.228	1059
530.573	1072
530.918	1086
531.263	1101
531.607	1114
531.952	1126
532.296	1136
532.641	1144
532.986	1151
533.330	1158
533.675	1164
534.019	1173
534.363	1184
534.708	1197
535.052	1212
535.396	1228
535.741	1242
536.085	1256
536.429	1268
536.773	1279
537.117	1287
537.461	1295
537.805	1302
538.149	1309
538.493	1317
538.837	1326
539.181	1336
539.524	1349
539.868	1364
540.212	1380
540.556	1397
540.899	1415
541.243	1431
541.586	1445
541.930	1457
542.273	1465
542.617	1472
542.960	1480
543.304	1489
543.647	1502
543.990	1517
544.333	1534
544.677	1552
545.020	1569
545.363	1584
545.706	1596
546.049	1605
546.392	1611
546.735	1613
547.078	1616
547.421	1619
547.764	1622
548.106	1627
548.449	1634
548.792	1643
549.135	1656
549.477	1672
549.820	1687
550.162	1700
550.505	1712
550.847	1720
551.190	1727
551.532	1734
551.875	1740
552.217	1747
552.559	1756
552.901	1767
553.244	1781
553.586	1796
553.928	1812
554.270	1826
554.612	1838
554.954	1848
555.296	1857
555.638	1867
555.980	1876
556.322	1888
556.663	1903
557.005	1924
557.347	1949
557.689	1975
558.030	2001
558.372	2026
558.713	2049
559.055	2071
559.396	2093
559.738	2116
560.079	2141
560.421	2169
560.762	2200
561.103	2235
561.444	2272
561.786	2311
562.127	2352
562.468	2397
562.809	2445
563.150	2500
563.491	2558
563.832	2622
564.173	2695
564.514	2779
564.855	2879
565.195	3000
565.536	3145
565.877	3313
566.218	3503
566.558	3719
566.899	3955
567.239	4210
567.580	4479
567.920	4755
568.261	5034
568.601	5321
568.941	5618
569.282	5925
569.622	6243
569.962	6576
570.302	6932
570.643	7298
570.983	7670
571.323	8031
571.663	8381
572.003	8714
572.343	9029
572.683	9327
573.022	9630
573.362	9951
573.702	10284
574.042	10617
574.381	10938
574.721	11246
575.061	11542
575.400	11815
575.740	12058
576.079	12277
576.419	12496
576.758	12743
577.097	13032
577.437	13347
577.776	13683
578.115	14035
578.454	14391
578.794	14720
579.133	14979
579.472	15165
579.811	15281
580.150	15333
580.489	15337
580.828	15318
581.167	15303
581.505	15301
581.844	15304
582.183	15307
582.522	15320
582.860	15342
583.199	15363
583.538	15362
583.876	15313
584.215	15201
584.553	15017
584.891	14767
585.230	14455
585.568	14108
585.906	13753
586.245	13433
586.583	13158
586.921	12930
587.259	12724
587.597	12515
587.935	12298
588.273	12076
588.611	11870
588.949	11690
589.287	11541
589.625	11428
589.963	11341
590.300	11275
590.638	11215
590.976	11145
591.313	11062
591.651	10982
591.989	10914
592.326	10860
592.664	10816
593.001	10780
593.338	10761
593.676	10756
594.013	10772
594.350	10821
594.687	10899
595.025	10983
595.362	11062
595.699	11122
596.036	11164
596.373	11182
596.710	11170
597.047	11140
597.384	11100
597.720	11054
598.057	11019
598.394	10995
598.731	10986
599.067	10995
599.404	11024
599.741	11077
600.077	11148
600.414	11228
600.750	11311
601.087	11376
601.423	11411
601.759	11422
602.096	11410
602.432	11385
602.768	11343
603.104	11281
603.440	11202
603.776	11118
604.112	11024
604.448	10929
604.784	10828
605.120	10720
605.456	10615
605.792	10503
606.128	10385
606.463	10264
606.799	10143
607.135	10032
607.470	9923
607.806	9814
608.142	9707
608.477	9604
608.812	9506
609.148	9407
609.483	9302
609.819	9195
610.154	9093
610.489	8999
610.824	8918
611.159	8849
611.494	8780
611.830	8719
612.165	8659
612.500	8592
612.834	8514
613.169	8423
613.504	8324
613.839	8213
614.174	8087
614.509	7959
614.843	7831
615.178	7710
615.512	7590
615.847	7471
616.182	7353
616.516	7234
616.850	7108
617.185	6977
617.519	6844
617.853	6699
618.188	6551
618.522	6415
618.856	6300
619.190	6199
619.524	6111
619.858	6041
620.192	5986
620.526	5938
620.860	5890
621.194	5844
621.528	5798
621.862	5753
622.195	5698
622.529	5639
622.863	5578
623.196	5517
623.530	5455
623.864	5392
624.197	5329
624.530	5267
624.864	5212
625.197	5155
625.531	5089
625.864	5010
626.197	4926
626.530	4835
626.863	4732
627.196	4620
627.529	4506
627.862	4394
628.195	4283
628.528	4173
628.861	4067
629.194	3972
629.527	3882
629.860	3793
630.192	3705
630.525	3622
630.858	3546
631.190	3474
631.523	3403
631.855	3338
632.188	3281
632.520	3227
632.852	3177
633.185	3125
633.517	3076
633.849	3031
634.182	2990
634.514	2951
634.846	2915
635.178	2884
635.510	2857
635.842	2831
636.174	2807
636.506	2783
636.837	2759
637.169	2735
637.501	2710
637.833	2683
638.164	2651
638.496	2616
638.828	2577
639.159	2533
639.491	2486
639.822	2436
640.154	2387
640.485	2338
640.816	2289
641.147	2241
641.479	2194
641.810	2150
642.141	2106
642.472	2063
642.803	2021
643.134	1980
643.465	1946
643.796	1918
644.127	1898
644.458	1888
644.789	1888
645.119	1899
645.450	1916
645.781	1936
646.111	1956
646.442	1974
646.773	1988
647.103	1999
647.433	2008
647.764	2018
648.094	2031
648.425	2048
648.755	2068
649.085	2091
649.415	2115
649.745	2141
650.075	2166
650.405	2195
650.735	2259
651.065	2712
651.395	4111
651.725	6453
652.055	9461
652.385	12958
652.715	16627
653.044	20298
653.374	23973
653.704	26917
654.033	29008
654.363	30462
654.692	31436
655.022	32078
655.351	32502
655.680	32768
656.010	32914
656.339	32981
656.668	33000
656.997	32994
657.326	32971
657.655	32902
657.984	32436
658.313	31015
658.642	28644
658.971	25600
659.300	22062
659.629	18351
659.958	14641
660.286	10931
660.615	7957
660.944	5842
661.272	4366
661.601	3372
661.929	2709
662.258	2259
662.586	1964
662.915	1784
663.243	1681
663.571	1621
663.899	1586
664.228	1565
664.556	1550
664.884	1540
665.212	1533
665.540	1528
665.868	1525
666.196	1524
666.524	1523
666.852	1525
667.179	1531
667.507	1542
667.835	1560
668.162	1583
668.490	1610
668.818	1644
669.145	1678
669.473	1712
669.800	1745
670.127	1773
670.455	1797
670.782	1817
671.109	1834
671.436	1849
671.764	1861
672.091	1872
672.418	1880
672.745	1887
673.072	1895
673.399	1904
673.726	1912
674.053	1919
674.379	1922
674.706	1922
675.033	1921
675.359	1919
675.686	1915
676.013	1913
676.339	1915
676.666	1921
676.992	1935
677.318	1955
677.645	1977
677.971	1998
678.297	2017
678.624	2036
678.950	2054
679.276	2071
679.602	2087
679.928	2104
680.254	2125
680.580	2152
680.906	2186
681.232	2227
681.558	2270
681.883	2313
682.209	2353
682.535	2391
682.860	2425
683.186	2454
683.511	2476
683.837	2491
684.162	2502
684.488	2512
684.813	2522
685.138	2531
685.464	2538
685.789	2545
686.114	2551
686.439	2560
686.764	2569
687.089	2576
687.414	2577
687.739	2569
688.064	2555
688.389	2536
688.714	2513
689.039	2489
689.363	2462
689.688	2434
690.013	2406
690.337	2381
690.662	2360
690.986	2342
691.311	2324
691.635	2304
691.959	2287
692.284	2275
692.608	2271
692.932	2275
693.256	2283
693.580	2292
693.904	2305
694.228	2319
694.552	2332
694.876	2338
695.200	2336
695.524	2326
695.848	2312
696.172	2294
696.495	2274
696.819	2254
697.143	2233
697.466	2211
697.790	2193
698.113	2180
698.437	2174
698.760	2173
699.083	2171
699.407	2165
699.730	2154
700.053	2136
700.376	2111
700.699	2077
701.022	2035
701.345	1989
701.668	1946
701.991	1910
702.314	1885
702.637	1873
702.960	1877
703.283	1895
703.605	1929
703.928	1975
704.251	2026
704.573	2078
704.896	2125
705.218	2164
705.540	2195
705.863	2221
706.185	2241
706.507	2259
706.830	2276
707.152	2293
707.474	2311
707.796	2332
708.118	2354
708.440	2375
708.762	2393
709.084	2408
709.406	2416
709.728	2418
710.049	2413
710.371	2403
710.693	2387
711.014	2369
711.336	2353
711.658	2337
711.979	2323
712.301	2310
712.622	2296
712.943	2280
713.265	2261
713.586	2241
713.907	2222
714.228	2204
714.549	2191
714.870	2181
715.191	2177
715.512	2176
715.833	2172
716.154	2166
716.475	2157
716.796	2143
717.117	2123
717.437	2100
717.758	2074
718.078	2047
718.399	2020
718.719	1996
719.040	1975
719.360	1959
719.681	1947
720.001	1940
720.321	1935
720.642	1933
720.962	1935
721.282	1939
721.602	1945
721.922	1952
722.242	1961
722.562	1973
722.882	1988
723.202	2002
723.521	2014
723.841	2027
724.161	2041
724.481	2054
724.800	2068
725.120	2086
725.439	2108
725.759	2133
726.078	2160
726.398	2194
726.717	2236
727.036	2283
727.355	2332
727.675	2381
727.994	2427
728.313	2471
728.632	2510
728.951	2542
729.270	2570
729.589	2596
729.908	2628
730.226	2664
730.545	2703
730.864	2746
731.182	2792
731.501	2838
731.820	2882
732.138	2921
732.457	2955
732.775	2986
733.093	3010
733.412	3025
733.730	3029
734.048	3023
734.367	3010
734.685	2992
735.003	2971
735.321	2952
735.639	2936
735.957	2924
736.275	2912
736.593	2896
736.910	2871
737.228	2837
737.546	2793
737.863	2742
738.181	2685
738.499	2626
738.816	2567
739.134	2509
739.451	2451
739.768	2392
740.086	2336
740.403	2284
740.720	2235
741.038	2189
741.355	2144
741.672	2100
741.989	2055
742.306	2009
742.623	1962
742.940	1916
743.257	1872
743.573	1834
743.890	1803
744.207	1780
744.523	1763
744.840	1752
745.157	1745
745.473	1744
745.790	1750
746.106	1763
746.422	1783
746.739	1808
747.055	1838
747.371	1872
747.687	1908
748.004	1943
748.320	1973
748.636	1999
748.952	2027
749.268	2054
749.584	2080
749.899	2104
750.215	2128
750.531	2155
750.847	2185
751.162	2216
751.478	2246
751.793	2277
752.109	2309
752.424	2345
752.740	2380
753.055	2421
753.370	2470
753.686	2526
754.001	2587
754.316	2651
754.631	2719
754.946	2791
755.261	2867
755.576	2941
755.891	3012
756.206	3082
756.521	3156
756.836	3232
757.150	3305
757.465	3368
757.780	3423
758.094	3469
758.409	3505
758.723	3527
759.038	3537
759.352	3538
759.667	3527
759.981	3510
760.295	3493
760.609	3479
760.923	3470
761.238	3466
761.552	3463
761.866	3458
762.180	3450
762.493	3430
762.807	3394
763.121	3340
763.435	3271
763.749	3197
764.062	3126
764.376	3066
764.689	3026
765.003	3003
765.316	3000
765.630	3009
765.943	3025
766.257	3045
766.570	3062
766.883	3066
767.196	3059
767.509	3040
767.822	3010
768.135	2973
768.448	2932
768.761	2890
769.074	2853
769.387	2826
769.700	2808
770.013	2797
770.325	2788
770.638	2775
770.950	2752
771.263	2715
771.575	2664
771.888	2599
772.200	2523
772.513	2441
772.825	2354
773.137	2265
773.449	2178
773.761	2093
774.074	2014
774.386	1944
774.698	1885
775.010	1836
775.321	1801
775.633	1778
775.945	1765
776.257	1757
776.568	1754
776.880	1759
777.192	1772
777.503	1791
777.815	1815
778.126	1846
778.438	1883
778.749	1923
779.060	1961
779.372	1998
779.683	2033
779.994	2065
780.305	2090
780.616	2107
780.927	2118
781.238	2122
781.549	2117
781.860	2103
782.171	2084
782.481	2063
782.792	2041
783.103	2020
783.413	1997
783.724	1972
784.034	1948
784.345	1926
784.655	1906
784.966	1885
785.276	1864
785.586	1843
785.896	1822
786.207	1800
786.517	1777
786.827	1754
787.137	1733
787.447	1711
787.757	1691
788.066	1673
788.376	1654
788.686	1636
788.996	1617
789.305	1599
789.615	1584
789.925	1576
790.234	1574
790.544	1577
790.853	1584
791.162	1592
791.472	1599
791.781	1602
792.090	1599
792.399	1590
792.708	1575
793.017	1558
793.326	1541
793.635	1526
793.944	1512
794.253	1501
794.562	1492
794.871	1487
795.179	1483
795.488	1478
795.797	1470
796.105	1457
796.414	1435
796.722	1406
797.031	1368
797.339	1323
797.647	1273
797.956	1220
798.264	1171
798.572	1130
798.880	1099
799.188	1075
799.496	1058
799.804	1046
800.112	1036
800.420	1027
800.728	1019
801.035	1009
801.343	997
801.651	988
801.958	985
802.266	990
802.573	998
802.881	1008
803.188	1022
803.496	1036
803.803	1052
804.110	1065
804.417	1077
804.724	1087
805.032	1098
805.339	1106
805.646	1111
805.953	1115
806.259	1115
806.566	1114
806.873	1110
807.180	1104
807.486	1098
807.793	1091
808.100	1080
808.406	1062
808.713	1038
809.019	1010
809.326	982
809.632	955
809.938	930
810.244	907
810.551	887
810.857	871
811.163	857
811.469	841
811.775	825
812.081	808
812.387	793
812.692	781
812.998	772
813.304	764
813.610	758
813.915	754
814.221	750
814.526	746
814.832	743
815.137	740
815.443	735
815.748	728
816.053	718
816.358	709
816.664	699
816.969	691
817.274	684
817.579	678
817.884	675
818.189	675
818.493	674
818.798	672
819.103	668
819.408	662
819.712	654
820.017	646
820.321	637
820.626	628
820.930	620
821.235	615
821.539	613
821.843	613
822.148	614
822.452	615
822.756	615
823.060	613
823.364	609
823.668	604
823.972	598
824.276	592
824.580	587
824.883	585
825.187	584
825.491	584
825.795	583
826.098	584
826.402	583
826.705	581
827.008	577
827.312	571
827.615	561
827.918	550
828.222	537
828.525	524
828.828	511
829.131	498
829.434	486
829.737	474
830.040	465
830.343	457
830.645	450
830.948	443
831.251	436
831.553	431
831.856	426
832.159	421
832.461	416
832.764	410
833.066	404
833.368	400
833.671	396
833.973	393
834.275	391
834.577	388
834.879	385
835.181	381
835.483	377
835.785	372
836.087	365
836.389	357
836.690	348
836.992	339
837.294	329
837.595	319
837.897	308
838.198	297
838.500	287
838.801	278
839.103	270
839.404	263
839.705	257
840.006	253
840.307	249
840.608	246
840.910	244
841.210	243
841.511	241
841.812	239
842.113	236
842.414	232
842.715	228
843.015	224
843.316	219
843.616	214
843.917	210
844.217	207
844.518	204
844.818	201
845.118	200
845.419	199
845.719	198
846.019	197
846.319	196
846.619	195
846.919	194
847.219	193
847.519	192
847.819	191
848.118	191
848.418	193
848.718	199
849.017	208
849.317	221
849.616	237
849.916	256
850.215	277
850.515	300
850.814	322
851.113	342
851.412	360
851.712	377
852.011	392
852.310	407
852.609	420
852.908	431
853.206	441
853.505	450
853.804	458
854.103	465
854.401	469
854.700	472
854.999	471
855.297	465
855.595	456
855.894	443
856.192	427
856.491	408
856.789	388
857.087	368
857.385	349
857.683	332
857.981	316
858.279	301
858.577	287
858.875	275
859.173	266
859.471	258
859.768	251
860.066	246
860.363	241
860.661	237
860.959	234
861.256	231
861.553	228
861.851	223
862.148	219
862.445	214
862.742	210
863.039	207
863.337	204
863.634	202
863.931	200
864.227	200
864.524	199
864.821	199
865.118	199
865.415	197
865.711	194
866.008	191
866.304	187
866.601	184
866.897	181
867.194	178
867.490	177
867.786	176
868.082	176
868.379	176
868.675	177
868.971	177
869.267	177
869.563	177
869.859	176
870.154	175
870.450	175
870.746	174
871.042	173
871.337	172
871.633	173
871.928	173
872.224	174
872.519	176
872.815	177
873.110	178
873.405	177
873.700	177
873.995	176
874.291	177
874.586	177
874.881	178
875.175	180
875.470	183
875.765	186
876.060	189
876.355	193
876.649	197
876.944	200
877.238	204
877.533	207
877.827	209
878.122	211
878.416	212
878.710	211
879.005	211
879.299	211
879.593	210
879.887	209
880.181	208
880.475	207
880.769	205
881.063	203
881.356	201
881.650	198
881.944	195
882.238	165
882.531	157
882.825	159
883.118	159
883.412	153
883.705	154
883.998	158
884.291	165
884.585	168
884.878	173
>>>>>>>>>> END of Data <<<<<<<<<<