Date	2021年06月15日火曜日 04時51分23秒
Spectrometers	USB2+H05879
ダーク	使用
リファレンス	使用
積分時間[msec]	10
平均回数	280
ｽﾑｰｼﾞﾝｸﾞ	10
Electrical Dark	USE
ピクセル数	2048
計測モード	吸光度
保存開始波長[nm]	190.664
保存終了波長[nm]	884.878
保存ﾋﾟｯﾁ波長[nm]	全波長

>>>>>>>>>> Data Start <<<<<<<<<<<<
190.664	0.000000
191.040	0.000000
191.415	0.000000
191.791	-2.381544
192.166	-0.612762
192.542	-0.918437
192.917	0.000000
193.293	-0.206281
193.668	-0.574681
194.044	-1.015500
194.419	0.000000
194.794	-1.406626
195.170	-1.325491
195.545	-1.232483
195.920	-1.104379
196.296	-0.985377
196.671	-0.819818
197.046	-0.672467
197.421	-0.625603
197.796	-0.611725
198.171	-0.579689
198.546	-0.528860
198.922	-0.470939
199.297	-0.445892
199.672	-0.420471
200.047	-0.395772
200.422	-0.365265
200.796	-0.349004
201.171	-0.325522
201.546	-0.324646
201.921	-0.318676
202.296	-0.304138
202.671	-0.273263
203.045	-0.247847
203.420	-0.237401
203.795	-0.227365
204.170	-0.219696
204.544	-0.217361
204.919	-0.216292
205.294	-0.215531
205.668	-0.204788
206.043	-0.191187
206.417	-0.198886
206.792	-0.187166
207.166	-0.181883
207.541	-0.181710
207.915	-0.191967
208.289	-0.174724
208.664	-0.170095
209.038	-0.172479
209.412	-0.159711
209.787	-0.137538
210.161	-0.120720
210.535	-0.128507
210.909	-0.122766
211.284	-0.122891
211.658	-0.119915
212.032	-0.118401
212.406	-0.123695
212.780	-0.123192
213.154	-0.123091
213.528	-0.116776
213.902	-0.111689
214.276	-0.104412
214.650	-0.112573
215.024	-0.105311
215.398	-0.101101
215.772	-0.086736
216.145	-0.089752
216.519	-0.075061
216.893	-0.066852
217.267	-0.062847
217.640	-0.069714
218.014	-0.073558
218.388	-0.063633
218.761	-0.064611
219.135	-0.052668
219.508	-0.054565
219.882	-0.062915
220.256	-0.053298
220.629	-0.048689
221.003	-0.047644
221.376	-0.053923
221.749	-0.058489
222.123	-0.065388
222.496	-0.064316
222.869	-0.062847
223.243	-0.058056
223.616	-0.056160
223.989	-0.062200
224.362	-0.069207
224.736	-0.072274
225.109	-0.073382
225.482	-0.073746
225.855	-0.067266
226.228	-0.072098
226.601	-0.076920
226.974	-0.071947
227.347	-0.058259
227.720	-0.055197
228.093	-0.058151
228.466	-0.064392
228.839	-0.052377
229.212	-0.048586
229.585	-0.053956
229.957	-0.049967
230.330	-0.049344
230.703	-0.044353
231.076	-0.048611
231.448	-0.052140
231.821	-0.055225
232.194	-0.058404
232.566	-0.059371
232.939	-0.061525
233.311	-0.064216
233.684	-0.065639
234.056	-0.060257
234.429	-0.053431
234.801	-0.051609
235.174	-0.059637
235.546	-0.058776
235.918	-0.062362
236.291	-0.057748
236.663	-0.057944
237.035	-0.061563
237.408	-0.051050
237.780	-0.036375
238.152	-0.038278
238.524	-0.049510
238.896	-0.046807
239.268	-0.047807
239.641	-0.043936
240.013	-0.034212
240.385	-0.030282
240.757	-0.030809
241.129	-0.033525
241.500	-0.039966
241.872	-0.039695
242.244	-0.037262
242.616	-0.041799
242.988	-0.039719
243.360	-0.034587
243.731	-0.026884
244.103	-0.028156
244.475	-0.033266
244.847	-0.028451
245.218	-0.024709
245.590	-0.030675
245.961	-0.026452
246.333	-0.021018
246.705	-0.014695
247.076	-0.010030
247.448	-0.004303
247.819	-0.009248
248.190	0.004566
248.562	0.001839
248.933	0.007643
249.305	0.014433
249.676	0.021021
250.047	0.020196
250.418	0.021306
250.790	0.018277
251.161	0.020593
251.532	0.015153
251.903	0.020563
252.274	0.025843
252.645	0.026988
253.016	0.016553
253.387	0.009764
253.758	0.008904
254.129	0.002377
254.500	0.000325
254.871	0.003366
255.242	0.003058
255.613	0.001469
255.984	-0.009363
256.355	-0.004862
256.725	-0.006514
257.096	-0.003125
257.467	-0.010409
257.838	-0.012114
258.208	-0.009318
258.579	-0.005143
258.949	-0.004451
259.320	0.001884
259.690	-0.000605
260.061	-0.000961
260.431	0.004120
260.802	0.009429
261.172	0.016833
261.543	0.023597
261.913	0.023563
262.283	0.020896
262.654	0.015352
263.024	0.010714
263.394	0.016503
263.764	0.013113
264.135	0.013297
264.505	0.018568
264.875	0.015051
265.245	0.013004
265.615	0.015366
265.985	0.010814
266.355	0.013696
266.725	0.012680
267.095	0.011463
267.465	0.016741
267.835	0.013537
268.205	0.003387
268.575	0.007913
268.944	0.009599
269.314	0.003477
269.684	0.013999
270.054	0.004409
270.423	0.009361
270.793	0.014193
271.163	0.013733
271.532	0.016528
271.902	0.020821
272.271	0.015663
272.641	0.018139
273.010	0.018664
273.380	0.015364
273.749	0.018692
274.119	0.020782
274.488	0.021838
274.857	0.023105
275.227	0.022419
275.596	0.021678
275.965	0.028108
276.335	0.025653
276.704	0.026976
277.073	0.029928
277.442	0.031932
277.811	0.045891
278.180	0.044405
278.549	0.038045
278.918	0.036326
279.287	0.042085
279.656	0.041687
280.025	0.042142
280.394	0.039547
280.763	0.040813
281.132	0.051465
281.501	0.049493
281.869	0.048039
282.238	0.049749
282.607	0.047453
282.976	0.047501
283.344	0.051573
283.713	0.048776
284.081	0.047299
284.450	0.048620
284.819	0.051202
285.187	0.054351
285.556	0.054339
285.924	0.054334
286.292	0.058293
286.661	0.062436
287.029	0.060293
287.398	0.059672
287.766	0.057990
288.134	0.062026
288.502	0.067744
288.871	0.066241
289.239	0.073825
289.607	0.076814
289.975	0.076343
290.343	0.082550
290.711	0.086305
291.079	0.089578
291.447	0.097417
291.815	0.101906
292.183	0.102402
292.551	0.102353
292.919	0.102207
293.287	0.095627
293.655	0.105935
294.022	0.108612
294.390	0.113002
294.758	0.116350
295.126	0.111822
295.493	0.120899
295.861	0.120878
296.229	0.113228
296.596	0.116174
296.964	0.112438
297.331	0.108510
297.699	0.114659
298.066	0.116581
298.434	0.111919
298.801	0.115310
299.168	0.116936
299.536	0.123482
299.903	0.120125
300.270	0.123676
300.638	0.130535
301.005	0.142405
301.372	0.139298
301.739	0.147533
302.106	0.147395
302.473	0.157464
302.840	0.176118
303.207	0.193164
303.574	0.212660
303.941	0.232852
304.308	0.240501
304.675	0.252996
305.042	0.274426
305.409	0.294048
305.776	0.306522
306.143	0.333741
306.509	0.351173
306.876	0.372559
307.243	0.393846
307.610	0.422966
307.976	0.444592
308.343	0.468752
308.709	0.501006
309.076	0.537814
309.442	0.566797
309.809	0.597577
310.175	0.628340
310.542	0.651297
310.908	0.668870
311.275	0.694622
311.641	0.727291
312.007	0.757228
312.373	0.789468
312.740	0.814758
313.106	0.842998
313.472	0.887535
313.838	0.917399
314.204	0.943079
314.570	0.965421
314.936	0.992210
315.302	1.022996
315.668	1.052388
316.034	1.090818
316.400	1.123647
316.766	1.147314
317.132	1.176366
317.498	1.201623
317.864	1.217597
318.230	1.243462
318.595	1.274778
318.961	1.294514
319.327	1.318182
319.692	1.333076
320.058	1.348636
320.424	1.367816
320.789	1.380870
321.155	1.388577
321.520	1.404975
321.886	1.431831
322.251	1.454570
322.616	1.471694
322.982	1.483813
323.347	1.498013
323.712	1.508036
324.078	1.518403
324.443	1.524407
324.808	1.536189
325.173	1.550493
325.539	1.563992
325.904	1.575322
326.269	1.583621
326.634	1.592716
326.999	1.600397
327.364	1.618764
327.729	1.634713
328.094	1.645769
328.459	1.657704
328.823	1.669063
329.188	1.679511
329.553	1.681101
329.918	1.690348
330.283	1.700787
330.647	1.715763
331.012	1.723748
331.377	1.730556
331.741	1.738030
332.106	1.752198
332.470	1.762218
332.835	1.767922
333.199	1.780136
333.564	1.788973
333.928	1.797895
334.293	1.807113
334.657	1.811839
335.021	1.814771
335.386	1.817795
335.750	1.821592
336.114	1.825166
336.478	1.831199
336.843	1.835385
337.207	1.841378
337.571	1.849475
337.935	1.853955
338.299	1.853999
338.663	1.856805
339.027	1.859448
339.391	1.860292
339.755	1.862002
340.119	1.861383
340.483	1.864960
340.846	1.868040
341.210	1.872231
341.574	1.875526
341.938	1.876552
342.301	1.880112
342.665	1.883401
343.029	1.885315
343.392	1.890401
343.756	1.894989
344.119	1.898798
344.483	1.901531
344.846	1.903231
345.210	1.905586
345.573	1.904530
345.937	1.903549
346.300	1.908883
346.663	1.909731
347.027	1.914433
347.390	1.916430
347.753	1.915832
348.116	1.916887
348.479	1.916424
348.843	1.915984
349.206	1.915486
349.569	1.916322
349.932	1.917091
350.295	1.919953
350.658	1.923297
351.021	1.924373
351.383	1.925590
351.746	1.922150
352.109	1.923000
352.472	1.922771
352.835	1.919866
353.197	1.922623
353.560	1.926289
353.923	1.924041
354.285	1.923291
354.648	1.923333
355.011	1.923084
355.373	1.927793
355.736	1.929528
356.098	1.929952
356.461	1.930335
356.823	1.931103
357.185	1.932517
357.548	1.934025
357.910	1.931703
358.272	1.931037
358.635	1.928387
358.997	1.928967
359.359	1.935187
359.721	1.934514
360.083	1.938595
360.445	1.942069
360.807	1.943380
361.169	1.942959
361.531	1.946744
361.893	1.948541
362.255	1.950011
362.617	1.950906
362.979	1.950975
363.341	1.949576
363.703	1.951483
364.064	1.954273
364.426	1.956917
364.788	1.957645
365.149	1.960107
365.511	1.963871
365.873	1.965348
366.234	1.968607
366.596	1.969602
366.957	1.966549
367.319	1.967473
367.680	1.967366
368.042	1.966874
368.403	1.966822
368.764	1.969468
369.126	1.967838
369.487	1.970423
369.848	1.971397
370.209	1.976057
370.570	1.976985
370.931	1.981101
371.293	1.981169
371.654	1.979785
372.015	1.981478
372.376	1.982319
372.737	1.982286
373.098	1.982094
373.458	1.984028
373.819	1.986366
374.180	1.989997
374.541	1.992890
374.902	1.995344
375.263	1.997175
375.623	1.998683
375.984	2.003466
376.345	2.001545
376.705	2.003810
377.066	2.004364
377.426	2.003062
377.787	2.002018
378.147	2.003513
378.508	2.002361
378.868	2.003496
379.228	2.005696
379.589	2.005698
379.949	2.007996
380.309	2.009508
380.670	2.010732
381.030	2.008943
381.390	2.009674
381.750	2.007466
382.110	2.007211
382.470	2.009045
382.830	2.011876
383.190	2.013201
383.550	2.011486
383.910	2.015609
384.270	2.017921
384.630	2.020123
384.990	2.022628
385.350	2.024870
385.709	2.025817
386.069	2.026839
386.429	2.026041
386.788	2.029041
387.148	2.027669
387.508	2.028422
387.867	2.029583
388.227	2.029279
388.586	2.030764
388.946	2.033327
389.305	2.036439
389.665	2.037772
390.024	2.038446
390.383	2.038581
390.743	2.039453
391.102	2.041017
391.461	2.039643
391.820	2.039434
392.179	2.037749
392.539	2.038761
392.898	2.039037
393.257	2.039624
393.616	2.043928
393.975	2.045547
394.334	2.045474
394.693	2.048593
395.051	2.048778
395.410	2.050234
395.769	2.052310
396.128	2.054978
396.487	2.053680
396.845	2.053217
397.204	2.053969
397.563	2.052028
397.921	2.049608
398.280	2.049376
398.638	2.045599
398.997	2.045827
399.355	2.044238
399.714	2.045734
400.072	2.044052
400.431	2.039768
400.789	2.039141
401.147	2.036590
401.506	2.034646
401.864	2.033402
402.222	2.029889
402.580	2.027357
402.938	2.025432
403.297	2.022353
403.655	2.020315
404.013	2.019643
404.371	2.016889
404.729	2.013325
405.087	2.012384
405.444	2.012357
405.802	2.009947
406.160	2.011574
406.518	2.011190
406.876	2.009712
407.233	2.008005
407.591	2.009125
407.949	2.010519
408.306	2.007332
408.664	2.005530
409.022	2.006828
409.379	2.006162
409.737	2.005901
410.094	2.005375
410.451	2.004001
410.809	2.003768
411.166	2.001160
411.523	2.000825
411.881	2.001014
412.238	2.002744
412.595	2.001952
412.952	2.000622
413.310	1.998903
413.667	1.997897
414.024	1.996877
414.381	1.996538
414.738	1.993597
415.095	1.989291
415.452	1.986870
415.809	1.986580
416.165	1.986726
416.522	1.983458
416.879	1.981142
417.236	1.978382
417.593	1.976101
417.949	1.973121
418.306	1.972133
418.663	1.973557
419.019	1.971534
419.376	1.967810
419.732	1.964075
420.089	1.962343
420.445	1.960138
420.802	1.959261
421.158	1.956089
421.514	1.953562
421.871	1.951671
422.227	1.949504
422.583	1.947733
422.939	1.944622
423.295	1.942530
423.652	1.938944
424.008	1.936920
424.364	1.934208
424.720	1.932786
425.076	1.931562
425.432	1.929683
425.788	1.927052
426.143	1.923238
426.499	1.920181
426.855	1.918107
427.211	1.915393
427.567	1.911759
427.922	1.910601
428.278	1.904312
428.634	1.902620
428.989	1.898507
429.345	1.894445
429.700	1.892274
430.056	1.890496
430.411	1.888780
430.767	1.884304
431.122	1.880533
431.478	1.876744
431.833	1.873764
432.188	1.869391
432.543	1.865552
432.899	1.860291
433.254	1.855327
433.609	1.850076
433.964	1.845575
434.319	1.839801
434.674	1.834985
435.029	1.830938
435.384	1.823982
435.739	1.821113
436.094	1.817653
436.449	1.814532
436.804	1.810182
437.158	1.805100
437.513	1.800071
437.868	1.794096
438.223	1.790455
438.577	1.785605
438.932	1.781940
439.287	1.776437
439.641	1.771548
439.996	1.766833
440.350	1.762544
440.704	1.757904
441.059	1.752891
441.413	1.746483
441.768	1.741537
442.122	1.736702
442.476	1.731165
442.830	1.726852
443.185	1.722311
443.539	1.715944
443.893	1.710655
444.247	1.705126
444.601	1.700871
444.955	1.694808
445.309	1.689087
445.663	1.682729
446.017	1.677342
446.371	1.670747
446.724	1.664311
447.078	1.658995
447.432	1.653147
447.786	1.647587
448.139	1.641536
448.493	1.635865
448.847	1.630709
449.200	1.625463
449.554	1.619875
449.907	1.614653
450.261	1.608292
450.614	1.602411
450.968	1.596174
451.321	1.589668
451.674	1.583518
452.027	1.576053
452.381	1.570627
452.734	1.565172
453.087	1.559951
453.440	1.553485
453.793	1.548139
454.146	1.542511
454.499	1.536806
454.852	1.530573
455.205	1.524241
455.558	1.518516
455.911	1.512751
456.264	1.507435
456.617	1.501755
456.970	1.496033
457.322	1.490465
457.675	1.485287
458.028	1.480142
458.380	1.475501
458.733	1.470721
459.086	1.465992
459.438	1.461514
459.791	1.455704
460.143	1.450633
460.496	1.445458
460.848	1.440526
461.200	1.435274
461.553	1.430091
461.905	1.425434
462.257	1.420093
462.609	1.415601
462.961	1.410944
463.314	1.406423
463.666	1.401466
464.018	1.396767
464.370	1.392669
464.722	1.387873
465.074	1.383498
465.426	1.379350
465.777	1.375090
466.129	1.370683
466.481	1.366457
466.833	1.362619
467.184	1.359065
467.536	1.354681
467.888	1.350429
468.239	1.345801
468.591	1.340685
468.943	1.335866
469.294	1.330041
469.646	1.325458
469.997	1.320535
470.348	1.315613
470.700	1.310621
471.051	1.306168
471.402	1.301689
471.754	1.297016
472.105	1.293101
472.456	1.289546
472.807	1.285493
473.158	1.281892
473.509	1.278544
473.860	1.275039
474.211	1.271645
474.562	1.268519
474.913	1.265142
475.264	1.261508
475.615	1.258449
475.966	1.255351
476.316	1.251830
476.667	1.248845
477.018	1.245357
477.368	1.241901
477.719	1.238454
478.070	1.235217
478.420	1.232036
478.771	1.228935
479.121	1.225800
479.472	1.222872
479.822	1.219361
480.172	1.215928
480.523	1.212406
480.873	1.208764
481.223	1.204725
481.573	1.200464
481.924	1.196161
482.274	1.192368
482.624	1.188983
482.974	1.185841
483.324	1.183207
483.674	1.181116
484.024	1.178901
484.374	1.176939
484.724	1.174893
485.073	1.172888
485.423	1.170942
485.773	1.168741
486.123	1.166666
486.472	1.164519
486.822	1.162209
487.172	1.160192
487.521	1.158101
487.871	1.155875
488.220	1.153544
488.570	1.151096
488.919	1.148132
489.268	1.144691
489.618	1.140940
489.967	1.136590
490.316	1.131545
490.666	1.126392
491.015	1.121414
491.364	1.116897
491.713	1.112506
492.062	1.108620
492.411	1.104975
492.760	1.101332
493.109	1.097768
493.458	1.094265
493.807	1.090774
494.156	1.087524
494.505	1.083887
494.853	1.080590
495.202	1.077246
495.551	1.073843
495.900	1.070514
496.248	1.067080
496.597	1.063882
496.945	1.060509
497.294	1.057167
497.642	1.053871
497.991	1.050383
498.339	1.046865
498.688	1.043581
499.036	1.040420
499.384	1.037233
499.732	1.033954
500.081	1.030748
500.429	1.027579
500.777	1.024387
501.125	1.021367
501.473	1.018180
501.821	1.015301
502.169	1.012229
502.517	1.009291
502.865	1.006447
503.213	1.003413
503.561	1.000544
503.908	0.997661
504.256	0.994672
504.604	0.991629
504.952	0.988742
505.299	0.985904
505.647	0.983063
505.994	0.980087
506.342	0.977271
506.689	0.974330
507.037	0.971497
507.384	0.968539
507.732	0.965824
508.079	0.963118
508.426	0.960416
508.774	0.957711
509.121	0.954986
509.468	0.952371
509.815	0.949724
510.162	0.946985
510.509	0.944439
510.856	0.941815
511.203	0.939184
511.550	0.936649
511.897	0.934233
512.244	0.931749
512.591	0.929155
512.938	0.926777
513.284	0.924316
513.631	0.921744
513.978	0.919167
514.324	0.916845
514.671	0.914424
515.018	0.911842
515.364	0.909350
515.711	0.906766
516.057	0.904263
516.403	0.901772
516.750	0.899301
517.096	0.896879
517.443	0.894490
517.789	0.892118
518.135	0.889910
518.481	0.887580
518.827	0.885305
519.173	0.882946
519.519	0.880680
519.865	0.878394
520.211	0.875934
520.557	0.873523
520.903	0.871178
521.249	0.868924
521.595	0.866390
521.941	0.863885
522.287	0.861431
522.632	0.858759
522.978	0.856260
523.324	0.853784
523.669	0.851139
524.015	0.848604
524.360	0.845997
524.706	0.843478
525.051	0.840998
525.397	0.838327
525.742	0.835855
526.087	0.833423
526.433	0.831054
526.778	0.828723
527.123	0.826342
527.468	0.824027
527.813	0.821769
528.158	0.819373
528.504	0.816846
528.849	0.814263
529.193	0.811843
529.538	0.809304
529.883	0.806722
530.228	0.803920
530.573	0.801239
530.918	0.798726
531.263	0.796080
531.607	0.793508
531.952	0.791007
532.296	0.788398
532.641	0.785980
532.986	0.783329
533.330	0.780663
533.675	0.778052
534.019	0.775266
534.363	0.772532
534.708	0.769702
535.052	0.766912
535.396	0.764306
535.741	0.761803
536.085	0.759078
536.429	0.756235
536.773	0.753530
537.117	0.750721
537.461	0.747817
537.805	0.744787
538.149	0.741769
538.493	0.738591
538.837	0.735443
539.181	0.732183
539.524	0.729037
539.868	0.725787
540.212	0.722625
540.556	0.719547
540.899	0.716345
541.243	0.713209
541.586	0.710092
541.930	0.706915
542.273	0.703793
542.617	0.700422
542.960	0.696959
543.304	0.693532
543.647	0.690054
543.990	0.686421
544.333	0.682830
544.677	0.679348
545.020	0.675808
545.363	0.672214
545.706	0.668782
546.049	0.665314
546.392	0.661900
546.735	0.658453
547.078	0.654940
547.421	0.651366
547.764	0.647613
548.106	0.643833
548.449	0.639960
548.792	0.636001
549.135	0.632141
549.477	0.628219
549.820	0.624461
550.162	0.620630
550.505	0.616811
550.847	0.612912
551.190	0.608830
551.532	0.604662
551.875	0.600338
552.217	0.595953
552.559	0.591624
552.901	0.587336
553.244	0.583163
553.586	0.579118
553.928	0.575112
554.270	0.571224
554.612	0.567299
554.954	0.563451
555.296	0.559572
555.638	0.555572
555.980	0.551401
556.322	0.546983
556.663	0.542332
557.005	0.537646
557.347	0.533059
557.689	0.528523
558.030	0.524167
558.372	0.519846
558.713	0.515557
559.055	0.511290
559.396	0.506980
559.738	0.502616
560.079	0.498189
560.421	0.493837
560.762	0.489541
561.103	0.485257
561.444	0.481059
561.786	0.476990
562.127	0.472883
562.468	0.468743
562.809	0.464561
563.150	0.460316
563.491	0.455970
563.832	0.451504
564.173	0.446921
564.514	0.442213
564.855	0.437371
565.195	0.432364
565.536	0.427384
565.877	0.422485
566.218	0.417749
566.558	0.413127
566.899	0.408700
567.239	0.404539
567.580	0.400625
567.920	0.397000
568.261	0.393647
568.601	0.390439
568.941	0.387402
569.282	0.384518
569.622	0.381659
569.962	0.378802
570.302	0.375946
570.643	0.373189
570.983	0.370594
571.323	0.368117
571.663	0.365662
572.003	0.363260
572.343	0.360848
572.683	0.358329
573.022	0.355728
573.362	0.352966
573.702	0.350203
574.042	0.347460
574.381	0.344806
574.721	0.342194
575.061	0.339689
575.400	0.337358
575.740	0.335063
576.079	0.332801
576.419	0.330434
576.758	0.327990
577.097	0.325452
577.437	0.322838
577.776	0.320170
578.115	0.317526
578.454	0.315019
578.794	0.312784
579.133	0.310760
579.472	0.308902
579.811	0.307215
580.150	0.305510
580.489	0.303801
580.828	0.301954
581.167	0.300051
581.505	0.298086
581.844	0.296145
582.183	0.294199
582.522	0.292292
582.860	0.290451
583.199	0.288689
583.538	0.287022
583.876	0.285398
584.215	0.283796
584.553	0.282187
584.891	0.280607
585.230	0.278986
585.568	0.277281
585.906	0.275492
586.245	0.273735
586.583	0.272060
586.921	0.270493
587.259	0.269089
587.597	0.267743
587.935	0.266385
588.273	0.264942
588.611	0.263322
588.949	0.261606
589.287	0.259801
589.625	0.257971
589.963	0.256222
590.300	0.254557
590.638	0.253016
590.976	0.251494
591.313	0.249966
591.651	0.248414
591.989	0.246892
592.326	0.245438
592.664	0.244117
593.001	0.242850
593.338	0.241670
593.676	0.240583
594.013	0.239512
594.350	0.238471
594.687	0.237474
595.025	0.236530
595.362	0.235528
595.699	0.234526
596.036	0.233524
596.373	0.232532
596.710	0.231510
597.047	0.230467
597.384	0.229365
597.720	0.228263
598.057	0.227167
598.394	0.226065
598.731	0.225007
599.067	0.223934
599.404	0.222853
599.741	0.221802
600.077	0.220804
600.414	0.219876
600.750	0.219049
601.087	0.218267
601.423	0.217461
601.759	0.216653
602.096	0.215807
602.432	0.215008
602.768	0.214201
603.104	0.213382
603.440	0.212538
603.776	0.211735
604.112	0.210943
604.448	0.210237
604.784	0.209517
605.120	0.208788
605.456	0.208107
605.792	0.207434
606.128	0.206746
606.463	0.206077
606.799	0.205351
607.135	0.204632
607.470	0.203930
607.806	0.203180
608.142	0.202424
608.477	0.201719
608.812	0.201038
609.148	0.200422
609.483	0.199761
609.819	0.199109
610.154	0.198418
610.489	0.197737
610.824	0.197037
611.159	0.196375
611.494	0.195673
611.830	0.195063
612.165	0.194539
612.500	0.194010
612.834	0.193499
613.169	0.192991
613.504	0.192441
613.839	0.191898
614.174	0.191325
614.509	0.190746
614.843	0.190169
615.178	0.189620
615.512	0.189121
615.847	0.188580
616.182	0.188063
616.516	0.187613
616.850	0.187151
617.185	0.186661
617.519	0.186184
617.853	0.185713
618.188	0.185148
618.522	0.184564
618.856	0.183901
619.190	0.183254
619.524	0.182579
619.858	0.181923
620.192	0.181323
620.526	0.180774
620.860	0.180290
621.194	0.179808
621.528	0.179276
621.862	0.178811
622.195	0.178394
622.529	0.177873
622.863	0.177402
623.196	0.176875
623.530	0.176396
623.864	0.175907
624.197	0.175475
624.530	0.175009
624.864	0.174574
625.197	0.174176
625.531	0.173764
625.864	0.173320
626.197	0.172831
626.530	0.172437
626.863	0.171957
627.196	0.171470
627.529	0.170983
627.862	0.170443
628.195	0.169950
628.528	0.169472
628.861	0.168912
629.194	0.168339
629.527	0.167833
629.860	0.167316
630.192	0.166783
630.525	0.166161
630.858	0.165665
631.190	0.165113
631.523	0.164536
631.855	0.163865
632.188	0.163240
632.520	0.162670
632.852	0.162133
633.185	0.161587
633.517	0.161069
633.849	0.160589
634.182	0.160155
634.514	0.159792
634.846	0.159389
635.178	0.159008
635.510	0.158644
635.842	0.158271
636.174	0.157854
636.506	0.157502
636.837	0.157122
637.169	0.156793
637.501	0.156482
637.833	0.156135
638.164	0.155809
638.496	0.155459
638.828	0.155066
639.159	0.154698
639.491	0.154231
639.822	0.153793
640.154	0.153310
640.485	0.152677
640.816	0.152047
641.147	0.151399
641.479	0.150734
641.810	0.150140
642.141	0.149540
642.472	0.148910
642.803	0.148368
643.134	0.147895
643.465	0.147315
643.796	0.146728
644.127	0.146216
644.458	0.145797
644.789	0.145291
645.119	0.144996
645.450	0.144778
645.781	0.144809
646.111	0.144841
646.442	0.144852
646.773	0.144738
647.103	0.144562
647.433	0.144490
647.764	0.144319
648.094	0.144159
648.425	0.144036
648.755	0.143945
649.085	0.143745
649.415	0.143629
649.745	0.143597
650.075	0.143565
650.405	0.143497
650.735	0.141989
651.065	0.132575
651.395	0.124059
651.725	0.111141
652.055	0.075921
652.385	0.056224
652.715	0.043601
653.044	0.034835
653.374	0.028421
653.704	0.023541
654.033	0.033084
654.363	0.039427
654.692	0.043111
655.022	0.045298
655.351	0.046615
655.680	0.047384
656.010	0.047790
656.339	0.047964
656.668	0.047998
656.997	0.047948
657.326	0.047845
657.655	0.047723
657.984	0.047076
658.313	0.043685
658.642	0.039334
658.971	0.045484
659.300	0.053350
659.629	0.063800
659.958	0.078317
660.286	0.099897
660.615	0.135399
660.944	0.137676
661.272	0.135878
661.601	0.134711
661.929	0.133963
662.258	0.133755
662.586	0.133693
662.915	0.133642
663.243	0.133299
663.571	0.132773
663.899	0.132337
664.228	0.131980
664.556	0.131667
664.884	0.131382
665.212	0.131179
665.540	0.130943
665.868	0.130739
666.196	0.130632
666.524	0.130353
666.852	0.130242
667.179	0.130055
667.507	0.129901
667.835	0.129700
668.162	0.129483
668.490	0.129316
668.818	0.129156
669.145	0.129130
669.473	0.129193
669.800	0.129206
670.127	0.129345
670.455	0.129297
670.782	0.129348
671.109	0.129384
671.436	0.129450
671.764	0.129490
672.091	0.129475
672.418	0.129467
672.745	0.129399
673.072	0.129316
673.399	0.129186
673.726	0.129037
674.053	0.128967
674.379	0.128823
674.706	0.128760
675.033	0.128631
675.359	0.128532
675.686	0.128358
676.013	0.128156
676.339	0.127880
676.666	0.127638
676.992	0.127383
677.318	0.127277
677.645	0.127122
677.971	0.127001
678.297	0.126848
678.624	0.126735
678.950	0.126593
679.276	0.126368
679.602	0.126144
679.928	0.125872
680.254	0.125617
680.580	0.125402
680.906	0.125160
681.232	0.124980
681.558	0.124884
681.883	0.124895
682.209	0.124908
682.535	0.124904
682.860	0.124835
683.186	0.124840
683.511	0.124645
683.837	0.124439
684.162	0.124321
684.488	0.124191
684.813	0.124034
685.138	0.123836
685.464	0.123659
685.789	0.123490
686.114	0.123390
686.439	0.123222
686.764	0.123142
687.089	0.123083
687.414	0.123002
687.739	0.122936
688.064	0.122896
688.389	0.122829
688.714	0.122610
689.039	0.122276
689.363	0.122054
689.688	0.121807
690.013	0.121477
690.337	0.121363
690.662	0.121207
690.986	0.121008
691.311	0.120906
691.635	0.120770
691.959	0.120638
692.284	0.120397
692.608	0.120140
692.932	0.119935
693.256	0.119908
693.580	0.119868
693.904	0.119773
694.228	0.119672
694.552	0.119609
694.876	0.119516
695.200	0.119291
695.524	0.119152
695.848	0.119015
696.172	0.118734
696.495	0.118465
696.819	0.118272
697.143	0.117982
697.466	0.117696
697.790	0.117334
698.113	0.116994
698.437	0.116647
698.760	0.116345
699.083	0.116172
699.407	0.116041
699.730	0.115904
700.053	0.115768
700.376	0.115506
700.699	0.115202
701.022	0.114812
701.345	0.114292
701.668	0.113722
701.991	0.113146
702.314	0.112345
702.637	0.111597
702.960	0.110977
703.283	0.110442
703.605	0.109884
703.928	0.109555
704.251	0.109285
704.573	0.109111
704.896	0.108955
705.218	0.108747
705.540	0.108471
705.863	0.108076
706.185	0.107634
706.507	0.107093
706.830	0.106433
707.152	0.105821
707.474	0.105287
707.796	0.104781
708.118	0.104320
708.440	0.103906
708.762	0.103595
709.084	0.103401
709.406	0.103164
709.728	0.102942
710.049	0.102666
710.371	0.102410
710.693	0.102016
711.014	0.101518
711.336	0.101146
711.658	0.100762
711.979	0.100490
712.301	0.100237
712.622	0.100045
712.943	0.099827
713.265	0.099676
713.586	0.099505
713.907	0.099456
714.228	0.099428
714.549	0.099315
714.870	0.099234
715.191	0.099217
715.512	0.099132
715.833	0.099041
716.154	0.098902
716.475	0.098701
716.796	0.098433
717.117	0.098081
717.437	0.097699
717.758	0.097322
718.078	0.096875
718.399	0.096309
718.719	0.095776
719.040	0.095305
719.360	0.094899
719.681	0.094491
720.001	0.094206
720.321	0.093959
720.642	0.093637
720.962	0.093183
721.282	0.092945
721.602	0.092694
721.922	0.092344
722.242	0.092001
722.562	0.091672
722.882	0.091410
723.202	0.091201
723.521	0.091000
723.841	0.090866
724.161	0.090684
724.481	0.090627
724.800	0.090371
725.120	0.090221
725.439	0.090105
725.759	0.089987
726.078	0.089840
726.398	0.089665
726.717	0.089483
727.036	0.089421
727.355	0.089369
727.675	0.089428
727.994	0.089477
728.313	0.089547
728.632	0.089544
728.951	0.089520
729.270	0.089381
729.589	0.089179
729.908	0.088876
730.226	0.088547
730.545	0.088296
730.864	0.087971
731.182	0.087654
731.501	0.087457
731.820	0.087283
732.138	0.087099
732.457	0.086838
732.775	0.086555
733.093	0.086449
733.412	0.086274
733.730	0.086042
734.048	0.085766
734.367	0.085424
734.685	0.085033
735.003	0.084535
735.321	0.084105
735.639	0.083656
735.957	0.083358
736.275	0.083008
736.593	0.082873
736.910	0.082770
737.228	0.082553
737.546	0.082445
737.863	0.082286
738.181	0.081972
738.499	0.081637
738.816	0.081266
739.134	0.080924
739.451	0.080676
739.768	0.080330
740.086	0.079925
740.403	0.079523
740.720	0.079152
741.038	0.078769
741.355	0.078382
741.672	0.077985
741.989	0.077598
742.306	0.077226
742.623	0.076700
742.940	0.076236
743.257	0.075422
743.573	0.074700
743.890	0.074022
744.207	0.073282
744.523	0.072722
744.840	0.072309
745.157	0.071799
745.473	0.071330
745.790	0.070991
746.106	0.070594
746.422	0.070207
746.739	0.069884
747.055	0.069560
747.371	0.069235
747.687	0.069093
748.004	0.068941
748.320	0.068902
748.636	0.068745
748.952	0.068566
749.268	0.068479
749.584	0.068466
749.899	0.068471
750.215	0.068353
750.531	0.068295
750.847	0.068287
751.162	0.068166
751.478	0.068112
751.793	0.067972
752.109	0.067824
752.424	0.067627
752.740	0.067467
753.055	0.067340
753.370	0.067256
753.686	0.067319
754.001	0.067448
754.316	0.067547
754.631	0.067695
754.946	0.067769
755.261	0.067787
755.576	0.067777
755.891	0.067668
756.206	0.067531
756.521	0.067332
756.836	0.067256
757.150	0.067175
757.465	0.067135
757.780	0.067088
758.094	0.067049
758.409	0.067128
758.723	0.067159
759.038	0.067131
759.352	0.067108
759.667	0.067000
759.981	0.066800
760.295	0.066465
760.609	0.066142
760.923	0.065836
761.238	0.065444
761.552	0.065106
761.866	0.064848
762.180	0.064766
762.493	0.064686
762.807	0.064611
763.121	0.064554
763.435	0.064389
763.749	0.064092
764.062	0.063789
764.376	0.063447
764.689	0.063068
765.003	0.062660
765.316	0.062356
765.630	0.062247
765.943	0.062040
766.257	0.061938
766.570	0.061777
766.883	0.061582
767.196	0.061331
767.509	0.060989
767.822	0.060641
768.135	0.060283
768.448	0.059933
768.761	0.059413
769.074	0.059032
769.387	0.058615
769.700	0.058284
770.013	0.058041
770.325	0.057893
770.638	0.057718
770.950	0.057592
771.263	0.057456
771.575	0.057260
771.888	0.056961
772.200	0.056560
772.513	0.056082
772.825	0.055627
773.137	0.055268
773.449	0.054942
773.761	0.054489
774.074	0.054150
774.386	0.053873
774.698	0.053538
775.010	0.053137
775.321	0.052818
775.633	0.052368
775.945	0.052163
776.257	0.052063
776.568	0.051794
776.880	0.051627
777.192	0.051512
777.503	0.051393
777.815	0.051300
778.126	0.051222
778.438	0.051320
778.749	0.051428
779.060	0.051608
779.372	0.051652
779.683	0.051710
779.994	0.051822
780.305	0.051955
780.616	0.052003
780.927	0.052108
781.238	0.052110
781.549	0.052226
781.860	0.052279
782.171	0.052378
782.481	0.052418
782.792	0.052341
783.103	0.052376
783.413	0.052388
783.724	0.052279
784.034	0.052188
784.345	0.052049
784.655	0.051979
784.966	0.051760
785.276	0.051655
785.586	0.051585
785.896	0.051474
786.207	0.051431
786.517	0.051427
786.827	0.051437
787.137	0.051421
787.447	0.051274
787.757	0.051355
788.066	0.051337
788.376	0.051366
788.686	0.051446
788.996	0.051456
789.305	0.051417
789.615	0.051287
789.925	0.051105
790.234	0.051095
790.544	0.051141
790.853	0.051163
791.162	0.051204
791.472	0.051436
791.781	0.051574
792.090	0.051666
792.399	0.051733
792.708	0.051606
793.017	0.051496
793.326	0.051351
793.635	0.051222
793.944	0.051034
794.253	0.050711
794.562	0.050484
794.871	0.050281
795.179	0.050067
795.488	0.049908
795.797	0.049859
796.105	0.049827
796.414	0.049908
796.722	0.049840
797.031	0.049698
797.339	0.049552
797.647	0.049297
797.956	0.048840
798.264	0.048329
798.572	0.047856
798.880	0.047510
799.188	0.047293
799.496	0.046916
799.804	0.046750
800.112	0.046680
800.420	0.046721
800.728	0.046874
801.035	0.046802
801.343	0.046463
801.651	0.046234
801.958	0.045899
802.266	0.045645
802.573	0.045675
802.881	0.045623
803.188	0.045564
803.496	0.045775
803.803	0.046039
804.110	0.046219
804.417	0.046278
804.724	0.046167
805.032	0.046170
805.339	0.046102
805.646	0.046024
805.953	0.045936
806.259	0.045867
806.566	0.045748
806.873	0.045647
807.180	0.045397
807.486	0.045451
807.793	0.045603
808.100	0.045596
808.406	0.045696
808.713	0.045793
809.019	0.045467
809.326	0.045215
809.632	0.044977
809.938	0.044396
810.244	0.043836
810.551	0.043335
810.857	0.042958
811.163	0.042922
811.469	0.042604
811.775	0.042462
812.081	0.042549
812.387	0.042585
812.692	0.042555
812.998	0.042625
813.304	0.042607
813.610	0.042883
813.915	0.042888
814.221	0.042973
814.526	0.043041
814.832	0.043229
815.137	0.043177
815.443	0.043302
815.748	0.043322
816.053	0.043410
816.358	0.043213
816.664	0.043212
816.969	0.043384
817.274	0.043657
817.579	0.043537
817.884	0.043557
818.189	0.043462
818.493	0.043280
818.798	0.043359
819.103	0.043316
819.408	0.042966
819.712	0.042852
820.017	0.042576
820.321	0.042228
820.626	0.042210
820.930	0.041988
821.235	0.041609
821.539	0.041282
821.843	0.041326
822.148	0.041172
822.452	0.041243
822.756	0.041676
823.060	0.041653
823.364	0.041824
823.668	0.041839
823.972	0.041802
824.276	0.041971
824.580	0.042069
824.883	0.042290
825.187	0.042186
825.491	0.042234
825.795	0.042493
826.098	0.042554
826.402	0.042570
826.705	0.042787
827.008	0.042496
827.312	0.042565
827.615	0.042390
827.918	0.042538
828.222	0.042123
828.525	0.042067
828.828	0.042004
829.131	0.041887
829.434	0.041891
829.737	0.041344
830.040	0.040703
830.343	0.040476
830.645	0.040143
830.948	0.040107
831.251	0.039689
831.553	0.039672
831.856	0.039545
832.159	0.039470
832.461	0.039346
832.764	0.039186
833.066	0.038812
833.368	0.038835
833.671	0.038632
833.973	0.038714
834.275	0.038502
834.577	0.038679
834.879	0.038524
835.181	0.038039
835.483	0.037387
835.785	0.036930
836.087	0.036890
836.389	0.036963
836.690	0.036396
836.992	0.035617
837.294	0.034610
837.595	0.033991
837.897	0.033082
838.198	0.032351
838.500	0.031359
838.801	0.030629
839.103	0.029717
839.404	0.029505
839.705	0.028790
840.006	0.028214
840.307	0.027876
840.608	0.027427
840.910	0.027333
841.210	0.027646
841.511	0.027646
841.812	0.027581
842.113	0.028030
842.414	0.027379
842.715	0.026873
843.015	0.026220
843.316	0.026017
843.616	0.025529
843.917	0.024717
844.217	0.024640
844.518	0.024207
844.818	0.024063
845.118	0.024185
845.419	0.025192
845.719	0.024975
846.019	0.024569
846.319	0.024994
846.619	0.024695
846.919	0.025249
847.219	0.025184
847.519	0.025167
847.819	0.025577
848.118	0.025338
848.418	0.024453
848.718	0.024226
849.017	0.023796
849.317	0.023837
849.616	0.024291
849.916	0.025087
850.215	0.025973
850.515	0.026472
850.814	0.027131
851.113	0.027753
851.412	0.027945
851.712	0.027753
852.011	0.027858
852.310	0.028564
852.609	0.028653
852.908	0.028865
853.206	0.028896
853.505	0.029300
853.804	0.029150
854.103	0.029336
854.401	0.029639
854.700	0.029902
854.999	0.030009
855.297	0.030194
855.595	0.030626
855.894	0.030671
856.192	0.030800
856.491	0.030801
856.789	0.030602
857.087	0.030198
857.385	0.029440
857.683	0.029001
857.981	0.028898
858.279	0.028739
858.577	0.027939
858.875	0.027878
859.173	0.027382
859.471	0.026965
859.768	0.026436
860.066	0.025993
860.363	0.025024
860.661	0.024558
860.959	0.024164
861.256	0.024246
861.553	0.024077
861.851	0.023286
862.148	0.022560
862.445	0.021784
862.742	0.020928
863.039	0.020170
863.337	0.019672
863.634	0.019402
863.931	0.019568
864.227	0.019287
864.524	0.018356
864.821	0.018190
865.118	0.017075
865.415	0.016526
865.711	0.016016
866.008	0.015386
866.304	0.015486
866.601	0.015717
866.897	0.015504
867.194	0.015292
867.490	0.015187
867.786	0.014931
868.082	0.015013
868.379	0.015010
868.675	0.015210
868.971	0.015155
869.267	0.015559
869.563	0.016275
869.859	0.016343
870.154	0.015833
870.450	0.015816
870.746	0.015928
871.042	0.016057
871.337	0.016299
871.633	0.016237
871.928	0.016085
872.224	0.015578
872.519	0.014596
872.815	0.014050
873.110	0.013727
873.405	0.013455
873.700	0.012896
873.995	0.012536
874.291	0.012347
874.586	0.012410
874.881	0.011997
875.175	0.012084
875.470	0.012065
875.765	0.011458
876.060	0.011348
876.355	0.011559
876.649	0.011800
876.944	0.012291
877.238	0.011935
877.533	0.011791
877.827	0.012364
878.122	0.012922
878.416	0.013189
878.710	0.014261
879.005	0.013944
879.299	0.013903
879.593	0.013643
879.887	0.013355
880.181	0.012916
880.475	0.013248
880.769	0.013297
881.063	0.013311
881.356	0.013306
881.650	0.013087
881.944	0.012982
882.238	0.006618
882.531	0.008077
882.825	0.002299
883.118	-0.006198
883.412	0.016364
883.705	0.009069
883.998	0.012535
884.291	0.012359
884.585	0.010259
884.878	0.010138
>>>>>>>>>> END of Data <<<<<<<<<<
>>>>>>>>>> Raw Data Start <<<<<<<<
190.664	-404
191.040	7
191.415	7
191.791	4
192.166	9
192.542	10
192.917	3
193.293	4
193.668	8
194.044	8
194.419	-10
194.794	10
195.170	10
195.545	10
195.920	11
196.296	11
196.671	11
197.046	12
197.421	13
197.796	13
198.171	14
198.546	14
198.922	14
199.297	14
199.672	15
200.047	15
200.422	15
200.796	15
201.171	15
201.546	15
201.921	15
202.296	15
202.671	15
203.045	15
203.420	16
203.795	16
204.170	16
204.544	16
204.919	16
205.294	16
205.668	16
206.043	15
206.417	15
206.792	15
207.166	15
207.541	15
207.915	15
208.289	15
208.664	15
209.038	15
209.412	15
209.787	15
210.161	14
210.535	15
210.909	15
211.284	15
211.658	15
212.032	14
212.406	14
212.780	14
213.154	14
213.528	14
213.902	14
214.276	14
214.650	14
215.024	14
215.398	14
215.772	14
216.145	14
216.519	14
216.893	13
217.267	13
217.640	13
218.014	14
218.388	14
218.761	14
219.135	14
219.508	14
219.882	14
220.256	14
220.629	14
221.003	14
221.376	15
221.749	15
222.123	15
222.496	15
222.869	15
223.243	15
223.616	15
223.989	15
224.362	15
224.736	16
225.109	16
225.482	16
225.855	15
226.228	15
226.601	15
226.974	15
227.347	15
227.720	15
228.093	15
228.466	15
228.839	15
229.212	14
229.585	14
229.957	14
230.330	14
230.703	14
231.076	15
231.448	15
231.821	14
232.194	15
232.566	15
232.939	14
233.311	14
233.684	14
234.056	14
234.429	14
234.801	14
235.174	14
235.546	15
235.918	15
236.291	15
236.663	15
237.035	15
237.408	16
237.780	16
238.152	16
238.524	16
238.896	16
239.268	16
239.641	16
240.013	16
240.385	16
240.757	16
241.129	17
241.500	17
241.872	17
242.244	17
242.616	17
242.988	17
243.360	17
243.731	17
244.103	17
244.475	17
244.847	17
245.218	17
245.590	17
245.961	17
246.333	17
246.705	17
247.076	16
247.448	17
247.819	17
248.190	17
248.562	17
248.933	17
249.305	17
249.676	17
250.047	16
250.418	16
250.790	17
251.161	16
251.532	16
251.903	16
252.274	16
252.645	16
253.016	16
253.387	17
253.758	17
254.129	17
254.500	17
254.871	17
255.242	17
255.613	17
255.984	18
256.355	17
256.725	17
257.096	17
257.467	17
257.838	17
258.208	17
258.579	17
258.949	17
259.320	17
259.690	18
260.061	18
260.431	18
260.802	18
261.172	17
261.543	17
261.913	17
262.283	18
262.654	18
263.024	18
263.394	18
263.764	18
264.135	18
264.505	18
264.875	18
265.245	18
265.615	18
265.985	18
266.355	18
266.725	18
267.095	19
267.465	18
267.835	18
268.205	18
268.575	18
268.944	18
269.314	18
269.684	18
270.054	18
270.423	18
270.793	18
271.163	18
271.532	18
271.902	17
272.271	17
272.641	17
273.010	17
273.380	18
273.749	18
274.119	18
274.488	18
274.857	18
275.227	18
275.596	18
275.965	18
276.335	18
276.704	18
277.073	18
277.442	18
277.811	18
278.180	18
278.549	19
278.918	19
279.287	19
279.656	19
280.025	19
280.394	19
280.763	19
281.132	19
281.501	19
281.869	19
282.238	18
282.607	18
282.976	18
283.344	18
283.713	18
284.081	18
284.450	18
284.819	18
285.187	18
285.556	18
285.924	18
286.292	18
286.661	18
287.029	17
287.398	18
287.766	18
288.134	18
288.502	18
288.871	18
289.239	18
289.607	18
289.975	18
290.343	18
290.711	18
291.079	17
291.447	17
291.815	17
292.183	17
292.551	17
292.919	17
293.287	17
293.655	17
294.022	17
294.390	17
294.758	17
295.126	17
295.493	17
295.861	17
296.229	17
296.596	17
296.964	17
297.331	17
297.699	17
298.066	17
298.434	18
298.801	18
299.168	17
299.536	17
299.903	17
300.270	17
300.638	17
301.005	17
301.372	18
301.739	18
302.106	18
302.473	18
302.840	18
303.207	18
303.574	18
303.941	18
304.308	18
304.675	18
305.042	18
305.409	18
305.776	18
306.143	18
306.509	18
306.876	18
307.243	18
307.610	18
307.976	19
308.343	19
308.709	18
309.076	18
309.442	18
309.809	18
310.175	18
310.542	18
310.908	19
311.275	19
311.641	19
312.007	19
312.373	19
312.740	19
313.106	19
313.472	19
313.838	19
314.204	19
314.570	19
314.936	19
315.302	19
315.668	19
316.034	19
316.400	18
316.766	18
317.132	18
317.498	18
317.864	18
318.230	18
318.595	18
318.961	18
319.327	18
319.692	18
320.058	19
320.424	19
320.789	19
321.155	20
321.520	20
321.886	20
322.251	20
322.616	20
322.982	20
323.347	21
323.712	21
324.078	22
324.443	22
324.808	23
325.173	23
325.539	23
325.904	24
326.269	24
326.634	25
326.999	25
327.364	25
327.729	25
328.094	25
328.459	25
328.823	25
329.188	26
329.553	26
329.918	27
330.283	27
330.647	26
331.012	27
331.377	27
331.741	27
332.106	27
332.470	27
332.835	27
333.199	27
333.564	27
333.928	27
334.293	27
334.657	28
335.021	28
335.386	29
335.750	29
336.114	29
336.478	30
336.843	30
337.207	30
337.571	30
337.935	30
338.299	31
338.663	31
339.027	32
339.391	32
339.755	33
340.119	33
340.483	34
340.846	34
341.210	34
341.574	34
341.938	35
342.301	35
342.665	35
343.029	36
343.392	36
343.756	36
344.119	36
344.483	36
344.846	37
345.210	37
345.573	38
345.937	38
346.300	38
346.663	38
347.027	38
347.390	39
347.753	39
348.116	39
348.479	40
348.843	40
349.206	41
349.569	41
349.932	41
350.295	42
350.658	42
351.021	42
351.383	42
351.746	43
352.109	43
352.472	43
352.835	44
353.197	44
353.560	44
353.923	44
354.285	45
354.648	45
355.011	45
355.373	45
355.736	45
356.098	46
356.461	46
356.823	46
357.185	46
357.548	46
357.910	47
358.272	47
358.635	48
358.997	48
359.359	48
359.721	48
360.083	48
360.445	48
360.807	48
361.169	48
361.531	48
361.893	48
362.255	48
362.617	48
362.979	48
363.341	49
363.703	49
364.064	49
364.426	49
364.788	49
365.149	49
365.511	49
365.873	49
366.234	48
366.596	49
366.957	49
367.319	49
367.680	49
368.042	49
368.403	50
368.764	49
369.126	50
369.487	50
369.848	50
370.209	49
370.570	49
370.931	49
371.293	49
371.654	49
372.015	49
372.376	49
372.737	49
373.098	49
373.458	49
373.819	49
374.180	49
374.541	48
374.902	48
375.263	48
375.623	48
375.984	48
376.345	49
376.705	48
377.066	49
377.426	49
377.787	49
378.147	49
378.508	50
378.868	50
379.228	50
379.589	50
379.949	50
380.309	50
380.670	50
381.030	50
381.390	50
381.750	50
382.110	51
382.470	50
382.830	50
383.190	50
383.550	50
383.910	50
384.270	50
384.630	50
384.990	50
385.350	50
385.709	50
386.069	50
386.429	50
386.788	50
387.148	50
387.508	50
387.867	50
388.227	50
388.586	51
388.946	51
389.305	50
389.665	51
390.024	51
390.383	51
390.743	51
391.102	51
391.461	52
391.820	52
392.179	52
392.539	52
392.898	52
393.257	52
393.616	52
393.975	52
394.334	52
394.693	52
395.051	53
395.410	53
395.769	53
396.128	53
396.487	53
396.845	53
397.204	53
397.563	54
397.921	54
398.280	54
398.638	54
398.997	54
399.355	55
399.714	54
400.072	55
400.431	55
400.789	56
401.147	56
401.506	56
401.864	56
402.222	57
402.580	57
402.938	57
403.297	57
403.655	58
404.013	58
404.371	58
404.729	58
405.087	58
405.444	58
405.802	59
406.160	59
406.518	59
406.876	59
407.233	59
407.591	59
407.949	59
408.306	59
408.664	59
409.022	59
409.379	59
409.737	59
410.094	59
410.451	59
410.809	60
411.166	60
411.523	60
411.881	60
412.238	60
412.595	60
412.952	60
413.310	61
413.667	61
414.024	61
414.381	61
414.738	61
415.095	62
415.452	62
415.809	63
416.165	63
416.522	63
416.879	63
417.236	64
417.593	65
417.949	65
418.306	66
418.663	66
419.019	67
419.376	68
419.732	70
420.089	70
420.445	71
420.802	72
421.158	73
421.514	73
421.871	74
422.227	75
422.583	75
422.939	76
423.295	76
423.652	77
424.008	78
424.364	78
424.720	78
425.076	79
425.432	79
425.788	79
426.143	80
426.499	80
426.855	81
427.211	82
427.567	82
427.922	83
428.278	84
428.634	84
428.989	85
429.345	85
429.700	86
430.056	86
430.411	87
430.767	88
431.122	89
431.478	90
431.833	91
432.188	92
432.543	92
432.899	94
433.254	94
433.609	95
433.964	96
434.319	97
434.674	97
435.029	98
435.384	99
435.739	100
436.094	101
436.449	102
436.804	103
437.158	105
437.513	107
437.868	109
438.223	111
438.577	113
438.932	115
439.287	117
439.641	119
439.996	122
440.350	124
440.704	126
441.059	129
441.413	132
441.768	134
442.122	136
442.476	139
442.830	141
443.185	144
443.539	146
443.893	149
444.247	151
444.601	153
444.955	155
445.309	157
445.663	159
446.017	160
446.371	162
446.724	164
447.078	165
447.432	166
447.786	168
448.139	169
448.493	170
448.847	171
449.200	172
449.554	173
449.907	173
450.261	175
450.614	176
450.968	177
451.321	178
451.674	180
452.027	181
452.381	183
452.734	184
453.087	185
453.440	187
453.793	189
454.146	191
454.499	193
454.852	196
455.205	199
455.558	202
455.911	205
456.264	208
456.617	212
456.970	215
457.322	218
457.675	221
458.028	223
458.380	226
458.733	228
459.086	230
459.438	233
459.791	236
460.143	239
460.496	243
460.848	247
461.200	251
461.553	256
461.905	260
462.257	264
462.609	268
462.961	272
463.314	275
463.666	278
464.018	281
464.370	284
464.722	287
465.074	291
465.426	293
465.777	297
466.129	299
466.481	302
466.833	304
467.184	305
467.536	306
467.888	307
468.239	308
468.591	309
468.943	311
469.294	313
469.646	315
469.997	317
470.348	321
470.700	325
471.051	329
471.402	334
471.754	340
472.105	346
472.456	352
472.807	359
473.158	366
473.509	374
473.860	383
474.211	391
474.562	400
474.913	410
475.264	420
475.615	429
475.966	439
476.316	449
476.667	458
477.018	469
477.368	479
477.719	490
478.070	500
478.420	510
478.771	519
479.121	529
479.472	538
479.822	548
480.172	559
480.523	572
480.873	588
481.223	615
481.573	654
481.924	703
482.274	758
482.624	815
482.974	873
483.324	923
483.674	962
484.024	989
484.374	1008
484.724	1020
485.073	1030
485.423	1038
485.773	1047
486.123	1055
486.472	1063
486.822	1070
487.172	1077
487.521	1083
487.871	1087
488.220	1086
488.570	1075
488.919	1053
489.268	1020
489.618	981
489.967	939
490.316	897
490.666	860
491.015	835
491.364	821
491.713	816
492.062	816
492.411	820
492.760	825
493.109	831
493.458	837
493.807	842
494.156	847
494.505	852
494.853	858
495.202	863
495.551	871
495.900	878
496.248	886
496.597	893
496.945	901
497.294	909
497.642	917
497.991	926
498.339	936
498.688	947
499.036	957
499.384	966
499.732	976
500.081	983
500.429	991
500.777	998
501.125	1004
501.473	1011
501.821	1018
502.169	1025
502.517	1031
502.865	1036
503.213	1040
503.561	1044
503.908	1047
504.256	1051
504.604	1053
504.952	1055
505.299	1057
505.647	1057
505.994	1057
506.342	1057
506.689	1056
507.037	1056
507.384	1057
507.732	1058
508.079	1059
508.426	1061
508.774	1062
509.121	1063
509.468	1064
509.815	1065
510.162	1066
510.509	1067
510.856	1067
511.203	1067
511.550	1067
511.897	1068
512.244	1068
512.591	1068
512.938	1068
513.284	1069
513.631	1069
513.978	1069
514.324	1068
514.671	1067
515.018	1066
515.364	1065
515.711	1065
516.057	1065
516.403	1065
516.750	1064
517.096	1063
517.443	1061
517.789	1059
518.135	1057
518.481	1056
518.827	1055
519.173	1054
519.519	1053
519.865	1052
520.211	1052
520.557	1052
520.903	1052
521.249	1052
521.595	1053
521.941	1053
522.287	1054
522.632	1055
522.978	1056
523.324	1058
523.669	1060
524.015	1063
524.360	1067
524.706	1073
525.051	1080
525.397	1088
525.742	1096
526.087	1105
526.433	1113
526.778	1121
527.123	1127
527.468	1133
527.813	1138
528.158	1143
528.504	1150
528.849	1159
529.193	1169
529.538	1181
529.883	1195
530.228	1211
530.573	1229
530.918	1247
531.263	1265
531.607	1282
531.952	1298
532.296	1312
532.641	1323
532.986	1333
533.330	1343
533.675	1353
534.019	1366
534.363	1381
534.708	1399
535.052	1419
535.396	1439
535.741	1459
536.085	1478
536.429	1495
536.773	1510
537.117	1522
537.461	1534
537.805	1545
538.149	1557
538.493	1569
538.837	1583
539.181	1598
539.524	1617
539.868	1637
540.212	1660
540.556	1684
540.899	1709
541.243	1732
541.586	1751
541.930	1768
542.273	1781
542.617	1794
542.960	1806
543.304	1821
543.647	1839
543.990	1862
544.333	1886
544.677	1911
545.020	1936
545.363	1958
545.706	1975
546.049	1990
546.392	2000
546.735	2007
547.078	2013
547.421	2020
547.764	2028
548.106	2036
548.449	2048
548.792	2063
549.135	2083
549.477	2105
549.820	2128
550.162	2148
550.505	2166
550.847	2180
551.190	2192
551.532	2203
551.875	2214
552.217	2226
552.559	2241
552.901	2259
553.244	2279
553.586	2300
553.928	2323
554.270	2344
554.612	2362
554.954	2378
555.296	2392
555.638	2406
555.980	2421
556.322	2439
556.663	2462
557.005	2491
557.347	2526
557.689	2563
558.030	2599
558.372	2633
558.713	2665
559.055	2695
559.396	2726
559.738	2757
560.079	2792
560.421	2830
560.762	2872
561.103	2919
561.444	2970
561.786	3022
562.127	3078
562.468	3138
562.809	3204
563.150	3276
563.491	3353
563.832	3439
564.173	3536
564.514	3647
564.855	3779
565.195	3940
565.536	4132
565.877	4355
566.218	4606
566.558	4890
566.899	5202
567.239	5538
567.580	5890
567.920	6254
568.261	6621
568.601	6997
568.941	7387
569.282	7788
569.622	8206
569.962	8641
570.302	9107
570.643	9589
570.983	10075
571.323	10545
571.663	11001
572.003	11435
572.343	11844
572.683	12230
573.022	12623
573.362	13039
573.702	13470
574.042	13903
574.381	14319
574.721	14716
575.061	15099
575.400	15447
575.740	15759
576.079	16038
576.419	16316
576.758	16631
577.097	17000
577.437	17403
577.776	17833
578.115	18283
578.454	18739
578.794	19156
579.133	19484
579.472	19715
579.811	19854
580.150	19911
580.489	19903
580.828	19868
581.167	19836
581.505	19823
581.844	19817
582.183	19811
582.522	19819
582.860	19837
583.199	19855
583.538	19843
583.876	19770
584.215	19613
584.553	19364
584.891	19028
585.230	18613
585.568	18153
585.906	17684
586.245	17261
586.583	16897
586.921	16599
587.259	16327
587.597	16053
587.935	15767
588.273	15473
588.611	15200
588.949	14960
589.287	14762
589.625	14609
589.963	14490
590.300	14396
590.638	14310
590.976	14212
591.313	14095
591.651	13985
591.989	13890
592.326	13814
592.664	13749
593.001	13697
593.338	13667
593.676	13656
594.013	13670
594.350	13727
594.687	13819
595.025	13921
595.362	14016
595.699	14085
596.036	14130
596.373	14144
596.710	14121
597.047	14074
597.384	14017
597.720	13952
598.057	13901
598.394	13866
598.731	13848
599.067	13854
599.404	13884
599.741	13946
600.077	14032
600.414	14126
600.750	14225
601.087	14300
601.423	14339
601.759	14346
602.096	14326
602.432	14288
602.768	14229
603.104	14145
603.440	14041
603.776	13929
604.112	13807
604.448	13682
604.784	13550
605.120	13410
605.456	13273
605.792	13130
606.128	12980
606.463	12825
606.799	12670
607.135	12529
607.470	12389
607.806	12250
608.142	12116
608.477	11986
608.812	11860
609.148	11733
609.483	11599
609.819	11462
610.154	11332
610.489	11212
610.824	11108
611.159	11021
611.494	10933
611.830	10855
612.165	10779
612.500	10692
612.834	10592
613.169	10477
613.504	10351
613.839	10210
614.174	10050
614.509	9889
614.843	9728
615.178	9575
615.512	9423
615.847	9275
616.182	9129
616.516	8979
616.850	8821
617.185	8657
617.519	8491
617.853	8311
618.188	8125
618.522	7955
618.856	7811
619.190	7686
619.524	7577
619.858	7491
620.192	7423
620.526	7363
620.860	7303
621.194	7246
621.528	7190
621.862	7133
622.195	7063
622.529	6990
622.863	6913
623.196	6837
623.530	6760
623.864	6683
624.197	6604
624.530	6528
624.864	6459
625.197	6388
625.531	6307
625.864	6209
626.197	6104
626.530	5990
626.863	5862
627.196	5722
627.529	5581
627.862	5442
628.195	5304
628.528	5167
628.861	5036
629.194	4920
629.527	4808
629.860	4698
630.192	4589
630.525	4488
630.858	4393
631.190	4303
631.523	4216
631.855	4135
632.188	4065
632.520	3999
632.852	3936
633.185	3873
633.517	3811
633.849	3755
634.182	3705
634.514	3656
634.846	3613
635.178	3575
635.510	3541
635.842	3510
636.174	3481
636.506	3451
636.837	3421
637.169	3392
637.501	3360
637.833	3327
638.164	3288
638.496	3245
638.828	3197
639.159	3142
639.491	3083
639.822	3022
640.154	2959
640.485	2899
640.816	2839
641.147	2779
641.479	2722
641.810	2666
642.141	2612
642.472	2560
642.803	2506
643.134	2456
643.465	2413
643.796	2379
644.127	2355
644.458	2343
644.789	2344
645.119	2357
645.450	2380
645.781	2404
646.111	2429
646.442	2451
646.773	2468
647.103	2482
647.433	2494
647.764	2506
648.094	2523
648.425	2543
648.755	2568
649.085	2597
649.415	2627
649.745	2659
650.075	2691
650.405	2726
650.735	2805
651.065	3374
651.395	5136
651.725	8037
652.055	11685
652.385	15327
652.715	18969
653.044	22612
653.374	26260
653.704	29914
654.033	32554
654.363	34323
654.692	35496
655.022	36260
655.351	36762
655.680	37074
656.010	37245
656.339	37322
656.668	37343
656.997	37334
657.326	37304
657.655	37219
657.984	36632
658.313	34843
658.642	31905
658.971	28211
659.300	24518
659.629	20825
659.958	17133
660.286	13441
660.615	9750
660.944	7080
661.272	5285
661.601	4087
661.929	3297
662.258	2763
662.586	2413
662.915	2199
663.243	2076
663.571	2007
663.899	1965
664.228	1938
664.556	1920
664.884	1909
665.212	1900
665.540	1894
665.868	1891
666.196	1889
666.524	1889
666.852	1890
667.179	1898
667.507	1913
667.835	1934
668.162	1963
668.490	1998
668.818	2040
669.145	2084
669.473	2126
669.800	2167
670.127	2202
670.455	2231
670.782	2256
671.109	2277
671.436	2296
671.764	2310
672.091	2323
672.418	2333
672.745	2342
673.072	2351
673.399	2362
673.726	2374
674.053	2382
674.379	2386
674.706	2385
675.033	2383
675.359	2380
675.686	2374
676.013	2372
676.339	2374
676.666	2382
676.992	2400
677.318	2424
677.645	2452
677.971	2478
678.297	2502
678.624	2526
678.950	2548
679.276	2569
679.602	2589
679.928	2611
680.254	2637
680.580	2670
680.906	2713
681.232	2765
681.558	2820
681.883	2874
682.209	2924
682.535	2971
682.860	3013
683.186	3049
683.511	3078
683.837	3096
684.162	3111
684.488	3122
684.813	3134
685.138	3145
685.464	3155
685.789	3163
686.114	3171
686.439	3182
686.764	3194
687.089	3202
687.414	3203
687.739	3194
688.064	3174
688.389	3150
688.714	3121
689.039	3091
689.363	3058
689.688	3022
690.013	2988
690.337	2957
690.662	2932
690.986	2909
691.311	2886
691.635	2862
691.959	2841
692.284	2826
692.608	2823
692.932	2828
693.256	2837
693.580	2849
693.904	2865
694.228	2884
694.552	2901
694.876	2909
695.200	2908
695.524	2895
695.848	2877
696.172	2854
696.495	2829
696.819	2804
697.143	2778
697.466	2751
697.790	2728
698.113	2713
698.437	2705
698.760	2704
699.083	2703
699.407	2696
699.730	2682
700.053	2661
700.376	2631
700.699	2589
701.022	2535
701.345	2477
701.668	2423
701.991	2378
702.314	2348
702.637	2334
702.960	2340
703.283	2365
703.605	2408
703.928	2467
704.251	2534
704.573	2600
704.896	2660
705.218	2708
705.540	2748
705.863	2779
706.185	2805
706.507	2828
706.830	2849
707.152	2872
707.474	2895
707.796	2922
708.118	2950
708.440	2977
708.762	3001
709.084	3020
709.406	3031
709.728	3033
710.049	3028
710.371	3015
710.693	2996
711.014	2975
711.336	2954
711.658	2935
711.979	2918
712.301	2902
712.622	2886
712.943	2866
713.265	2842
713.586	2817
713.907	2792
714.228	2771
714.549	2754
714.870	2743
715.191	2738
715.512	2737
715.833	2734
716.154	2727
716.475	2715
716.796	2698
717.117	2673
717.437	2644
717.758	2611
718.078	2577
718.399	2544
718.719	2516
719.040	2490
719.360	2471
719.681	2457
720.001	2449
720.321	2444
720.642	2442
720.962	2445
721.282	2452
721.602	2459
721.922	2470
722.242	2482
722.562	2499
722.882	2519
723.202	2537
723.521	2554
723.841	2571
724.161	2589
724.481	2607
724.800	2626
725.120	2649
725.439	2677
725.759	2709
726.078	2746
726.398	2790
726.717	2845
727.036	2906
727.355	2971
727.675	3034
727.994	3094
728.313	3152
728.632	3202
728.951	3243
729.270	3279
729.589	3313
729.908	3355
730.226	3402
730.545	3453
730.864	3509
731.182	3570
731.501	3630
731.820	3688
732.138	3739
732.457	3784
732.775	3825
733.093	3858
733.412	3877
733.730	3883
734.048	3875
734.367	3859
734.685	3836
735.003	3811
735.321	3788
735.639	3769
735.957	3755
736.275	3742
736.593	3721
736.910	3690
737.228	3647
737.546	3591
737.863	3525
738.181	3453
738.499	3377
738.816	3303
739.134	3230
739.451	3155
739.768	3080
740.086	3008
740.403	2942
740.720	2880
741.038	2822
741.355	2765
741.672	2710
741.989	2652
742.306	2593
742.623	2532
742.940	2472
743.257	2418
743.573	2370
743.890	2331
744.207	2303
744.523	2283
744.840	2270
745.157	2262
745.473	2262
745.790	2270
746.106	2288
746.422	2315
746.739	2349
747.055	2389
747.371	2435
747.687	2483
748.004	2529
748.320	2569
748.636	2605
748.952	2641
749.268	2677
749.584	2712
749.899	2743
750.215	2776
750.531	2812
750.847	2852
751.162	2893
751.478	2933
751.793	2974
752.109	3018
752.424	3065
752.740	3114
753.055	3169
753.370	3235
753.686	3310
754.001	3392
754.316	3478
754.631	3568
754.946	3664
755.261	3766
755.576	3864
755.891	3959
756.206	4053
756.521	4153
756.836	4254
757.150	4351
757.465	4436
757.780	4509
758.094	4572
758.409	4619
758.723	4649
759.038	4662
759.352	4663
759.667	4650
759.981	4628
760.295	4607
760.609	4590
760.923	4579
761.238	4574
761.552	4571
761.866	4565
762.180	4555
762.493	4531
762.807	4483
763.121	4411
763.435	4321
763.749	4222
764.062	4129
764.376	4052
764.689	3998
765.003	3971
765.316	3967
765.630	3981
765.943	4004
766.257	4031
766.570	4054
766.883	4060
767.196	4051
767.509	4025
767.822	3988
768.135	3938
768.448	3885
768.761	3830
769.074	3781
769.387	3745
769.700	3722
770.013	3708
770.325	3697
770.638	3681
770.950	3650
771.263	3601
771.575	3533
771.888	3446
772.200	3345
772.513	3236
772.825	3121
773.137	3004
773.449	2888
773.761	2776
774.074	2672
774.386	2579
774.698	2501
775.010	2437
775.321	2392
775.633	2362
775.945	2345
776.257	2335
776.568	2333
776.880	2341
777.192	2358
777.503	2384
777.815	2416
778.126	2457
778.438	2507
778.749	2561
779.060	2613
779.372	2662
779.683	2709
779.994	2752
780.305	2785
780.616	2808
780.927	2823
781.238	2827
781.549	2821
781.860	2802
782.171	2777
782.481	2748
782.792	2720
783.103	2691
783.413	2659
783.724	2626
784.034	2595
784.345	2566
784.655	2539
784.966	2512
785.276	2483
785.586	2455
785.896	2427
786.207	2397
786.517	2366
786.827	2335
787.137	2306
787.447	2279
787.757	2252
788.066	2226
788.376	2202
788.686	2177
788.996	2152
789.305	2127
789.615	2108
789.925	2098
790.234	2095
790.544	2100
790.853	2110
791.162	2121
791.472	2130
791.781	2134
792.090	2130
792.399	2117
792.708	2097
793.017	2074
793.326	2053
793.635	2032
793.944	2014
794.253	1998
794.562	1987
794.871	1980
795.179	1975
795.488	1968
795.797	1958
796.105	1940
796.414	1910
796.722	1871
797.031	1821
797.339	1760
797.647	1692
797.956	1622
798.264	1556
798.572	1501
798.880	1459
799.188	1428
799.496	1405
799.804	1388
800.112	1375
800.420	1363
800.728	1352
801.035	1338
801.343	1322
801.651	1309
801.958	1306
802.266	1311
802.573	1322
802.881	1336
803.188	1354
803.496	1373
803.803	1392
804.110	1410
804.417	1426
804.724	1441
805.032	1454
805.339	1465
805.646	1472
805.953	1476
806.259	1477
806.566	1475
806.873	1469
807.180	1462
807.486	1454
807.793	1445
808.100	1430
808.406	1406
808.713	1374
809.019	1336
809.326	1298
809.632	1262
809.938	1228
810.244	1197
810.551	1172
810.857	1150
811.163	1130
811.469	1111
811.775	1089
812.081	1066
812.387	1046
812.692	1029
812.998	1017
813.304	1007
813.610	999
813.915	992
814.221	986
814.526	982
814.832	977
815.137	973
815.443	967
815.748	957
816.053	944
816.358	931
816.664	919
816.969	908
817.274	898
817.579	890
817.884	885
818.189	884
818.493	884
818.798	881
819.103	875
819.408	867
819.712	857
820.017	846
820.321	835
820.626	823
820.930	812
821.235	805
821.539	802
821.843	802
822.148	804
822.452	805
822.756	804
823.060	801
823.364	796
823.668	789
823.972	781
824.276	772
824.580	765
824.883	761
825.187	760
825.491	760
825.795	760
826.098	760
826.402	759
826.705	756
827.008	751
827.312	743
827.615	730
827.918	715
828.222	698
828.525	680
828.828	664
829.131	647
829.434	630
829.737	615
830.040	602
830.343	592
830.645	583
830.948	574
831.251	565
831.553	557
831.856	551
832.159	545
832.461	538
832.764	530
833.066	523
833.368	516
833.671	512
833.973	508
834.275	505
834.577	501
834.879	497
835.181	492
835.483	486
835.785	480
836.087	471
836.389	461
836.690	450
836.992	437
837.294	425
837.595	411
837.897	396
838.198	382
838.500	369
838.801	357
839.103	347
839.404	338
839.705	331
840.006	324
840.307	320
840.608	316
840.910	313
841.210	311
841.511	309
841.812	306
842.113	302
842.414	298
842.715	293
843.015	287
843.316	280
843.616	275
843.917	270
844.217	265
844.518	261
844.818	258
845.118	256
845.419	254
845.719	252
846.019	251
846.319	250
846.619	249
846.919	247
847.219	246
847.519	244
847.819	243
848.118	243
848.418	246
848.718	253
849.017	266
849.317	283
849.616	304
849.916	328
850.215	355
850.515	384
850.814	412
851.113	438
851.412	461
851.712	482
852.011	502
852.310	520
852.609	537
852.908	551
853.206	564
853.505	576
853.804	586
854.103	595
854.401	601
854.700	604
854.999	601
855.297	594
855.595	581
855.894	564
856.192	543
856.491	520
856.789	494
857.087	467
857.385	443
857.683	421
857.981	400
858.279	382
858.577	364
858.875	348
859.173	336
859.471	326
859.768	317
860.066	310
860.363	304
860.661	299
860.959	295
861.256	291
861.553	287
861.851	281
862.148	276
862.445	270
862.742	266
863.039	261
863.337	258
863.634	255
863.931	252
864.227	251
864.524	251
864.821	251
865.118	250
865.415	248
865.711	245
866.008	241
866.304	236
866.601	231
866.897	227
867.194	224
867.490	221
867.786	220
868.082	220
868.379	220
868.675	221
868.971	221
869.267	221
869.563	221
869.859	220
870.154	220
870.450	218
870.746	217
871.042	216
871.337	216
871.633	216
871.928	217
872.224	219
872.519	221
872.815	223
873.110	224
873.405	223
873.700	223
873.995	222
874.291	223
874.586	224
874.881	225
875.175	227
875.470	231
875.765	235
876.060	239
876.355	244
876.649	249
876.944	253
877.238	258
877.533	262
877.827	265
878.122	267
878.416	268
878.710	267
879.005	267
879.299	266
879.593	265
879.887	264
880.181	263
880.475	261
880.769	259
881.063	256
881.356	253
881.650	250
881.944	246
882.238	205
882.531	196
882.825	195
883.118	202
883.412	195
883.705	195
883.998	201
884.291	206
884.585	208
884.878	217
>>>>>>>>>> END of Data <<<<<<<<<<