Date	2020年11月24日火曜日 05時18分51秒
Spectrometers	USB2+H05879
ダーク	使用
リファレンス	使用
積分時間[msec]	10
平均回数	200
ｽﾑｰｼﾞﾝｸﾞ	5
Electrical Dark	USE
ピクセル数	2048
計測モード	吸光度
保存開始波長[nm]	200.000
保存終了波長[nm]	800.000
保存ﾋﾟｯﾁ波長[nm]	全波長

>>>>>>>>>> Data Start <<<<<<<<<<<<
200.047	0.268365
200.422	0.293524
200.796	0.279941
201.171	0.298517
201.546	0.332033
201.921	0.349222
202.296	0.363285
202.671	0.357386
203.045	0.377638
203.420	0.375486
203.795	0.366419
204.170	0.366470
204.544	0.371964
204.919	0.397646
205.294	0.396120
205.668	0.388121
206.043	0.389912
206.417	0.384974
206.792	0.378688
207.166	0.369210
207.541	0.366291
207.915	0.385475
208.289	0.411244
208.664	0.415010
209.038	0.396611
209.412	0.387300
209.787	0.392283
210.161	0.391843
210.535	0.416425
210.909	0.418855
211.284	0.423309
211.658	0.446099
212.032	0.440847
212.406	0.431885
212.780	0.417354
213.154	0.432816
213.528	0.427976
213.902	0.427405
214.276	0.422320
214.650	0.423514
215.024	0.414657
215.398	0.385124
215.772	0.375156
216.145	0.377944
216.519	0.375089
216.893	0.377144
217.267	0.369000
217.640	0.380720
218.014	0.364177
218.388	0.361877
218.761	0.345241
219.135	0.341660
219.508	0.343118
219.882	0.346080
220.256	0.345427
220.629	0.347365
221.003	0.378411
221.376	0.394984
221.749	0.406515
222.123	0.445131
222.496	0.438401
222.869	0.441133
223.243	0.461871
223.616	0.475278
223.989	0.484146
224.362	0.483593
224.736	0.490792
225.109	0.481771
225.482	0.475963
225.855	0.460132
226.228	0.437775
226.601	0.436542
226.974	0.437828
227.347	0.431308
227.720	0.438088
228.093	0.414804
228.466	0.404467
228.839	0.385333
229.212	0.364906
229.585	0.356513
229.957	0.343581
230.330	0.320949
230.703	0.335069
231.076	0.332934
231.448	0.342874
231.821	0.343289
232.194	0.345790
232.566	0.344238
232.939	0.348866
233.311	0.342657
233.684	0.351488
234.056	0.368584
234.429	0.401270
234.801	0.400819
235.174	0.410022
235.546	0.411668
235.918	0.421019
236.291	0.433333
236.663	0.442955
237.035	0.450746
237.408	0.459643
237.780	0.460858
238.152	0.456129
238.524	0.447387
238.896	0.450674
239.268	0.457789
239.641	0.425751
240.013	0.414998
240.385	0.415000
240.757	0.421987
241.129	0.412184
241.500	0.393414
241.872	0.402110
242.244	0.414313
242.616	0.410407
242.988	0.403728
243.360	0.394502
243.731	0.418758
244.103	0.415579
244.475	0.405398
244.847	0.399133
245.218	0.401145
245.590	0.425240
245.961	0.416505
246.333	0.407545
246.705	0.426268
247.076	0.424223
247.448	0.422233
247.819	0.415867
248.190	0.432762
248.562	0.435160
248.933	0.428577
249.305	0.441683
249.676	0.429443
250.047	0.428592
250.418	0.435454
250.790	0.432662
251.161	0.430851
251.532	0.434295
251.903	0.420249
252.274	0.412715
252.645	0.422493
253.016	0.426831
253.387	0.418358
253.758	0.419470
254.129	0.418527
254.500	0.414987
254.871	0.403720
255.242	0.381351
255.613	0.375325
255.984	0.384688
256.355	0.381632
256.725	0.375258
257.096	0.374345
257.467	0.379033
257.838	0.384921
258.208	0.380662
258.579	0.379742
258.949	0.382141
259.320	0.390650
259.690	0.390724
260.061	0.394911
260.431	0.385091
260.802	0.381398
261.172	0.382674
261.543	0.380778
261.913	0.381770
262.283	0.381572
262.654	0.366261
263.024	0.364221
263.394	0.376896
263.764	0.370683
264.135	0.360221
264.505	0.362764
264.875	0.361483
265.245	0.361995
265.615	0.350675
265.985	0.356504
266.355	0.365668
266.725	0.391230
267.095	0.395622
267.465	0.385854
267.835	0.391196
268.205	0.394498
268.575	0.405746
268.944	0.407843
269.314	0.404185
269.684	0.418102
270.054	0.409880
270.423	0.399471
270.793	0.380107
271.163	0.383694
271.532	0.391938
271.902	0.399212
272.271	0.413455
272.641	0.421541
273.010	0.430431
273.380	0.433122
273.749	0.418568
274.119	0.408551
274.488	0.416071
274.857	0.422192
275.227	0.421717
275.596	0.430786
275.965	0.432307
276.335	0.425160
276.704	0.427706
277.073	0.427384
277.442	0.446065
277.811	0.451350
278.180	0.459340
278.549	0.464914
278.918	0.455956
279.287	0.453154
279.656	0.450509
280.025	0.452984
280.394	0.441959
280.763	0.430743
281.132	0.426166
281.501	0.406788
281.869	0.415420
282.238	0.423958
282.607	0.422333
282.976	0.439970
283.344	0.434980
283.713	0.436954
284.081	0.450888
284.450	0.466354
284.819	0.469627
285.187	0.466507
285.556	0.478996
285.924	0.478102
286.292	0.471046
286.661	0.473356
287.029	0.470291
287.398	0.473462
287.766	0.466284
288.134	0.439496
288.502	0.438340
288.871	0.433148
289.239	0.449768
289.607	0.440313
289.975	0.444750
290.343	0.456359
290.711	0.463081
291.079	0.458664
291.447	0.469036
291.815	0.472428
292.183	0.487302
292.551	0.503684
292.919	0.507633
293.287	0.500983
293.655	0.510512
294.022	0.515696
294.390	0.503207
294.758	0.481967
295.126	0.483040
295.493	0.484103
295.861	0.486770
296.229	0.487773
296.596	0.479336
296.964	0.484477
297.331	0.484610
297.699	0.492480
298.066	0.500347
298.434	0.514634
298.801	0.531968
299.168	0.539199
299.536	0.546794
299.903	0.540698
300.270	0.547699
300.638	0.549771
301.005	0.552212
301.372	0.556312
301.739	0.560265
302.106	0.561487
302.473	0.575164
302.840	0.603851
303.207	0.619428
303.574	0.630524
303.941	0.667924
304.308	0.695082
304.675	0.727010
305.042	0.756057
305.409	0.786302
305.776	0.800479
306.143	0.834990
306.509	0.855378
306.876	0.868464
307.243	0.889816
307.610	0.918424
307.976	0.941678
308.343	0.966043
308.709	0.980116
309.076	1.003557
309.442	1.027733
309.809	1.046661
310.175	1.056964
310.542	1.075686
310.908	1.091002
311.275	1.113586
311.641	1.130626
312.007	1.140062
312.373	1.147712
312.740	1.163242
313.106	1.172969
313.472	1.182654
313.838	1.196595
314.204	1.207766
314.570	1.215317
314.936	1.222606
315.302	1.226548
315.668	1.229257
316.034	1.233395
316.400	1.240109
316.766	1.244266
317.132	1.246278
317.498	1.248311
317.864	1.250102
318.230	1.252572
318.595	1.253947
318.961	1.256265
319.327	1.259898
319.692	1.260763
320.058	1.262337
320.424	1.262163
320.789	1.261418
321.155	1.263077
321.520	1.261479
321.886	1.260918
322.251	1.260871
322.616	1.260806
322.982	1.258070
323.347	1.255809
323.712	1.254806
324.078	1.253708
324.443	1.252751
324.808	1.252009
325.173	1.249411
325.539	1.248782
325.904	1.247110
326.269	1.245023
326.634	1.242974
326.999	1.241580
327.364	1.239884
327.729	1.237420
328.094	1.235230
328.459	1.231996
328.823	1.229494
329.188	1.226592
329.553	1.223915
329.918	1.221333
330.283	1.218996
330.647	1.216008
331.012	1.213420
331.377	1.210409
331.741	1.207628
332.106	1.205610
332.470	1.203590
332.835	1.201054
333.199	1.199648
333.564	1.197730
333.928	1.196110
334.293	1.193239
334.657	1.191033
335.021	1.189033
335.386	1.187329
335.750	1.186182
336.114	1.183929
336.478	1.182412
336.843	1.181047
337.207	1.179060
337.571	1.176785
337.935	1.175140
338.299	1.174269
338.663	1.172968
339.027	1.172217
339.391	1.170644
339.755	1.168948
340.119	1.167955
340.483	1.166153
340.846	1.165004
341.210	1.164321
341.574	1.163956
341.938	1.163354
342.301	1.162696
342.665	1.162530
343.029	1.161787
343.392	1.161695
343.756	1.161499
344.119	1.161331
344.483	1.161568
344.846	1.161268
345.210	1.161100
345.573	1.160673
345.937	1.160560
346.300	1.160437
346.663	1.160185
347.027	1.160183
347.390	1.160171
347.753	1.160277
348.116	1.160216
348.479	1.160603
348.843	1.161190
349.206	1.161409
349.569	1.161909
349.932	1.162057
350.295	1.161999
350.658	1.162383
351.021	1.162649
351.383	1.163234
351.746	1.164048
352.109	1.164320
352.472	1.164808
352.835	1.164951
353.197	1.165313
353.560	1.165940
353.923	1.166068
354.285	1.166551
354.648	1.166998
355.011	1.167271
355.373	1.167424
355.736	1.167446
356.098	1.168190
356.461	1.168283
356.823	1.168686
357.185	1.169079
357.548	1.169309
357.910	1.170156
358.272	1.170941
358.635	1.171220
358.997	1.171735
359.359	1.172160
359.721	1.172697
360.083	1.173096
360.445	1.173204
360.807	1.173414
361.169	1.173999
361.531	1.174515
361.893	1.174902
362.255	1.175179
362.617	1.175616
362.979	1.176471
363.341	1.176898
363.703	1.177498
364.064	1.177796
364.426	1.178747
364.788	1.179570
365.149	1.179966
365.511	1.180364
365.873	1.180770
366.234	1.181439
366.596	1.182174
366.957	1.182351
367.319	1.182728
367.680	1.183110
368.042	1.183653
368.403	1.184153
368.764	1.184507
369.126	1.184855
369.487	1.185558
369.848	1.186142
370.209	1.186663
370.570	1.187203
370.931	1.187566
371.293	1.188260
371.654	1.188656
372.015	1.188919
372.376	1.189501
372.737	1.190275
373.098	1.190956
373.458	1.191276
373.819	1.191791
374.180	1.192541
374.541	1.193054
374.902	1.193909
375.263	1.194650
375.623	1.195429
375.984	1.196565
376.345	1.197066
376.705	1.197520
377.066	1.198199
377.426	1.199124
377.787	1.199875
378.147	1.200332
378.508	1.201087
378.868	1.201682
379.228	1.202302
379.589	1.202846
379.949	1.203321
380.309	1.203967
380.670	1.204686
381.030	1.205152
381.390	1.205172
381.750	1.205579
382.110	1.206030
382.470	1.206293
382.830	1.206610
383.190	1.206813
383.550	1.207188
383.910	1.207453
384.270	1.208016
384.630	1.208068
384.990	1.208604
385.350	1.209206
385.709	1.209923
386.069	1.210060
386.429	1.210678
386.788	1.211225
387.148	1.211688
387.508	1.211872
387.867	1.212118
388.227	1.212171
388.586	1.212275
388.946	1.212341
389.305	1.212357
389.665	1.212163
390.024	1.212313
390.383	1.212368
390.743	1.212319
391.102	1.212086
391.461	1.212150
391.820	1.211795
392.179	1.211603
392.539	1.211701
392.898	1.211506
393.257	1.211318
393.616	1.210938
393.975	1.210451
394.334	1.209747
394.693	1.209247
395.051	1.208821
395.410	1.208525
395.769	1.208381
396.128	1.208112
396.487	1.207830
396.845	1.207107
397.204	1.206777
397.563	1.206190
397.921	1.205804
398.280	1.205285
398.638	1.204626
398.997	1.204392
399.355	1.203406
399.714	1.202399
400.072	1.201528
400.431	1.200295
400.789	1.199426
401.147	1.198323
401.506	1.197470
401.864	1.196358
402.222	1.195428
402.580	1.194147
402.938	1.192571
403.297	1.191402
403.655	1.190656
404.013	1.189481
404.371	1.188301
404.729	1.187298
405.087	1.186005
405.444	1.184693
405.802	1.183546
406.160	1.182143
406.518	1.181085
406.876	1.179942
407.233	1.178593
407.591	1.176685
407.949	1.175177
408.306	1.173607
408.664	1.172189
409.022	1.170595
409.379	1.169001
409.737	1.167194
410.094	1.165759
410.451	1.163956
410.809	1.162234
411.166	1.160747
411.523	1.159405
411.881	1.157864
412.238	1.156240
412.595	1.154549
412.952	1.153003
413.310	1.151331
413.667	1.149943
414.024	1.147883
414.381	1.146249
414.738	1.144534
415.095	1.142359
415.452	1.140264
415.809	1.138168
416.165	1.136689
416.522	1.134788
416.879	1.132988
417.236	1.131167
417.593	1.129138
417.949	1.127601
418.306	1.125620
418.663	1.123665
419.019	1.121940
419.376	1.120061
419.732	1.117964
420.089	1.115885
420.445	1.113934
420.802	1.111934
421.158	1.110239
421.514	1.108300
421.871	1.106292
422.227	1.104413
422.583	1.102422
422.939	1.100602
423.295	1.098570
423.652	1.096539
424.008	1.094489
424.364	1.092427
424.720	1.090237
425.076	1.088030
425.432	1.085843
425.788	1.083628
426.143	1.081504
426.499	1.079199
426.855	1.077010
427.211	1.074633
427.567	1.072539
427.922	1.070328
428.278	1.068075
428.634	1.066092
428.989	1.063838
429.345	1.061791
429.700	1.059454
430.056	1.057134
430.411	1.054887
430.767	1.052227
431.122	1.049946
431.478	1.047606
431.833	1.045007
432.188	1.042266
432.543	1.039653
432.899	1.036811
433.254	1.034264
433.609	1.031769
433.964	1.029274
434.319	1.026630
434.674	1.024069
435.029	1.021561
435.384	1.018796
435.739	1.015987
436.094	1.013118
436.449	1.010275
436.804	1.007687
437.158	1.005005
437.513	1.002339
437.868	0.999764
438.223	0.997374
438.577	0.994708
438.932	0.992086
439.287	0.989115
439.641	0.986437
439.996	0.983725
440.350	0.980758
440.704	0.977974
441.059	0.975182
441.413	0.972262
441.768	0.969586
442.122	0.966709
442.476	0.963814
442.830	0.960947
443.185	0.958286
443.539	0.955424
443.893	0.952675
444.247	0.950001
444.601	0.947121
444.955	0.944080
445.309	0.941370
445.663	0.938314
446.017	0.935416
446.371	0.932681
446.724	0.929619
447.078	0.926598
447.432	0.923499
447.786	0.920376
448.139	0.917371
448.493	0.914321
448.847	0.911491
449.200	0.908590
449.554	0.905473
449.907	0.902480
450.261	0.899596
450.614	0.896847
450.968	0.894063
451.321	0.891208
451.674	0.888376
452.027	0.885543
452.381	0.882740
452.734	0.879837
453.087	0.877099
453.440	0.874435
453.793	0.871751
454.146	0.868984
454.499	0.866255
454.852	0.863542
455.205	0.860723
455.558	0.858157
455.911	0.855412
456.264	0.852841
456.617	0.850246
456.970	0.847545
457.322	0.844979
457.675	0.842638
458.028	0.839981
458.380	0.837493
458.733	0.835045
459.086	0.832790
459.438	0.830283
459.791	0.827873
460.143	0.825319
460.496	0.822860
460.848	0.820446
461.200	0.817938
461.553	0.815273
461.905	0.812898
462.257	0.810349
462.609	0.807859
462.961	0.805479
463.314	0.803050
463.666	0.800595
464.018	0.798266
464.370	0.795916
464.722	0.793729
465.074	0.791426
465.426	0.789296
465.777	0.787033
466.129	0.784727
466.481	0.782417
466.833	0.780041
467.184	0.777830
467.536	0.775599
467.888	0.773406
468.239	0.771162
468.591	0.768746
468.943	0.766664
469.294	0.764405
469.646	0.762140
469.997	0.759993
470.348	0.757788
470.700	0.755289
471.051	0.752963
471.402	0.750720
471.754	0.748659
472.105	0.746631
472.456	0.744695
472.807	0.742735
473.158	0.740825
473.509	0.738908
473.860	0.736975
474.211	0.734898
474.562	0.733027
474.913	0.731113
475.264	0.729169
475.615	0.727232
475.966	0.725379
476.316	0.723478
476.667	0.721577
477.018	0.719623
477.368	0.717637
477.719	0.715682
478.070	0.713989
478.420	0.712222
478.771	0.710296
479.121	0.708400
479.472	0.706373
479.822	0.704508
480.172	0.702721
480.523	0.700915
480.873	0.699140
481.223	0.697396
481.573	0.695524
481.924	0.693568
482.274	0.691609
482.624	0.689813
482.974	0.687666
483.324	0.685509
483.674	0.683210
484.024	0.681146
484.374	0.679334
484.724	0.677738
485.073	0.676392
485.423	0.675226
485.773	0.674087
486.123	0.672970
486.472	0.671507
486.822	0.670100
487.172	0.668590
487.521	0.667046
487.871	0.665244
488.220	0.663190
488.570	0.660964
488.919	0.658677
489.268	0.656504
489.618	0.654552
489.967	0.652646
490.316	0.651001
490.666	0.649115
491.015	0.647213
491.364	0.645353
491.713	0.643538
492.062	0.641658
492.411	0.639843
492.760	0.637929
493.109	0.636104
493.458	0.634295
493.807	0.632523
494.156	0.630715
494.505	0.628981
494.853	0.627121
495.202	0.625264
495.551	0.623387
495.900	0.621608
496.248	0.619758
496.597	0.618089
496.945	0.616293
497.294	0.614380
497.642	0.612519
497.991	0.610736
498.339	0.608933
498.688	0.607231
499.036	0.605519
499.384	0.603707
499.732	0.601883
500.081	0.600148
500.429	0.598440
500.777	0.596740
501.125	0.595071
501.473	0.593450
501.821	0.591767
502.169	0.590072
502.517	0.588374
502.865	0.586681
503.213	0.585146
503.561	0.583608
503.908	0.582016
504.256	0.580378
504.604	0.578864
504.952	0.577268
505.299	0.575653
505.647	0.574164
505.994	0.572628
506.342	0.571187
506.689	0.569780
507.037	0.568260
507.384	0.566783
507.732	0.565290
508.079	0.563911
508.426	0.562461
508.774	0.561000
509.121	0.559585
509.468	0.558192
509.815	0.556840
510.162	0.555475
510.509	0.554096
510.856	0.552808
511.203	0.551625
511.550	0.550352
511.897	0.549008
512.244	0.547670
512.591	0.546421
512.938	0.545200
513.284	0.543934
513.631	0.542653
513.978	0.541427
514.324	0.540160
514.671	0.538918
515.018	0.537514
515.364	0.536318
515.711	0.535066
516.057	0.533850
516.403	0.532574
516.750	0.531290
517.096	0.529957
517.443	0.528720
517.789	0.527413
518.135	0.526173
518.481	0.524930
518.827	0.523669
519.173	0.522356
519.519	0.521104
519.865	0.519846
520.211	0.518793
520.557	0.517598
520.903	0.516419
521.249	0.515184
521.595	0.513979
521.941	0.512734
522.287	0.511588
522.632	0.510378
522.978	0.509172
523.324	0.508022
523.669	0.506864
524.015	0.505545
524.360	0.504350
524.706	0.503029
525.051	0.501716
525.397	0.500486
525.742	0.499272
526.087	0.497996
526.433	0.496777
526.778	0.495657
527.123	0.494329
527.468	0.493028
527.813	0.491797
528.158	0.490521
528.504	0.489372
528.849	0.488140
529.193	0.486799
529.538	0.485502
529.883	0.484081
530.228	0.482682
530.573	0.481193
530.918	0.479767
531.263	0.478339
531.607	0.476891
531.952	0.475425
532.296	0.473933
532.641	0.472517
532.986	0.471125
533.330	0.469626
533.675	0.468307
534.019	0.466851
534.363	0.465391
534.708	0.464021
535.052	0.462450
535.396	0.460840
535.741	0.459237
536.085	0.457476
536.429	0.455822
536.773	0.454148
537.117	0.452494
537.461	0.450810
537.805	0.449244
538.149	0.447640
538.493	0.445796
538.837	0.444052
539.181	0.442319
539.524	0.440531
539.868	0.438847
540.212	0.437022
540.556	0.435179
540.899	0.433338
541.243	0.431413
541.586	0.429595
541.930	0.427744
542.273	0.425966
542.617	0.424237
542.960	0.422427
543.304	0.420652
543.647	0.418762
543.990	0.416911
544.333	0.414989
544.677	0.412983
545.020	0.410931
545.363	0.408650
545.706	0.406478
546.049	0.404312
546.392	0.402098
546.735	0.399970
547.078	0.397728
547.421	0.395479
547.764	0.393410
548.106	0.391344
548.449	0.389355
548.792	0.387172
549.135	0.384978
549.477	0.382569
549.820	0.380200
550.162	0.377709
550.505	0.375212
550.847	0.372849
551.190	0.370651
551.532	0.368260
551.875	0.365936
552.217	0.363646
552.559	0.361406
552.901	0.359037
553.244	0.356722
553.586	0.354347
553.928	0.351958
554.270	0.349487
554.612	0.346945
554.954	0.344411
555.296	0.342017
555.638	0.339608
555.980	0.337075
556.322	0.334688
556.663	0.332283
557.005	0.329937
557.347	0.327341
557.689	0.324807
558.030	0.322159
558.372	0.319472
558.713	0.316802
559.055	0.314086
559.396	0.311612
559.738	0.309212
560.079	0.306785
560.421	0.304412
560.762	0.301916
561.103	0.299687
561.444	0.297241
561.786	0.294801
562.127	0.292273
562.468	0.289780
562.809	0.287395
563.150	0.284865
563.491	0.282421
563.832	0.279941
564.173	0.277611
564.514	0.275219
564.855	0.272665
565.195	0.270121
565.536	0.267538
565.877	0.265002
566.218	0.262379
566.558	0.259695
566.899	0.257223
567.239	0.254804
567.580	0.252558
567.920	0.250362
568.261	0.248249
568.601	0.246162
568.941	0.244186
569.282	0.242274
569.622	0.240487
569.962	0.238740
570.302	0.236986
570.643	0.235176
570.983	0.233249
571.323	0.231223
571.663	0.229125
572.003	0.226946
572.343	0.224807
572.683	0.222721
573.022	0.220717
573.362	0.218753
573.702	0.216833
574.042	0.214998
574.381	0.213048
574.721	0.210956
575.061	0.208631
575.400	0.206249
575.740	0.203908
576.079	0.201700
576.419	0.199641
576.758	0.197690
577.097	0.195932
577.437	0.194326
577.776	0.192726
578.115	0.191039
578.454	0.189251
578.794	0.187444
579.133	0.185730
579.472	0.183189
579.811	0.173669
580.150	0.165160
580.489	0.158986
580.828	0.155482
581.167	0.154581
581.505	0.156030
581.844	0.160228
582.183	0.166903
582.522	0.174681
582.860	0.173941
583.199	0.172980
583.538	0.171946
583.876	0.171033
584.215	0.170283
584.553	0.169500
584.891	0.168462
585.230	0.167366
585.568	0.166362
585.906	0.165338
586.245	0.164486
586.583	0.163800
586.921	0.163204
587.259	0.162609
587.597	0.162009
587.935	0.161465
588.273	0.160838
588.611	0.160171
588.949	0.159408
589.287	0.158652
589.625	0.157926
589.963	0.157064
590.300	0.156107
590.638	0.155092
590.976	0.154048
591.313	0.152994
591.651	0.151932
591.989	0.150987
592.326	0.150103
592.664	0.149414
593.001	0.148730
593.338	0.148057
593.676	0.147375
594.013	0.146748
594.350	0.146119
594.687	0.145533
595.025	0.144942
595.362	0.144333
595.699	0.143627
596.036	0.142985
596.373	0.142250
596.710	0.141493
597.047	0.140697
597.384	0.139964
597.720	0.139165
598.057	0.138441
598.394	0.137726
598.731	0.137042
599.067	0.136453
599.404	0.135918
599.741	0.135408
600.077	0.134867
600.414	0.134328
600.750	0.133790
601.087	0.133248
601.423	0.132747
601.759	0.132201
602.096	0.131716
602.432	0.131181
602.768	0.130627
603.104	0.130100
603.440	0.129523
603.776	0.129061
604.112	0.128491
604.448	0.127979
604.784	0.127432
605.120	0.126878
605.456	0.126360
605.792	0.125766
606.128	0.125250
606.463	0.124750
606.799	0.124256
607.135	0.123796
607.470	0.123177
607.806	0.122660
608.142	0.122092
608.477	0.121608
608.812	0.121061
609.148	0.120524
609.483	0.120079
609.819	0.119576
610.154	0.119085
610.489	0.118579
610.824	0.118080
611.159	0.117612
611.494	0.117155
611.830	0.116732
612.165	0.116195
612.500	0.115760
612.834	0.115336
613.169	0.114898
613.504	0.114557
613.839	0.114210
614.174	0.113895
614.509	0.113566
614.843	0.113238
615.178	0.112849
615.512	0.112576
615.847	0.112213
616.182	0.111919
616.516	0.111587
616.850	0.111233
617.185	0.110888
617.519	0.110589
617.853	0.110253
618.188	0.109894
618.522	0.109606
618.856	0.109360
619.190	0.109059
619.524	0.108835
619.858	0.108513
620.192	0.108167
620.526	0.107909
620.860	0.107595
621.194	0.107190
621.528	0.106781
621.862	0.106513
622.195	0.106207
622.529	0.105911
622.863	0.105579
623.196	0.105327
623.530	0.105040
623.864	0.104804
624.197	0.104565
624.530	0.104253
624.864	0.104003
625.197	0.103794
625.531	0.103433
625.864	0.103216
626.197	0.102905
626.530	0.102467
626.863	0.102124
627.196	0.101808
627.529	0.101593
627.862	0.101260
628.195	0.101005
628.528	0.100803
628.861	0.100548
629.194	0.100342
629.527	0.100000
629.860	0.099869
630.192	0.099681
630.525	0.099499
630.858	0.099218
631.190	0.098892
631.523	0.098631
631.855	0.098394
632.188	0.098109
632.520	0.097907
632.852	0.097717
633.185	0.097464
633.517	0.097245
633.849	0.097061
634.182	0.096790
634.514	0.096530
634.846	0.096389
635.178	0.096120
635.510	0.095872
635.842	0.095650
636.174	0.095429
636.506	0.095307
636.837	0.095179
637.169	0.094897
637.501	0.094652
637.833	0.094446
638.164	0.094361
638.496	0.094045
638.828	0.093894
639.159	0.093776
639.491	0.093608
639.822	0.093427
640.154	0.093075
640.485	0.092861
640.816	0.092576
641.147	0.092408
641.479	0.092247
641.810	0.092171
642.141	0.091946
642.472	0.091829
642.803	0.091590
643.134	0.091318
643.465	0.090992
643.796	0.090853
644.127	0.090729
644.458	0.090590
644.789	0.090407
645.119	0.090290
645.450	0.090047
645.781	0.089803
646.111	0.089529
646.442	0.089323
646.773	0.089335
647.103	0.089140
647.433	0.088934
647.764	0.088666
648.094	0.088448
648.425	0.088360
648.755	0.088178
649.085	0.087926
649.415	0.087989
649.745	0.087803
650.075	0.087638
650.405	0.087300
650.735	0.087183
651.065	0.086870
651.395	0.086531
651.725	0.086378
652.055	0.086068
652.385	0.086116
652.715	0.084919
653.044	0.045567
653.374	0.030165
653.704	0.021917
654.033	0.016766
654.363	0.013239
654.692	0.010697
655.022	0.008778
655.351	0.007260
655.680	-0.000000
656.010	-0.000000
656.339	-0.000000
656.668	-0.000000
656.997	0.019091
657.326	0.022704
657.655	0.026942
657.984	0.032258
658.313	0.039442
658.642	0.049993
658.971	0.067314
659.300	0.088750
659.629	0.079441
659.958	0.078688
660.286	0.078475
660.615	0.078758
660.944	0.079365
661.272	0.080092
661.601	0.080634
661.929	0.081179
662.258	0.081480
662.586	0.081465
662.915	0.081343
663.243	0.081456
663.571	0.081423
663.899	0.081367
664.228	0.081166
664.556	0.080889
664.884	0.080744
665.212	0.080708
665.540	0.080509
665.868	0.080288
666.196	0.080133
666.524	0.080100
666.852	0.079674
667.179	0.079342
667.507	0.079161
667.835	0.079116
668.162	0.079023
668.490	0.078854
668.818	0.078752
669.145	0.078574
669.473	0.078384
669.800	0.078097
670.127	0.077890
670.455	0.077936
670.782	0.077819
671.109	0.077649
671.436	0.077508
671.764	0.077436
672.091	0.077222
672.418	0.077096
672.745	0.076905
673.072	0.076825
673.399	0.076784
673.726	0.076735
674.053	0.076538
674.379	0.076376
674.706	0.076357
675.033	0.076223
675.359	0.076167
675.686	0.076054
676.013	0.075902
676.339	0.075820
676.666	0.075729
676.992	0.075516
677.318	0.075302
677.645	0.075170
677.971	0.074989
678.297	0.074740
678.624	0.074582
678.950	0.074408
679.276	0.074269
679.602	0.074124
679.928	0.074131
680.254	0.074034
680.580	0.074048
680.906	0.073937
681.232	0.073860
681.558	0.073898
681.883	0.073811
682.209	0.073801
682.535	0.073588
682.860	0.073627
683.186	0.073488
683.511	0.073190
683.837	0.073142
684.162	0.072975
684.488	0.072790
684.813	0.072567
685.138	0.072360
685.464	0.072314
685.789	0.072192
686.114	0.072197
686.439	0.071965
686.764	0.071857
687.089	0.071730
687.414	0.071545
687.739	0.071372
688.064	0.071208
688.389	0.071075
688.714	0.071047
689.039	0.070728
689.363	0.070570
689.688	0.070254
690.013	0.070320
690.337	0.070201
690.662	0.070099
690.986	0.069907
691.311	0.069772
691.635	0.069642
691.959	0.069612
692.284	0.069421
692.608	0.069439
692.932	0.069255
693.256	0.069372
693.580	0.069170
693.904	0.069081
694.228	0.069132
694.552	0.069077
694.876	0.069166
695.200	0.069161
695.524	0.069093
695.848	0.068972
696.172	0.068779
696.495	0.068658
696.819	0.068401
697.143	0.068444
697.466	0.068255
697.790	0.067988
698.113	0.067623
698.437	0.067307
698.760	0.067163
699.083	0.066941
699.407	0.066820
699.730	0.066832
700.053	0.066905
700.376	0.066868
700.699	0.066624
701.022	0.066725
701.345	0.066895
701.668	0.067207
701.991	0.067098
702.314	0.067131
702.637	0.067156
702.960	0.067093
703.283	0.067078
703.605	0.066850
703.928	0.066641
704.251	0.066566
704.573	0.066613
704.896	0.066323
705.218	0.066141
705.540	0.066288
705.863	0.066177
706.185	0.066124
706.507	0.066046
706.830	0.065897
707.152	0.065808
707.474	0.065897
707.796	0.065790
708.118	0.065652
708.440	0.065583
708.762	0.065441
709.084	0.065150
709.406	0.065061
709.728	0.064933
710.049	0.064831
710.371	0.064829
710.693	0.064691
711.014	0.064373
711.336	0.064297
711.658	0.064110
711.979	0.063959
712.301	0.063951
712.622	0.063858
712.943	0.063550
713.265	0.063305
713.586	0.063164
713.907	0.063053
714.228	0.063086
714.549	0.063079
714.870	0.062920
715.191	0.062706
715.512	0.062654
715.833	0.062592
716.154	0.062469
716.475	0.062534
716.796	0.062620
717.117	0.062703
717.437	0.062387
717.758	0.062087
718.078	0.061838
718.399	0.061779
718.719	0.061747
719.040	0.061365
719.360	0.060983
719.681	0.060926
720.001	0.060559
720.321	0.060245
720.642	0.059985
720.962	0.060057
721.282	0.060189
721.602	0.060353
721.922	0.060101
722.242	0.059992
722.562	0.060038
722.882	0.060022
723.202	0.059905
723.521	0.059981
723.841	0.059877
724.161	0.059667
724.481	0.059456
724.800	0.059104
725.120	0.058800
725.439	0.058761
725.759	0.058593
726.078	0.058505
726.398	0.058395
726.717	0.058419
727.036	0.058330
727.355	0.058272
727.675	0.058209
727.994	0.058040
728.313	0.057942
728.632	0.057975
728.951	0.057743
729.270	0.057776
729.589	0.057783
729.908	0.057603
730.226	0.057296
730.545	0.057251
730.864	0.057060
731.182	0.056912
731.501	0.056879
731.820	0.056951
732.138	0.056839
732.457	0.056868
732.775	0.056654
733.093	0.056517
733.412	0.056526
733.730	0.056688
734.048	0.056615
734.367	0.056569
734.685	0.056507
735.003	0.056367
735.321	0.056142
735.639	0.055959
735.957	0.055730
736.275	0.055653
736.593	0.055564
736.910	0.055454
737.228	0.055105
737.546	0.054721
737.863	0.054539
738.181	0.054410
738.499	0.054298
738.816	0.054197
739.134	0.053975
739.451	0.053929
739.768	0.053774
740.086	0.053592
740.403	0.053468
740.720	0.053314
741.038	0.053419
741.355	0.053423
741.672	0.053281
741.989	0.052964
742.306	0.052896
742.623	0.052820
742.940	0.052706
743.257	0.052754
743.573	0.052711
743.890	0.052435
744.207	0.052407
744.523	0.052199
744.840	0.051926
745.157	0.052101
745.473	0.052386
745.790	0.052146
746.106	0.052133
746.422	0.052154
746.739	0.051895
747.055	0.051588
747.371	0.051677
747.687	0.051591
748.004	0.051602
748.320	0.051684
748.636	0.051316
748.952	0.051007
749.268	0.050906
749.584	0.050664
749.899	0.050537
750.215	0.050599
750.531	0.050605
750.847	0.050551
751.162	0.050496
751.478	0.050373
751.793	0.050099
752.109	0.050050
752.424	0.050009
752.740	0.049664
753.055	0.049630
753.370	0.049544
753.686	0.049327
754.001	0.049179
754.316	0.048936
754.631	0.048598
754.946	0.048414
755.261	0.048370
755.576	0.048168
755.891	0.047999
756.206	0.047971
756.521	0.047851
756.836	0.047655
757.150	0.047504
757.465	0.047365
757.780	0.047242
758.094	0.047114
758.409	0.046982
758.723	0.046710
759.038	0.046727
759.352	0.046493
759.667	0.046376
759.981	0.046239
760.295	0.046030
760.609	0.045874
760.923	0.045733
761.238	0.045686
761.552	0.045567
761.866	0.045325
762.180	0.045065
762.493	0.044644
762.807	0.044477
763.121	0.044132
763.435	0.043970
763.749	0.043909
764.062	0.043859
764.376	0.043793
764.689	0.043537
765.003	0.043529
765.316	0.043351
765.630	0.043290
765.943	0.043361
766.257	0.043251
766.570	0.043416
766.883	0.043292
767.196	0.043179
767.509	0.042928
767.822	0.042788
768.135	0.042749
768.448	0.042491
768.761	0.042492
769.074	0.042520
769.387	0.042355
769.700	0.042352
770.013	0.042250
770.325	0.042174
770.638	0.042198
770.950	0.042132
771.263	0.042040
771.575	0.042010
771.888	0.042034
772.200	0.041942
772.513	0.041878
772.825	0.041653
773.137	0.041594
773.449	0.041338
773.761	0.041245
774.074	0.040787
774.386	0.040564
774.698	0.040324
775.010	0.039948
775.321	0.039684
775.633	0.039708
775.945	0.039450
776.257	0.039482
776.568	0.039320
776.880	0.039579
777.192	0.039546
777.503	0.039497
777.815	0.039638
778.126	0.039716
778.438	0.039543
778.749	0.039454
779.060	0.039196
779.372	0.039106
779.683	0.039001
779.994	0.038690
780.305	0.038391
780.616	0.038107
780.927	0.037895
781.238	0.037804
781.549	0.037609
781.860	0.037469
782.171	0.037324
782.481	0.037283
782.792	0.037248
783.103	0.037017
783.413	0.036987
783.724	0.036972
784.034	0.037015
784.345	0.037255
784.655	0.036973
784.966	0.036652
785.276	0.036669
785.586	0.036721
785.896	0.036197
786.207	0.035847
786.517	0.035611
786.827	0.035506
787.137	0.035427
787.447	0.035133
787.757	0.034866
788.066	0.034875
788.376	0.035023
788.686	0.034926
788.996	0.034782
789.305	0.035026
789.615	0.035146
789.925	0.035208
790.234	0.035024
790.544	0.034840
790.853	0.034816
791.162	0.034552
791.472	0.034431
791.781	0.033952
792.090	0.033619
792.399	0.033218
792.708	0.033080
793.017	0.032680
793.326	0.032463
793.635	0.032497
793.944	0.032309
794.253	0.032206
794.562	0.032154
794.871	0.031927
795.179	0.032009
795.488	0.031948
795.797	0.031853
796.105	0.031682
796.414	0.031703
796.722	0.031986
797.031	0.032008
797.339	0.031818
797.647	0.031800
797.956	0.031836
798.264	0.031609
798.572	0.031523
798.880	0.031718
799.188	0.031865
799.496	0.031694
799.804	0.032036
800.112	0.031819
>>>>>>>>>> END of Data <<<<<<<<<<
