Date	2021年06月15日火曜日 04時28分11秒
Spectrometers	USB2+H05879
ダーク	使用
リファレンス	使用
積分時間[msec]	10
平均回数	280
ｽﾑｰｼﾞﾝｸﾞ	10
Electrical Dark	USE
ピクセル数	2048
計測モード	吸光度
保存開始波長[nm]	190.664
保存終了波長[nm]	884.878
保存ﾋﾟｯﾁ波長[nm]	全波長

>>>>>>>>>> Data Start <<<<<<<<<<<<
190.664	0.000000
191.040	0.000000
191.415	0.000000
191.791	-2.578799
192.166	-0.628340
192.542	-0.762557
192.917	0.000000
193.293	-0.603173
193.668	-0.217638
194.044	-1.045891
194.419	0.000000
194.794	-1.384477
195.170	-1.302554
195.545	-1.218909
195.920	-1.090003
196.296	-0.970005
196.671	-0.811189
197.046	-0.655479
197.421	-0.599042
197.796	-0.598417
198.171	-0.557664
198.546	-0.514730
198.922	-0.459097
199.297	-0.439067
199.672	-0.415524
200.047	-0.397960
200.422	-0.376814
200.796	-0.366253
201.171	-0.355787
201.546	-0.346649
201.921	-0.333354
202.296	-0.325318
202.671	-0.302128
203.045	-0.273443
203.420	-0.250306
203.795	-0.230624
204.170	-0.223099
204.544	-0.223004
204.919	-0.224413
205.294	-0.221057
205.668	-0.200564
206.043	-0.189537
206.417	-0.197385
206.792	-0.194602
207.166	-0.190456
207.541	-0.191909
207.915	-0.197919
208.289	-0.182373
208.664	-0.176617
209.038	-0.172259
209.412	-0.160479
209.787	-0.145379
210.161	-0.133546
210.535	-0.135895
210.909	-0.128842
211.284	-0.128518
211.658	-0.138641
212.032	-0.139822
212.406	-0.141698
212.780	-0.139623
213.154	-0.142141
213.528	-0.149194
213.902	-0.147991
214.276	-0.132855
214.650	-0.134892
215.024	-0.128373
215.398	-0.118507
215.772	-0.102382
216.145	-0.105132
216.519	-0.095125
216.893	-0.091677
217.267	-0.103647
217.640	-0.105170
218.014	-0.092106
218.388	-0.091610
218.761	-0.100285
219.135	-0.092588
219.508	-0.092653
219.882	-0.098638
220.256	-0.094601
220.629	-0.084808
221.003	-0.083149
221.376	-0.081206
221.749	-0.089171
222.123	-0.096512
222.496	-0.097681
222.869	-0.090341
223.243	-0.086896
223.616	-0.085791
223.989	-0.090149
224.362	-0.091364
224.736	-0.092164
225.109	-0.089325
225.482	-0.089054
225.855	-0.095337
226.228	-0.090847
226.601	-0.084919
226.974	-0.084909
227.347	-0.068308
227.720	-0.065565
228.093	-0.070591
228.466	-0.078582
228.839	-0.071567
229.212	-0.076322
229.585	-0.080165
229.957	-0.076079
230.330	-0.071280
230.703	-0.062577
231.076	-0.065795
231.448	-0.075708
231.821	-0.071415
232.194	-0.063330
232.566	-0.059641
232.939	-0.063305
233.311	-0.073880
233.684	-0.076463
234.056	-0.079601
234.429	-0.079114
234.801	-0.078049
235.174	-0.083927
235.546	-0.082429
235.918	-0.076151
236.291	-0.076394
236.663	-0.074580
237.035	-0.069018
237.408	-0.057367
237.780	-0.048426
238.152	-0.054411
238.524	-0.071330
238.896	-0.066616
239.268	-0.057526
239.641	-0.065368
240.013	-0.069817
240.385	-0.073192
240.757	-0.065343
241.129	-0.054160
241.500	-0.051868
241.872	-0.046808
242.244	-0.044845
242.616	-0.046023
242.988	-0.045594
243.360	-0.041644
243.731	-0.039512
244.103	-0.034590
244.475	-0.040384
244.847	-0.037065
245.218	-0.035716
245.590	-0.036879
245.961	-0.028735
246.333	-0.021658
246.705	-0.033120
247.076	-0.035486
247.448	-0.024527
247.819	-0.023296
248.190	-0.015283
248.562	-0.022147
248.933	-0.020819
249.305	-0.015993
249.676	-0.009978
250.047	-0.015994
250.418	-0.024209
250.790	-0.026358
251.161	-0.028762
251.532	-0.037364
251.903	-0.039419
252.274	-0.033575
252.645	-0.030346
253.016	-0.036905
253.387	-0.042882
253.758	-0.042950
254.129	-0.042195
254.500	-0.034544
254.871	-0.026134
255.242	-0.030155
255.613	-0.030692
255.984	-0.032968
256.355	-0.034107
256.725	-0.035629
257.096	-0.037228
257.467	-0.041752
257.838	-0.041664
258.208	-0.032025
258.579	-0.029618
258.949	-0.027786
259.320	-0.017998
259.690	-0.017681
260.061	-0.014774
260.431	-0.014924
260.802	-0.012143
261.172	-0.008967
261.543	-0.006453
261.913	-0.007079
262.283	-0.005555
262.654	-0.010653
263.024	-0.008450
263.394	-0.008439
263.764	-0.008662
264.135	-0.007238
264.505	-0.008504
264.875	-0.006284
265.245	-0.009119
265.615	-0.006752
265.985	-0.008838
266.355	-0.004829
266.725	-0.009101
267.095	-0.008527
267.465	-0.006943
267.835	-0.014963
268.205	-0.019194
268.575	-0.016943
268.944	-0.009947
269.314	-0.012705
269.684	-0.013391
270.054	-0.021226
270.423	-0.017836
270.793	-0.022858
271.163	-0.020445
271.532	-0.017612
271.902	-0.008037
272.271	-0.005438
272.641	-0.008166
273.010	-0.007683
273.380	-0.010694
273.749	-0.010475
274.119	-0.007136
274.488	0.008133
274.857	0.007189
275.227	0.005328
275.596	0.010015
275.965	0.015612
276.335	0.015493
276.704	0.006794
277.073	0.003419
277.442	0.006501
277.811	0.016866
278.180	0.015681
278.549	0.013077
278.918	0.010203
279.287	0.010443
279.656	0.011035
280.025	0.011262
280.394	0.012923
280.763	0.020534
281.132	0.026710
281.501	0.029417
281.869	0.021010
282.238	0.013871
282.607	0.012864
282.976	0.016537
283.344	0.022191
283.713	0.016581
284.081	0.013704
284.450	0.019026
284.819	0.027400
285.187	0.033454
285.556	0.029288
285.924	0.031297
286.292	0.037547
286.661	0.034216
287.029	0.033678
287.398	0.035397
287.766	0.031416
288.134	0.029513
288.502	0.027035
288.871	0.029556
289.239	0.034649
289.607	0.042154
289.975	0.045174
290.343	0.050475
290.711	0.052696
291.079	0.048900
291.447	0.054475
291.815	0.056919
292.183	0.058641
292.551	0.055493
292.919	0.054525
293.287	0.059920
293.655	0.063859
294.022	0.065101
294.390	0.073602
294.758	0.073614
295.126	0.066953
295.493	0.073524
295.861	0.076583
296.229	0.073822
296.596	0.079659
296.964	0.077510
297.331	0.078742
297.699	0.082510
298.066	0.084641
298.434	0.082203
298.801	0.084344
299.168	0.082665
299.536	0.087233
299.903	0.086137
300.270	0.091141
300.638	0.096295
301.005	0.103479
301.372	0.106391
301.739	0.110973
302.106	0.115526
302.473	0.125793
302.840	0.137159
303.207	0.155454
303.574	0.172717
303.941	0.188875
304.308	0.198015
304.675	0.208720
305.042	0.225792
305.409	0.237878
305.776	0.249565
306.143	0.272010
306.509	0.292739
306.876	0.319518
307.243	0.340082
307.610	0.366145
307.976	0.385213
308.343	0.404884
308.709	0.425230
309.076	0.455477
309.442	0.485263
309.809	0.506354
310.175	0.532565
310.542	0.560296
310.908	0.583355
311.275	0.602998
311.641	0.628043
312.007	0.650650
312.373	0.678914
312.740	0.702339
313.106	0.729216
313.472	0.758089
313.838	0.778809
314.204	0.799740
314.570	0.813048
314.936	0.834914
315.302	0.854224
315.668	0.874481
316.034	0.894459
316.400	0.918051
316.766	0.931928
317.132	0.946442
317.498	0.962249
317.864	0.973814
318.230	0.984205
318.595	0.993861
318.961	1.007152
319.327	1.019407
319.692	1.028479
320.058	1.034224
320.424	1.042820
320.789	1.049245
321.155	1.053127
321.520	1.060685
321.886	1.070904
322.251	1.078905
322.616	1.084086
322.982	1.088824
323.347	1.091794
323.712	1.098731
324.078	1.101414
324.443	1.102436
324.808	1.106225
325.173	1.110732
325.539	1.113468
325.904	1.116411
326.269	1.118287
326.634	1.120183
326.999	1.120938
327.364	1.122251
327.729	1.125197
328.094	1.125348
328.459	1.127185
328.823	1.129309
329.188	1.132132
329.553	1.130620
329.918	1.132451
330.283	1.133639
330.647	1.134886
331.012	1.137409
331.377	1.137196
331.741	1.137606
332.106	1.138796
332.470	1.138753
332.835	1.139028
333.199	1.139188
333.564	1.139693
333.928	1.140015
334.293	1.140473
334.657	1.140347
335.021	1.141107
335.386	1.140354
335.750	1.140958
336.114	1.140665
336.478	1.141379
336.843	1.140380
337.207	1.141248
337.571	1.141518
337.935	1.141939
338.299	1.141928
338.663	1.140593
339.027	1.140528
339.391	1.140253
339.755	1.140170
340.119	1.140460
340.483	1.140259
340.846	1.141132
341.210	1.141619
341.574	1.141735
341.938	1.141761
342.301	1.141805
342.665	1.142200
343.029	1.143588
343.392	1.144649
343.756	1.145126
344.119	1.145691
344.483	1.146842
344.846	1.147275
345.210	1.147944
345.573	1.148059
345.937	1.148312
346.300	1.149833
346.663	1.150242
347.027	1.151384
347.390	1.151975
347.753	1.152867
348.116	1.153729
348.479	1.154300
348.843	1.154606
349.206	1.155225
349.569	1.155736
349.932	1.157034
350.295	1.157830
350.658	1.157937
351.021	1.158315
351.383	1.159296
351.746	1.159600
352.109	1.159660
352.472	1.160171
352.835	1.161068
353.197	1.162371
353.560	1.163374
353.923	1.163651
354.285	1.164516
354.648	1.164815
355.011	1.165299
355.373	1.165931
355.736	1.166803
356.098	1.167293
356.461	1.168210
356.823	1.168813
357.185	1.169771
357.548	1.170246
357.910	1.170705
358.272	1.171229
358.635	1.171395
358.997	1.171550
359.359	1.172648
359.721	1.173294
360.083	1.174300
360.445	1.174705
360.807	1.175313
361.169	1.175960
361.531	1.176873
361.893	1.177523
362.255	1.178420
362.617	1.179654
362.979	1.180273
363.341	1.180428
363.703	1.181230
364.064	1.181953
364.426	1.182823
364.788	1.183576
365.149	1.184510
365.511	1.185182
365.873	1.185975
366.234	1.186717
366.596	1.187807
366.957	1.188239
367.319	1.188748
367.680	1.189002
368.042	1.189272
368.403	1.189290
368.764	1.190195
369.126	1.190476
369.487	1.190817
369.848	1.191269
370.209	1.191756
370.570	1.192220
370.931	1.193166
371.293	1.193335
371.654	1.193888
372.015	1.194790
372.376	1.195442
372.737	1.195897
373.098	1.196529
373.458	1.197350
373.819	1.198311
374.180	1.199092
374.541	1.199759
374.902	1.200626
375.263	1.201433
375.623	1.201932
375.984	1.203004
376.345	1.203239
376.705	1.204136
377.066	1.205237
377.426	1.205913
377.787	1.206253
378.147	1.206823
378.508	1.207185
378.868	1.208140
379.228	1.208317
379.589	1.208307
379.949	1.208469
380.309	1.208953
380.670	1.209247
381.030	1.209084
381.390	1.209702
381.750	1.209339
382.110	1.209380
382.470	1.209617
382.830	1.209872
383.190	1.210671
383.550	1.210685
383.910	1.211090
384.270	1.211281
384.630	1.211427
384.990	1.211692
385.350	1.212039
385.709	1.212034
386.069	1.212212
386.429	1.211980
386.788	1.212248
387.148	1.212710
387.508	1.212761
387.867	1.212723
388.227	1.212789
388.586	1.213094
388.946	1.212657
389.305	1.213085
389.665	1.213342
390.024	1.213264
390.383	1.213253
390.743	1.212924
391.102	1.212754
391.461	1.212189
391.820	1.211953
392.179	1.211261
392.539	1.210920
392.898	1.210636
393.257	1.210541
393.616	1.210565
393.975	1.210366
394.334	1.209917
394.693	1.209544
395.051	1.209307
395.410	1.208851
395.769	1.208795
396.128	1.208565
396.487	1.208035
396.845	1.207385
397.204	1.206396
397.563	1.205863
397.921	1.205127
398.280	1.204268
398.638	1.203289
398.997	1.202629
399.355	1.201759
399.714	1.201012
400.072	1.199776
400.431	1.198731
400.789	1.197370
401.147	1.196032
401.506	1.194660
401.864	1.193892
402.222	1.192328
402.580	1.190838
402.938	1.189708
403.297	1.188043
403.655	1.186110
404.013	1.184659
404.371	1.183263
404.729	1.181909
405.087	1.180375
405.444	1.179256
405.802	1.177849
406.160	1.176428
406.518	1.175226
406.876	1.173688
407.233	1.172318
407.591	1.170972
407.949	1.169437
408.306	1.168154
408.664	1.166695
409.022	1.165535
409.379	1.163646
409.737	1.162195
410.094	1.160508
410.451	1.158799
410.809	1.157137
411.166	1.155508
411.523	1.153923
411.881	1.152128
412.238	1.150574
412.595	1.148578
412.952	1.146730
413.310	1.144983
413.667	1.143511
414.024	1.141603
414.381	1.139743
414.738	1.137612
415.095	1.135486
415.452	1.133698
415.809	1.131660
416.165	1.129725
416.522	1.127466
416.879	1.125188
417.236	1.122534
417.593	1.120295
417.949	1.118110
418.306	1.115870
418.663	1.114358
419.019	1.112124
419.376	1.110023
419.732	1.107628
420.089	1.105991
420.445	1.103763
420.802	1.101962
421.158	1.099805
421.514	1.097793
421.871	1.095887
422.227	1.093851
422.583	1.091973
422.939	1.089693
423.295	1.087606
423.652	1.085407
424.008	1.083207
424.364	1.081145
424.720	1.079382
425.076	1.077244
425.432	1.074694
425.788	1.072387
426.143	1.069586
426.499	1.067202
426.855	1.064962
427.211	1.062737
427.567	1.060195
427.922	1.057893
428.278	1.054705
428.634	1.052316
428.989	1.049727
429.345	1.047215
429.700	1.044796
430.056	1.042439
430.411	1.040171
430.767	1.037661
431.122	1.035151
431.478	1.032714
431.833	1.030179
432.188	1.027324
432.543	1.024696
432.899	1.021891
433.254	1.019060
433.609	1.016241
433.964	1.013290
434.319	1.010103
434.674	1.006896
435.029	1.003866
435.384	1.000783
435.739	0.998081
436.094	0.995445
436.449	0.992874
436.804	0.989887
437.158	0.987135
437.513	0.984072
437.868	0.980964
438.223	0.978006
438.577	0.974942
438.932	0.972208
439.287	0.969311
439.641	0.966570
439.996	0.963647
440.350	0.960970
440.704	0.958323
441.059	0.955542
441.413	0.952556
441.768	0.949563
442.122	0.946997
442.476	0.944168
442.830	0.941402
443.185	0.938838
443.539	0.935980
443.893	0.933076
444.247	0.930379
444.601	0.927605
444.955	0.924855
445.309	0.922024
445.663	0.919159
446.017	0.916318
446.371	0.913142
446.724	0.910021
447.078	0.907154
447.432	0.904131
447.786	0.901148
448.139	0.897865
448.493	0.894914
448.847	0.892095
449.200	0.889157
449.554	0.885978
449.907	0.883084
450.261	0.880044
450.614	0.876897
450.968	0.873851
451.321	0.870812
451.674	0.867766
452.027	0.864599
452.381	0.861597
452.734	0.858587
453.087	0.855482
453.440	0.852359
453.793	0.849350
454.146	0.846501
454.499	0.843363
454.852	0.840254
455.205	0.837295
455.558	0.834594
455.911	0.831729
456.264	0.828889
456.617	0.826184
456.970	0.823621
457.322	0.820937
457.675	0.818477
458.028	0.816119
458.380	0.813742
458.733	0.811360
459.086	0.808988
459.438	0.806630
459.791	0.804172
460.143	0.801725
460.496	0.799309
460.848	0.796912
461.200	0.794405
461.553	0.791752
461.905	0.789381
462.257	0.787102
462.609	0.784824
462.961	0.782586
463.314	0.780334
463.666	0.778063
464.018	0.775733
464.370	0.773567
464.722	0.771417
465.074	0.769090
465.426	0.767005
465.777	0.764981
466.129	0.763008
466.481	0.761112
466.833	0.759299
467.184	0.757289
467.536	0.755125
467.888	0.753118
468.239	0.750892
468.591	0.748621
468.943	0.746293
469.294	0.743942
469.646	0.741572
469.997	0.739156
470.348	0.736715
470.700	0.734456
471.051	0.732219
471.402	0.730127
471.754	0.728013
472.105	0.726025
472.456	0.724120
472.807	0.722243
473.158	0.720305
473.509	0.718460
473.860	0.716603
474.211	0.714752
474.562	0.713205
474.913	0.711605
475.264	0.709901
475.615	0.708255
475.966	0.706669
476.316	0.704990
476.667	0.703264
477.018	0.701567
477.368	0.699871
477.719	0.698098
478.070	0.696421
478.420	0.694796
478.771	0.693115
479.121	0.691541
479.472	0.689874
479.822	0.688196
480.172	0.686557
480.523	0.684828
480.873	0.682795
481.223	0.680481
481.573	0.678275
481.924	0.676018
482.274	0.673838
482.624	0.671859
482.974	0.670100
483.324	0.668696
483.674	0.667578
484.024	0.666419
484.374	0.665343
484.724	0.664299
485.073	0.663261
485.423	0.662243
485.773	0.661172
486.123	0.660168
486.472	0.659003
486.822	0.657930
487.172	0.656893
487.521	0.655774
487.871	0.654693
488.220	0.653673
488.570	0.652633
488.919	0.651237
489.268	0.649617
489.618	0.647872
489.967	0.645914
490.316	0.643694
490.666	0.641208
491.015	0.638724
491.364	0.636561
491.713	0.634563
492.062	0.632619
492.411	0.630863
492.760	0.629085
493.109	0.627341
493.458	0.625631
493.807	0.624028
494.156	0.622379
494.505	0.620623
494.853	0.618929
495.202	0.617192
495.551	0.615452
495.900	0.613739
496.248	0.612058
496.597	0.610320
496.945	0.608645
497.294	0.606983
497.642	0.605333
497.991	0.603649
498.339	0.602044
498.688	0.600457
499.036	0.598860
499.384	0.597299
499.732	0.595731
500.081	0.594098
500.429	0.592545
500.777	0.590927
501.125	0.589449
501.473	0.587886
501.821	0.586473
502.169	0.585008
502.517	0.583598
502.865	0.582170
503.213	0.580738
503.561	0.579319
503.908	0.577936
504.256	0.576536
504.604	0.575054
504.952	0.573638
505.299	0.572212
505.647	0.570764
505.994	0.569248
506.342	0.567721
506.689	0.566323
507.037	0.564906
507.384	0.563493
507.732	0.562065
508.079	0.560731
508.426	0.559262
508.774	0.557871
509.121	0.556553
509.468	0.555244
509.815	0.553916
510.162	0.552624
510.509	0.551338
510.856	0.550006
511.203	0.548796
511.550	0.547543
511.897	0.546314
512.244	0.545108
512.591	0.543792
512.938	0.542550
513.284	0.541377
513.631	0.540189
513.978	0.538875
514.324	0.537596
514.671	0.536325
515.018	0.535058
515.364	0.533845
515.711	0.532715
516.057	0.531485
516.403	0.530177
516.750	0.528952
517.096	0.527730
517.443	0.526570
517.789	0.525334
518.135	0.524215
518.481	0.522937
518.827	0.521775
519.173	0.520617
519.519	0.519318
519.865	0.518224
520.211	0.517036
520.557	0.515768
520.903	0.514588
521.249	0.513431
521.595	0.512208
521.941	0.510953
522.287	0.509728
522.632	0.508335
522.978	0.507010
523.324	0.505791
523.669	0.504567
524.015	0.503187
524.360	0.501860
524.706	0.500561
525.051	0.499291
525.397	0.497961
525.742	0.496809
526.087	0.495505
526.433	0.494275
526.778	0.493175
527.123	0.491951
527.468	0.490746
527.813	0.489574
528.158	0.488327
528.504	0.487081
528.849	0.485751
529.193	0.484600
529.538	0.483321
529.883	0.481981
530.228	0.480572
530.573	0.479221
530.918	0.477826
531.263	0.476586
531.607	0.475325
531.952	0.473992
532.296	0.472679
532.641	0.471444
532.986	0.470023
533.330	0.468689
533.675	0.467375
534.019	0.465900
534.363	0.464521
534.708	0.463106
535.052	0.461791
535.396	0.460493
535.741	0.459191
536.085	0.457861
536.429	0.456426
536.773	0.454996
537.117	0.453600
537.461	0.452099
537.805	0.450507
538.149	0.448940
538.493	0.447278
538.837	0.445697
539.181	0.444050
539.524	0.442419
539.868	0.440728
540.212	0.439144
540.556	0.437524
540.899	0.435879
541.243	0.434322
541.586	0.432673
541.930	0.431095
542.273	0.429380
542.617	0.427587
542.960	0.425748
543.304	0.423937
543.647	0.422084
543.990	0.420265
544.333	0.418438
544.677	0.416722
545.020	0.415002
545.363	0.413189
545.706	0.411481
546.049	0.409673
546.392	0.407928
546.735	0.406115
547.078	0.404341
547.421	0.402512
547.764	0.400630
548.106	0.398632
548.449	0.396587
548.792	0.394614
549.135	0.392538
549.477	0.390570
549.820	0.388746
550.162	0.386861
550.505	0.384957
550.847	0.383018
551.190	0.380936
551.532	0.378826
551.875	0.376545
552.217	0.374217
552.559	0.372069
552.901	0.369878
553.244	0.367761
553.586	0.365669
553.928	0.363718
554.270	0.361713
554.612	0.359746
554.954	0.357850
555.296	0.355892
555.638	0.353934
555.980	0.351740
556.322	0.349540
556.663	0.347224
557.005	0.344758
557.347	0.342459
557.689	0.340174
558.030	0.337952
558.372	0.335767
558.713	0.333507
559.055	0.331362
559.396	0.329239
559.738	0.326904
560.079	0.324616
560.421	0.322368
560.762	0.320193
561.103	0.317947
561.444	0.315854
561.786	0.313767
562.127	0.311614
562.468	0.309484
562.809	0.307284
563.150	0.305009
563.491	0.302677
563.832	0.300365
564.173	0.297961
564.514	0.295408
564.855	0.292787
565.195	0.290122
565.536	0.287456
565.877	0.284839
566.218	0.282249
566.558	0.279729
566.899	0.277383
567.239	0.275164
567.580	0.273152
567.920	0.271294
568.261	0.269618
568.601	0.267989
568.941	0.266472
569.282	0.265029
569.622	0.263605
569.962	0.262180
570.302	0.260814
570.643	0.259504
570.983	0.258253
571.323	0.257082
571.663	0.255924
572.003	0.254782
572.343	0.253630
572.683	0.252378
573.022	0.251056
573.362	0.249694
573.702	0.248349
574.042	0.247067
574.381	0.245796
574.721	0.244542
575.061	0.243342
575.400	0.242225
575.740	0.241104
576.079	0.239987
576.419	0.238776
576.758	0.237506
577.097	0.236187
577.437	0.234819
577.776	0.233385
578.115	0.231974
578.454	0.230647
578.794	0.229492
579.133	0.228477
579.472	0.227540
579.811	0.226685
580.150	0.225832
580.489	0.224958
580.828	0.224003
581.167	0.223011
581.505	0.222017
581.844	0.221040
582.183	0.220003
582.522	0.219005
582.860	0.218036
583.199	0.217095
583.538	0.216236
583.876	0.215411
584.215	0.214606
584.553	0.213813
584.891	0.213051
585.230	0.212260
585.568	0.211387
585.906	0.210447
586.245	0.209485
586.583	0.208549
586.921	0.207696
587.259	0.206984
587.597	0.206283
587.935	0.205545
588.273	0.204696
588.611	0.203757
588.949	0.202727
589.287	0.201759
589.625	0.200709
589.963	0.199760
590.300	0.198859
590.638	0.198022
590.976	0.197211
591.313	0.196359
591.651	0.195495
591.989	0.194639
592.326	0.193836
592.664	0.193130
593.001	0.192420
593.338	0.191781
593.676	0.191185
594.013	0.190613
594.350	0.190044
594.687	0.189519
595.025	0.189081
595.362	0.188612
595.699	0.188109
596.036	0.187581
596.373	0.187054
596.710	0.186505
597.047	0.185902
597.384	0.185316
597.720	0.184721
598.057	0.184129
598.394	0.183544
598.731	0.182940
599.067	0.182351
599.404	0.181733
599.741	0.181118
600.077	0.180595
600.414	0.180081
600.750	0.179650
601.087	0.179249
601.423	0.178811
601.759	0.178356
602.096	0.177863
602.432	0.177414
602.768	0.176945
603.104	0.176501
603.440	0.175995
603.776	0.175553
604.112	0.175141
604.448	0.174734
604.784	0.174372
605.120	0.174002
605.456	0.173653
605.792	0.173338
606.128	0.173001
606.463	0.172680
606.799	0.172343
607.135	0.171965
607.470	0.171602
607.806	0.171217
608.142	0.170827
608.477	0.170469
608.812	0.170103
609.148	0.169753
609.483	0.169404
609.819	0.169080
610.154	0.168725
610.489	0.168385
610.824	0.168024
611.159	0.167704
611.494	0.167363
611.830	0.167049
612.165	0.166794
612.500	0.166578
612.834	0.166341
613.169	0.166102
613.504	0.165799
613.839	0.165517
614.174	0.165216
614.509	0.164919
614.843	0.164604
615.178	0.164323
615.512	0.164059
615.847	0.163855
616.182	0.163679
616.516	0.163479
616.850	0.163274
617.185	0.163062
617.519	0.162849
617.853	0.162642
618.188	0.162327
618.522	0.161992
618.856	0.161623
619.190	0.161249
619.524	0.160893
619.858	0.160575
620.192	0.160274
620.526	0.160042
620.860	0.159826
621.194	0.159586
621.528	0.159328
621.862	0.159088
622.195	0.158856
622.529	0.158576
622.863	0.158281
623.196	0.157951
623.530	0.157688
623.864	0.157414
624.197	0.157188
624.530	0.156913
624.864	0.156673
625.197	0.156488
625.531	0.156291
625.864	0.156080
626.197	0.155821
626.530	0.155569
626.863	0.155287
627.196	0.155006
627.529	0.154706
627.862	0.154425
628.195	0.154122
628.528	0.153816
628.861	0.153517
629.194	0.153207
629.527	0.152917
629.860	0.152632
630.192	0.152308
630.525	0.151955
630.858	0.151659
631.190	0.151286
631.523	0.150967
631.855	0.150570
632.188	0.150175
632.520	0.149877
632.852	0.149544
633.185	0.149234
633.517	0.148936
633.849	0.148648
634.182	0.148495
634.514	0.148357
634.846	0.148179
635.178	0.148058
635.510	0.147890
635.842	0.147708
636.174	0.147571
636.506	0.147429
636.837	0.147291
637.169	0.147185
637.501	0.147069
637.833	0.146963
638.164	0.146824
638.496	0.146639
638.828	0.146396
639.159	0.146130
639.491	0.145839
639.822	0.145535
640.154	0.145176
640.485	0.144711
640.816	0.144301
641.147	0.143834
641.479	0.143296
641.810	0.142803
642.141	0.142344
642.472	0.141922
642.803	0.141518
643.134	0.141093
643.465	0.140675
643.796	0.140236
644.127	0.139829
644.458	0.139515
644.789	0.139189
645.119	0.139080
645.450	0.139111
645.781	0.139309
646.111	0.139502
646.442	0.139630
646.773	0.139705
647.103	0.139792
647.433	0.139831
647.764	0.139789
648.094	0.139712
648.425	0.139807
648.755	0.139914
649.085	0.139912
649.415	0.140029
649.745	0.140187
650.075	0.140279
650.405	0.140295
650.735	0.138993
651.065	0.130743
651.395	0.123738
651.725	0.111504
652.055	0.076285
652.385	0.056573
652.715	0.043951
653.044	0.035190
653.374	0.028774
653.704	0.023890
654.033	0.033010
654.363	0.039138
654.692	0.042652
655.022	0.044696
655.351	0.045927
655.680	0.046650
656.010	0.047035
656.339	0.047194
656.668	0.047222
656.997	0.047176
657.326	0.047087
657.655	0.046966
657.984	0.046266
658.313	0.042720
658.642	0.038153
658.971	0.044128
659.300	0.051767
659.629	0.061905
659.958	0.075971
660.286	0.096860
660.615	0.131152
660.944	0.133703
661.272	0.132118
661.601	0.131510
661.929	0.131876
662.258	0.132631
662.586	0.133374
662.915	0.133878
663.243	0.133990
663.571	0.133800
663.899	0.133555
664.228	0.133270
664.556	0.133075
664.884	0.132885
665.212	0.132884
665.540	0.132798
665.868	0.132606
666.196	0.132556
666.524	0.132425
666.852	0.132436
667.179	0.132433
667.507	0.132461
667.835	0.132446
668.162	0.132504
668.490	0.132597
668.818	0.132635
669.145	0.132758
669.473	0.132885
669.800	0.133030
670.127	0.133204
670.455	0.133347
670.782	0.133539
671.109	0.133594
671.436	0.133664
671.764	0.133721
672.091	0.133718
672.418	0.133761
672.745	0.133822
673.072	0.133860
673.399	0.133824
673.726	0.133821
674.053	0.133763
674.379	0.133705
674.706	0.133640
675.033	0.133461
675.359	0.133304
675.686	0.133174
676.013	0.133084
676.339	0.132902
676.666	0.132736
676.992	0.132615
677.318	0.132444
677.645	0.132363
677.971	0.132274
678.297	0.132241
678.624	0.132225
678.950	0.132173
679.276	0.132068
679.602	0.131889
679.928	0.131732
680.254	0.131559
680.580	0.131408
680.906	0.131280
681.232	0.131280
681.558	0.131350
681.883	0.131537
682.209	0.131698
682.535	0.131755
682.860	0.131784
683.186	0.131838
683.511	0.131839
683.837	0.131718
684.162	0.131767
684.488	0.131714
684.813	0.131687
685.138	0.131540
685.464	0.131416
685.789	0.131254
686.114	0.131214
686.439	0.131151
686.764	0.131103
687.089	0.131149
687.414	0.131208
687.739	0.131280
688.064	0.131256
688.389	0.131179
688.714	0.131020
689.039	0.130816
689.363	0.130749
689.688	0.130656
690.013	0.130499
690.337	0.130444
690.662	0.130414
690.986	0.130373
691.311	0.130259
691.635	0.130263
691.959	0.130236
692.284	0.130102
692.608	0.130010
692.932	0.129911
693.256	0.129964
693.580	0.130022
693.904	0.130040
694.228	0.130075
694.552	0.130165
694.876	0.130185
695.200	0.130098
695.524	0.129996
695.848	0.129882
696.172	0.129639
696.495	0.129374
696.819	0.129268
697.143	0.128977
697.466	0.128804
697.790	0.128468
698.113	0.128206
698.437	0.127922
698.760	0.127767
699.083	0.127730
699.407	0.127730
699.730	0.127684
700.053	0.127606
700.376	0.127480
700.699	0.127234
701.022	0.126920
701.345	0.126432
701.668	0.125849
701.991	0.125400
702.314	0.124762
702.637	0.124300
702.960	0.123834
703.283	0.123528
703.605	0.123149
703.928	0.123054
704.251	0.122987
704.573	0.123024
704.896	0.123128
705.218	0.123076
705.540	0.122911
705.863	0.122635
706.185	0.122320
706.507	0.121855
706.830	0.121364
707.152	0.120873
707.474	0.120434
707.796	0.120024
708.118	0.119680
708.440	0.119477
708.762	0.119241
709.084	0.119162
709.406	0.118956
709.728	0.118886
710.049	0.118756
710.371	0.118578
710.693	0.118341
711.014	0.117971
711.336	0.117690
711.658	0.117382
711.979	0.117238
712.301	0.117070
712.622	0.116981
712.943	0.116844
713.265	0.116815
713.586	0.116785
713.907	0.116778
714.228	0.116797
714.549	0.116813
714.870	0.116873
715.191	0.116824
715.512	0.116883
715.833	0.116920
716.154	0.116875
716.475	0.116692
716.796	0.116524
717.117	0.116332
717.437	0.115991
717.758	0.115742
718.078	0.115407
718.399	0.115093
718.719	0.114669
719.040	0.114392
719.360	0.114063
719.681	0.113837
720.001	0.113638
720.321	0.113523
720.642	0.113297
720.962	0.113071
721.282	0.112891
721.602	0.112722
721.922	0.112630
722.242	0.112423
722.562	0.112293
722.882	0.112250
723.202	0.112270
723.521	0.112236
723.841	0.112262
724.161	0.112305
724.481	0.112254
724.800	0.112203
725.120	0.112134
725.439	0.112189
725.759	0.112096
726.078	0.112096
726.398	0.112039
726.717	0.112048
727.036	0.112073
727.355	0.112196
727.675	0.112409
727.994	0.112586
728.313	0.112734
728.632	0.112803
728.951	0.112847
729.270	0.112803
729.589	0.112736
729.908	0.112602
730.226	0.112394
730.545	0.112175
730.864	0.111943
731.182	0.111819
731.501	0.111731
731.820	0.111660
732.138	0.111523
732.457	0.111401
732.775	0.111295
733.093	0.111225
733.412	0.111148
733.730	0.111039
734.048	0.110845
734.367	0.110565
734.685	0.110235
735.003	0.109884
735.321	0.109614
735.639	0.109304
735.957	0.109095
736.275	0.108915
736.593	0.108742
736.910	0.108649
737.228	0.108546
737.546	0.108492
737.863	0.108412
738.181	0.108248
738.499	0.107979
738.816	0.107773
739.134	0.107594
739.451	0.107416
739.768	0.107201
740.086	0.106906
740.403	0.106598
740.720	0.106320
741.038	0.106036
741.355	0.105733
741.672	0.105411
741.989	0.105036
742.306	0.104754
742.623	0.104269
742.940	0.103759
743.257	0.103168
743.573	0.102610
743.890	0.102058
744.207	0.101539
744.523	0.101046
744.840	0.100584
745.157	0.100235
745.473	0.099805
745.790	0.099469
746.106	0.099127
746.422	0.098951
746.739	0.098754
747.055	0.098513
747.371	0.098394
747.687	0.098345
748.004	0.098378
748.320	0.098355
748.636	0.098392
748.952	0.098292
749.268	0.098384
749.584	0.098375
749.899	0.098450
750.215	0.098527
750.531	0.098618
750.847	0.098735
751.162	0.098711
751.478	0.098699
751.793	0.098634
752.109	0.098569
752.424	0.098581
752.740	0.098532
753.055	0.098475
753.370	0.098454
753.686	0.098604
754.001	0.098785
754.316	0.099027
754.631	0.099210
754.946	0.099381
755.261	0.099526
755.576	0.099647
755.891	0.099621
756.206	0.099596
756.521	0.099544
756.836	0.099466
757.150	0.099412
757.465	0.099336
757.780	0.099365
758.094	0.099441
758.409	0.099518
758.723	0.099606
759.038	0.099579
759.352	0.099557
759.667	0.099488
759.981	0.099337
760.295	0.099120
760.609	0.098894
760.923	0.098625
761.238	0.098268
761.552	0.097976
761.866	0.097711
762.180	0.097564
762.493	0.097518
762.807	0.097429
763.121	0.097317
763.435	0.097155
763.749	0.096887
764.062	0.096630
764.376	0.096383
764.689	0.096029
765.003	0.095733
765.316	0.095533
765.630	0.095425
765.943	0.095320
766.257	0.095151
766.570	0.095002
766.883	0.094796
767.196	0.094436
767.509	0.094035
767.822	0.093809
768.135	0.093525
768.448	0.093213
768.761	0.092803
769.074	0.092434
769.387	0.092119
769.700	0.091841
770.013	0.091594
770.325	0.091440
770.638	0.091296
770.950	0.091040
771.263	0.090874
771.575	0.090644
771.888	0.090270
772.200	0.089876
772.513	0.089413
772.825	0.089009
773.137	0.088658
773.449	0.088331
773.761	0.088037
774.074	0.087791
774.386	0.087482
774.698	0.087144
775.010	0.086713
775.321	0.086414
775.633	0.085960
775.945	0.085728
776.257	0.085587
776.568	0.085457
776.880	0.085363
777.192	0.085196
777.503	0.085118
777.815	0.085077
778.126	0.085110
778.438	0.085264
778.749	0.085416
779.060	0.085513
779.372	0.085608
779.683	0.085707
779.994	0.085810
780.305	0.085868
780.616	0.085923
780.927	0.085927
781.238	0.085892
781.549	0.085967
781.860	0.085947
782.171	0.085985
782.481	0.086052
782.792	0.085928
783.103	0.085938
783.413	0.085939
783.724	0.085854
784.034	0.085749
784.345	0.085534
784.655	0.085366
784.966	0.085112
785.276	0.084934
785.586	0.084817
785.896	0.084702
786.207	0.084628
786.517	0.084517
786.827	0.084513
787.137	0.084425
787.447	0.084341
787.757	0.084365
788.066	0.084270
788.376	0.084260
788.686	0.084251
788.996	0.084138
789.305	0.084156
789.615	0.083997
789.925	0.083875
790.234	0.083872
790.544	0.083856
790.853	0.083824
791.162	0.083849
791.472	0.083944
791.781	0.083951
792.090	0.084001
792.399	0.083958
792.708	0.083749
793.017	0.083574
793.326	0.083364
793.635	0.083194
793.944	0.082861
794.253	0.082544
794.562	0.082415
794.871	0.082209
795.179	0.082005
795.488	0.081823
795.797	0.081686
796.105	0.081603
796.414	0.081429
796.722	0.081243
797.031	0.081084
797.339	0.080896
797.647	0.080450
797.956	0.079948
798.264	0.079366
798.572	0.078804
798.880	0.078411
799.188	0.078153
799.496	0.077825
799.804	0.077643
800.112	0.077420
800.420	0.077431
800.728	0.077403
801.035	0.077224
801.343	0.076969
801.651	0.076652
801.958	0.076312
802.266	0.076086
802.573	0.076088
802.881	0.076141
803.188	0.076180
803.496	0.076233
803.803	0.076392
804.110	0.076541
804.417	0.076541
804.724	0.076535
805.032	0.076525
805.339	0.076419
805.646	0.076358
805.953	0.076263
806.259	0.076168
806.566	0.076007
806.873	0.076053
807.180	0.075953
807.486	0.075899
807.793	0.075912
808.100	0.076078
808.406	0.076059
808.713	0.075994
809.019	0.075528
809.326	0.075137
809.632	0.074760
809.938	0.074218
810.244	0.073744
810.551	0.073346
810.857	0.073080
811.163	0.072848
811.469	0.072707
811.775	0.072508
812.081	0.072334
812.387	0.072234
812.692	0.072043
812.998	0.072155
813.304	0.071966
813.610	0.072007
813.915	0.071962
814.221	0.071944
814.526	0.071786
814.832	0.071953
815.137	0.071933
815.443	0.072032
815.748	0.072087
816.053	0.072004
816.358	0.071880
816.664	0.071760
816.969	0.071680
817.274	0.071526
817.579	0.071431
817.884	0.071227
818.189	0.071221
818.493	0.071246
818.798	0.071351
819.103	0.071229
819.408	0.070992
819.712	0.070689
820.017	0.070436
820.321	0.070190
820.626	0.070060
820.930	0.069904
821.235	0.069351
821.539	0.069120
821.843	0.069003
822.148	0.068747
822.452	0.068765
822.756	0.068994
823.060	0.068673
823.364	0.068763
823.668	0.068775
823.972	0.068782
824.276	0.068771
824.580	0.068833
824.883	0.068795
825.187	0.068778
825.491	0.069124
825.795	0.068992
826.098	0.068991
826.402	0.068877
826.705	0.068942
827.008	0.068774
827.312	0.068458
827.615	0.068383
827.918	0.068117
828.222	0.067974
828.525	0.067810
828.828	0.067801
829.131	0.067734
829.434	0.067807
829.737	0.067327
830.040	0.066503
830.343	0.066154
830.645	0.065835
830.948	0.065465
831.251	0.065130
831.553	0.064511
831.856	0.063665
832.159	0.063979
832.461	0.064228
832.764	0.064349
833.066	0.063883
833.368	0.063794
833.671	0.063803
833.973	0.063743
834.275	0.063463
834.577	0.063382
834.879	0.063406
835.181	0.062752
835.483	0.062168
835.785	0.061910
836.087	0.061757
836.389	0.062365
836.690	0.061484
836.992	0.060647
837.294	0.059409
837.595	0.058221
837.897	0.057620
838.198	0.057145
838.500	0.056035
838.801	0.054897
839.103	0.054208
839.404	0.053767
839.705	0.053168
840.006	0.052644
840.307	0.052515
840.608	0.052772
840.910	0.052528
841.210	0.052608
841.511	0.052849
841.812	0.053060
842.113	0.052901
842.414	0.052510
842.715	0.051494
843.015	0.051196
843.316	0.050658
843.616	0.050547
843.917	0.050851
844.217	0.050395
844.518	0.050554
844.818	0.049805
845.118	0.049989
845.419	0.049662
845.719	0.049780
846.019	0.049638
846.319	0.050255
846.619	0.050036
846.919	0.050040
847.219	0.050193
847.519	0.049480
847.819	0.049253
848.118	0.048159
848.418	0.047867
848.718	0.047695
849.017	0.047802
849.317	0.048483
849.616	0.049385
849.916	0.049948
850.215	0.050569
850.515	0.051347
850.814	0.051510
851.113	0.052132
851.412	0.052465
851.712	0.052771
852.011	0.053014
852.310	0.053594
852.609	0.053908
852.908	0.054106
853.206	0.054302
853.505	0.054603
853.804	0.054717
854.103	0.054979
854.401	0.055445
854.700	0.055582
854.999	0.055641
855.297	0.055827
855.595	0.055935
855.894	0.055984
856.192	0.055962
856.491	0.055791
856.789	0.055594
857.087	0.055355
857.385	0.054789
857.683	0.054450
857.981	0.054155
858.279	0.053980
858.577	0.053190
858.875	0.052349
859.173	0.051793
859.471	0.051440
859.768	0.051029
860.066	0.050631
860.363	0.050312
860.661	0.049607
860.959	0.049947
861.256	0.050070
861.553	0.050179
861.851	0.049654
862.148	0.048969
862.445	0.049046
862.742	0.048546
863.039	0.047644
863.337	0.047594
863.634	0.047667
863.931	0.046996
864.227	0.046881
864.524	0.046275
864.821	0.046576
865.118	0.046048
865.415	0.045953
865.711	0.045565
866.008	0.044447
866.304	0.044755
866.601	0.043831
866.897	0.043526
867.194	0.042737
867.490	0.041773
867.786	0.040705
868.082	0.040526
868.379	0.040567
868.675	0.039948
868.971	0.039933
869.267	0.040580
869.563	0.040900
869.859	0.040726
870.154	0.040910
870.450	0.040572
870.746	0.040240
871.042	0.040042
871.337	0.040427
871.633	0.040237
871.928	0.040303
872.224	0.039881
872.519	0.038854
872.815	0.038889
873.110	0.038718
873.405	0.038560
873.700	0.038909
873.995	0.039116
874.291	0.039317
874.586	0.039578
874.881	0.039602
875.175	0.039734
875.470	0.039262
875.765	0.038830
876.060	0.038773
876.355	0.039236
876.649	0.039514
876.944	0.039940
877.238	0.040096
877.533	0.039931
877.827	0.040602
878.122	0.040892
878.416	0.042046
878.710	0.043236
879.005	0.043489
879.299	0.043767
879.593	0.043801
879.887	0.043487
880.181	0.043038
880.475	0.042968
880.769	0.042601
881.063	0.042794
881.356	0.042661
881.650	0.042826
881.944	0.042821
882.238	0.037846
882.531	0.044608
882.825	0.032950
883.118	0.025567
883.412	0.036855
883.705	0.033634
883.998	0.042050
884.291	0.038290
884.585	0.037269
884.878	0.037762
>>>>>>>>>> END of Data <<<<<<<<<<
>>>>>>>>>> Raw Data Start <<<<<<<<
190.664	-391
191.040	10
191.415	10
191.791	7
192.166	9
192.542	7
192.917	7
193.293	11
193.668	3
194.044	9
194.419	-10
194.794	9
195.170	10
195.545	10
195.920	11
196.296	11
196.671	11
197.046	12
197.421	12
197.796	13
198.171	13
198.546	13
198.922	14
199.297	14
199.672	14
200.047	15
200.422	16
200.796	16
201.171	16
201.546	16
201.921	16
202.296	16
202.671	16
203.045	16
203.420	16
203.795	16
204.170	16
204.544	16
204.919	16
205.294	16
205.668	16
206.043	15
206.417	15
206.792	15
207.166	15
207.541	15
207.915	15
208.289	15
208.664	15
209.038	15
209.412	15
209.787	15
210.161	15
210.535	15
210.909	15
211.284	15
211.658	15
212.032	15
212.406	15
212.780	15
213.154	15
213.528	15
213.902	15
214.276	15
214.650	15
215.024	15
215.398	15
215.772	14
216.145	14
216.519	14
216.893	14
217.267	14
217.640	15
218.014	15
218.388	15
218.761	15
219.135	15
219.508	15
219.882	16
220.256	16
220.629	16
221.003	15
221.376	15
221.749	16
222.123	16
222.496	16
222.869	16
223.243	16
223.616	16
223.989	16
224.362	16
224.736	16
225.109	16
225.482	17
225.855	16
226.228	16
226.601	16
226.974	16
227.347	15
227.720	15
228.093	15
228.466	15
228.839	15
229.212	15
229.585	15
229.957	15
230.330	15
230.703	15
231.076	15
231.448	15
231.821	15
232.194	15
232.566	15
232.939	14
233.311	14
233.684	15
234.056	15
234.429	15
234.801	15
235.174	15
235.546	15
235.918	15
236.291	16
236.663	16
237.035	16
237.408	16
237.780	16
238.152	16
238.524	17
238.896	17
239.268	16
239.641	17
240.013	17
240.385	18
240.757	17
241.129	17
241.500	17
241.872	17
242.244	17
242.616	17
242.988	17
243.360	17
243.731	17
244.103	17
244.475	17
244.847	17
245.218	17
245.590	17
245.961	17
246.333	17
246.705	17
247.076	17
247.448	17
247.819	17
248.190	17
248.562	18
248.933	18
249.305	18
249.676	18
250.047	18
250.418	18
250.790	18
251.161	18
251.532	19
251.903	19
252.274	18
252.645	18
253.016	18
253.387	19
253.758	19
254.129	19
254.500	19
254.871	19
255.242	19
255.613	19
255.984	19
256.355	18
256.725	18
257.096	18
257.467	18
257.838	18
258.208	18
258.579	18
258.949	18
259.320	18
259.690	18
260.061	19
260.431	19
260.802	19
261.172	18
261.543	18
261.913	19
262.283	19
262.654	19
263.024	19
263.394	19
263.764	19
264.135	19
264.505	19
264.875	19
265.245	19
265.615	19
265.985	19
266.355	19
266.725	19
267.095	19
267.465	19
267.835	19
268.205	19
268.575	19
268.944	19
269.314	19
269.684	19
270.054	19
270.423	19
270.793	19
271.163	19
271.532	19
271.902	19
272.271	18
272.641	18
273.010	19
273.380	19
273.749	19
274.119	19
274.488	19
274.857	18
275.227	19
275.596	19
275.965	19
276.335	19
276.704	19
277.073	19
277.442	19
277.811	20
278.180	20
278.549	20
278.918	20
279.287	20
279.656	20
280.025	20
280.394	20
280.763	20
281.132	20
281.501	20
281.869	20
282.238	20
282.607	20
282.976	19
283.344	19
283.713	19
284.081	19
284.450	19
284.819	19
285.187	19
285.556	19
285.924	19
286.292	19
286.661	19
287.029	19
287.398	19
287.766	19
288.134	19
288.502	19
288.871	19
289.239	19
289.607	19
289.975	19
290.343	19
290.711	19
291.079	19
291.447	19
291.815	19
292.183	19
292.551	19
292.919	19
293.287	19
293.655	19
294.022	19
294.390	19
294.758	19
295.126	19
295.493	18
295.861	18
296.229	18
296.596	18
296.964	18
297.331	18
297.699	18
298.066	19
298.434	19
298.801	19
299.168	19
299.536	19
299.903	19
300.270	19
300.638	19
301.005	19
301.372	19
301.739	19
302.106	20
302.473	20
302.840	20
303.207	20
303.574	20
303.941	20
304.308	20
304.675	20
305.042	20
305.409	20
305.776	20
306.143	20
306.509	20
306.876	21
307.243	21
307.610	21
307.976	21
308.343	22
308.709	22
309.076	22
309.442	22
309.809	22
310.175	22
310.542	23
310.908	23
311.275	23
311.641	24
312.007	24
312.373	24
312.740	25
313.106	25
313.472	25
313.838	26
314.204	26
314.570	27
314.936	28
315.302	28
315.668	29
316.034	29
316.400	29
316.766	30
317.132	31
317.498	31
317.864	32
318.230	33
318.595	34
318.961	35
319.327	36
319.692	37
320.058	38
320.424	39
320.789	41
321.155	43
321.520	44
321.886	45
322.251	47
322.616	48
322.982	50
323.347	53
323.712	54
324.078	57
324.443	59
324.808	61
325.173	64
325.539	66
325.904	68
326.269	71
326.634	73
326.999	76
327.364	78
327.729	81
328.094	83
328.459	86
328.823	88
329.188	90
329.553	93
329.918	96
330.283	98
330.647	101
331.012	103
331.377	106
331.741	108
332.106	111
332.470	113
332.835	116
333.199	119
333.564	122
333.928	125
334.293	127
334.657	130
335.021	133
335.386	136
335.750	139
336.114	142
336.478	145
336.843	148
337.207	151
337.571	154
337.935	157
338.299	160
338.663	164
339.027	166
339.391	170
339.755	173
340.119	176
340.483	179
340.846	181
341.210	184
341.574	187
341.938	190
342.301	193
342.665	195
343.029	197
343.392	200
343.756	202
344.119	205
344.483	207
344.846	210
345.210	212
345.573	215
345.937	217
346.300	219
346.663	221
347.027	223
347.390	225
347.753	227
348.116	229
348.479	231
348.843	233
349.206	235
349.569	237
349.932	239
350.295	240
350.658	242
351.021	244
351.383	245
351.746	247
352.109	249
352.472	251
352.835	252
353.197	253
353.560	254
353.923	256
354.285	257
354.648	259
355.011	260
355.373	262
355.736	263
356.098	264
356.461	265
356.823	266
357.185	267
357.548	269
357.910	270
358.272	271
358.635	273
358.997	274
359.359	275
359.721	276
360.083	277
360.445	278
360.807	279
361.169	280
361.531	281
361.893	282
362.255	283
362.617	283
362.979	285
363.341	286
363.703	287
364.064	288
364.426	289
364.788	290
365.149	291
365.511	292
365.873	293
366.234	293
366.596	294
366.957	294
367.319	295
367.680	296
368.042	296
368.403	297
368.764	297
369.126	298
369.487	298
369.848	298
370.209	299
370.570	299
370.931	299
371.293	299
371.654	299
372.015	299
372.376	299
372.737	299
373.098	299
373.458	299
373.819	299
374.180	300
374.541	300
374.902	301
375.263	302
375.623	303
375.984	304
376.345	305
376.705	306
377.066	306
377.426	307
377.787	308
378.147	309
378.508	309
378.868	310
379.228	311
379.589	312
379.949	313
380.309	314
380.670	314
381.030	315
381.390	316
381.750	317
382.110	317
382.470	317
382.830	318
383.190	318
383.550	318
383.910	319
384.270	320
384.630	321
384.990	322
385.350	323
385.709	324
386.069	325
386.429	326
386.788	327
387.148	328
387.508	328
387.867	329
388.227	331
388.586	332
388.946	334
389.305	336
389.665	338
390.024	340
390.383	342
390.743	344
391.102	346
391.461	347
391.820	348
392.179	349
392.539	350
392.898	351
393.257	353
393.616	354
393.975	356
394.334	359
394.693	361
395.051	365
395.410	368
395.769	370
396.128	371
396.487	373
396.845	374
397.204	375
397.563	376
397.921	376
398.280	377
398.638	378
398.997	379
399.355	380
399.714	381
400.072	382
400.431	384
400.789	386
401.147	388
401.506	389
401.864	390
402.222	391
402.580	392
402.938	392
403.297	393
403.655	393
404.013	393
404.371	394
404.729	395
405.087	396
405.444	397
405.802	399
406.160	400
406.518	401
406.876	403
407.233	404
407.591	406
407.949	407
408.306	408
408.664	409
409.022	410
409.379	411
409.737	412
410.094	414
410.451	416
410.809	419
411.166	421
411.523	423
411.881	425
412.238	427
412.595	430
412.952	431
413.310	433
413.667	434
414.024	437
414.381	438
414.738	441
415.095	443
415.452	445
415.809	448
416.165	450
416.522	452
416.879	456
417.236	460
417.593	464
417.949	469
418.306	475
418.663	480
419.019	487
419.376	494
419.732	500
420.089	505
420.445	511
420.802	517
421.158	523
421.514	527
421.871	531
422.227	536
422.583	539
422.939	543
423.295	547
423.652	551
424.008	555
424.364	558
424.720	559
425.076	562
425.432	564
425.788	566
426.143	570
426.499	573
426.855	577
427.211	581
427.567	585
427.922	589
428.278	592
428.634	595
428.989	598
429.345	601
429.700	605
430.056	609
430.411	614
430.767	619
431.122	624
431.478	629
431.833	633
432.188	637
432.543	641
432.899	645
433.254	647
433.609	649
433.964	651
434.319	653
434.674	655
435.029	658
435.384	661
435.739	665
436.094	670
436.449	676
436.804	684
437.158	691
437.513	699
437.868	709
438.223	719
438.577	729
438.932	740
439.287	751
439.641	762
439.996	774
440.350	785
440.704	796
441.059	807
441.413	819
441.768	830
442.122	841
442.476	851
442.830	862
443.185	872
443.539	882
443.893	892
444.247	901
444.601	908
444.955	914
445.309	918
445.663	922
446.017	925
446.371	928
446.724	931
447.078	933
447.432	934
447.786	935
448.139	936
448.493	936
448.847	936
449.200	935
449.554	935
449.907	934
450.261	934
450.614	933
450.968	933
451.321	933
451.674	934
452.027	933
452.381	934
452.734	936
453.087	938
453.440	940
453.793	943
454.146	946
454.499	953
454.852	960
455.205	969
455.558	977
455.911	985
456.264	994
456.617	1003
456.970	1010
457.322	1018
457.675	1025
458.028	1030
458.380	1035
458.733	1040
459.086	1045
459.438	1052
459.791	1058
460.143	1066
460.496	1077
460.848	1087
461.200	1100
461.553	1114
461.905	1126
462.257	1136
462.609	1146
462.961	1154
463.314	1162
463.666	1169
464.018	1175
464.370	1181
464.722	1189
465.074	1196
465.426	1202
465.777	1208
466.129	1213
466.481	1216
466.833	1218
467.184	1218
467.536	1218
467.888	1215
468.239	1212
468.591	1210
468.943	1207
469.294	1206
469.646	1207
469.997	1210
470.348	1216
470.700	1223
471.051	1234
471.402	1246
471.754	1262
472.105	1277
472.456	1294
472.807	1314
473.158	1335
473.509	1358
473.860	1384
474.211	1410
474.562	1437
474.913	1465
475.264	1495
475.615	1524
475.966	1553
476.316	1581
476.667	1610
477.018	1640
477.368	1670
477.719	1700
478.070	1729
478.420	1756
478.771	1783
479.121	1809
479.472	1835
479.822	1862
480.172	1892
480.523	1927
480.873	1976
481.223	2057
481.573	2177
481.924	2329
482.274	2500
482.624	2680
482.974	2861
483.324	3019
483.674	3138
484.024	3219
484.374	3273
484.724	3307
485.073	3330
485.423	3350
485.773	3368
486.123	3385
486.472	3403
486.822	3419
487.172	3432
487.521	3442
487.871	3446
488.220	3435
488.570	3389
488.919	3305
489.268	3188
489.618	3052
489.967	2905
490.316	2757
490.666	2628
491.015	2537
491.364	2481
491.713	2451
492.062	2442
492.411	2442
492.760	2448
493.109	2455
493.458	2462
493.807	2468
494.156	2472
494.505	2477
494.853	2483
495.202	2491
495.551	2502
495.900	2513
496.248	2526
496.597	2539
496.945	2551
497.294	2562
497.642	2575
497.991	2590
498.339	2607
498.688	2626
499.036	2645
499.384	2661
499.732	2676
500.081	2687
500.429	2697
500.777	2707
501.125	2715
501.473	2724
501.821	2733
502.169	2741
502.517	2748
502.865	2752
503.213	2753
503.561	2754
503.908	2753
504.256	2752
504.604	2749
504.952	2745
505.299	2740
505.647	2732
505.994	2723
506.342	2713
506.689	2702
507.037	2692
507.384	2686
507.732	2681
508.079	2675
508.426	2671
508.774	2668
509.121	2662
509.468	2656
509.815	2649
510.162	2643
510.509	2637
510.856	2630
511.203	2622
511.550	2615
511.897	2608
512.244	2601
512.591	2594
512.938	2587
513.284	2581
513.631	2573
513.978	2565
514.324	2556
514.671	2547
515.018	2537
515.364	2529
515.711	2521
516.057	2512
516.403	2505
516.750	2496
517.096	2487
517.443	2475
517.789	2465
518.135	2454
518.481	2446
518.827	2437
519.173	2427
519.519	2419
519.865	2410
520.211	2403
520.557	2397
520.903	2390
521.249	2385
521.595	2380
521.941	2374
522.287	2369
522.632	2365
522.978	2360
523.324	2357
523.669	2354
524.015	2354
524.360	2358
524.706	2364
525.051	2372
525.397	2382
525.742	2393
526.087	2405
526.433	2417
526.778	2426
527.123	2434
527.468	2440
527.813	2445
528.158	2450
528.504	2457
528.849	2469
529.193	2483
529.538	2501
529.883	2524
530.228	2550
530.573	2579
530.918	2610
531.263	2640
531.607	2668
531.952	2693
532.296	2714
532.641	2730
532.986	2743
533.330	2755
533.675	2767
534.019	2785
534.363	2807
534.708	2833
535.052	2864
535.396	2897
535.741	2929
536.085	2956
536.429	2982
536.773	3002
537.117	3018
537.461	3031
537.805	3043
538.149	3055
538.493	3069
538.837	3084
539.181	3103
539.524	3128
539.868	3156
540.212	3189
540.556	3223
540.899	3259
541.243	3291
541.586	3317
541.930	3337
542.273	3351
542.617	3362
542.960	3372
543.304	3388
543.647	3408
543.990	3436
544.333	3467
544.677	3499
545.020	3529
545.363	3554
545.706	3572
546.049	3585
546.392	3590
546.735	3589
547.078	3585
547.421	3582
547.764	3581
548.106	3581
548.449	3586
548.792	3597
549.135	3616
549.477	3639
549.820	3661
550.162	3680
550.505	3693
550.847	3701
551.190	3704
551.532	3705
551.875	3706
552.217	3709
552.559	3715
552.901	3727
553.244	3742
553.586	3760
553.928	3779
554.270	3797
554.612	3810
554.954	3818
555.296	3823
555.638	3828
555.980	3834
556.322	3843
556.663	3859
557.005	3885
557.347	3918
557.689	3955
558.030	3991
558.372	4023
558.713	4052
559.055	4079
559.396	4104
559.738	4132
560.079	4163
560.421	4200
560.762	4242
561.103	4291
561.444	4344
561.786	4400
562.127	4462
562.468	4528
562.809	4602
563.150	4684
563.491	4773
563.832	4870
564.173	4983
564.514	5113
564.855	5272
565.195	5467
565.536	5703
565.877	5978
566.218	6293
566.558	6649
566.899	7038
567.239	7459
567.580	7900
567.920	8353
568.261	8809
568.601	9276
568.941	9759
569.282	10255
569.622	10769
569.962	11303
570.302	11872
570.643	12458
570.983	13049
571.323	13617
571.663	14163
572.003	14680
572.343	15161
572.683	15609
573.022	16064
573.362	16540
573.702	17031
574.042	17519
574.381	17985
574.721	18427
575.061	18849
575.400	19230
575.740	19565
576.079	19859
576.419	20150
576.758	20483
577.097	20879
577.437	21313
577.776	21778
578.115	22264
578.454	22757
578.794	23206
579.133	23549
579.472	23777
579.811	23899
580.150	23920
580.489	23865
580.828	23774
581.167	23686
581.505	23618
581.844	23559
582.183	23502
582.522	23462
582.860	23437
583.199	23413
583.538	23356
583.876	23227
584.215	23001
584.553	22666
584.891	22231
585.230	21704
585.568	21127
585.906	20541
586.245	20014
586.583	19558
586.921	19181
587.259	18837
587.597	18493
587.935	18138
588.273	17775
588.611	17435
588.949	17132
589.287	16873
589.625	16668
589.963	16502
590.300	16366
590.638	16241
590.976	16104
591.313	15947
591.651	15797
591.989	15665
592.326	15557
592.664	15462
593.001	15383
593.338	15331
593.676	15301
594.013	15299
594.350	15346
594.687	15432
595.025	15528
595.362	15615
595.699	15673
596.036	15707
596.373	15705
596.710	15663
597.047	15595
597.384	15514
597.720	15424
598.057	15349
598.394	15292
598.731	15257
599.067	15246
599.404	15263
599.741	15316
600.077	15393
600.414	15482
600.750	15575
601.087	15645
601.423	15674
601.759	15668
602.096	15634
602.432	15580
602.768	15503
603.104	15399
603.440	15273
603.776	15139
604.112	14994
604.448	14848
604.784	14692
605.120	14528
605.456	14369
605.792	14203
606.128	14029
606.463	13850
606.799	13670
607.135	13507
607.470	13346
607.806	13186
608.142	13030
608.477	12880
608.812	12736
609.148	12591
609.483	12439
609.819	12283
610.154	12134
610.489	11996
610.824	11875
611.159	11773
611.494	11669
611.830	11579
612.165	11490
612.500	11390
612.834	11276
613.169	11146
613.504	11005
613.839	10849
614.174	10673
614.509	10494
614.843	10318
615.178	10150
615.512	9983
615.847	9819
616.182	9656
616.516	9492
616.850	9320
617.185	9141
617.519	8959
617.853	8765
618.188	8563
618.522	8379
618.856	8222
619.190	8085
619.524	7965
619.858	7868
620.192	7792
620.526	7723
620.860	7656
621.194	7591
621.528	7527
621.862	7464
622.195	7388
622.529	7308
622.863	7224
623.196	7142
623.530	7057
623.864	6973
624.197	6888
624.530	6805
624.864	6731
625.197	6653
625.531	6566
625.864	6460
626.197	6348
626.530	6227
626.863	6091
627.196	5943
627.529	5794
627.862	5647
628.195	5501
628.528	5356
628.861	5218
629.194	5094
629.527	4976
629.860	4859
630.192	4745
630.525	4637
630.858	4537
631.190	4442
631.523	4350
631.855	4264
632.188	4189
632.520	4118
632.852	4052
633.185	3984
633.517	3919
633.849	3860
634.182	3805
634.514	3754
634.846	3707
635.178	3666
635.510	3630
635.842	3597
636.174	3564
636.506	3531
636.837	3499
637.169	3468
637.501	3434
637.833	3398
638.164	3357
638.496	3312
638.828	3261
639.159	3205
639.491	3143
639.822	3080
640.154	3015
640.485	2952
640.816	2890
641.147	2828
641.479	2769
641.810	2712
642.141	2656
642.472	2601
642.803	2546
643.134	2495
643.465	2450
643.796	2415
644.127	2390
644.458	2377
644.789	2377
645.119	2390
645.450	2411
645.781	2435
646.111	2459
646.442	2480
646.773	2497
647.103	2510
647.433	2521
647.764	2533
648.094	2549
648.425	2568
648.755	2592
649.085	2620
649.415	2649
649.745	2680
650.075	2711
650.405	2746
650.735	2824
651.065	3388
651.395	5140
651.725	8031
652.055	11675
652.385	15315
652.715	18953
653.044	22594
653.374	26239
653.704	29890
654.033	32560
654.363	34345
654.692	35534
655.022	36310
655.351	36820
655.680	37137
656.010	37310
656.339	37388
656.668	37409
656.997	37400
657.326	37369
657.655	37283
657.984	36700
658.313	34921
658.642	31992
658.971	28299
659.300	24608
659.629	20916
659.958	17225
660.286	13535
660.615	9846
660.944	7145
661.272	5331
661.601	4118
661.929	3312
662.258	2770
662.586	2415
662.915	2198
663.243	2073
663.571	2002
663.899	1959
664.228	1932
664.556	1914
664.884	1902
665.212	1892
665.540	1886
665.868	1883
666.196	1881
666.524	1880
666.852	1881
667.179	1888
667.507	1901
667.835	1922
668.162	1950
668.490	1983
668.818	2024
669.145	2066
669.473	2108
669.800	2148
670.127	2182
670.455	2211
670.782	2234
671.109	2256
671.436	2273
671.764	2288
672.091	2300
672.418	2310
672.745	2318
673.072	2327
673.399	2337
673.726	2348
674.053	2356
674.379	2359
674.706	2358
675.033	2357
675.359	2354
675.686	2348
676.013	2345
676.339	2347
676.666	2354
676.992	2371
677.318	2395
677.645	2423
677.971	2449
678.297	2472
678.624	2494
678.950	2515
679.276	2536
679.602	2555
679.928	2576
680.254	2601
680.580	2633
680.906	2675
681.232	2725
681.558	2778
681.883	2830
682.209	2879
682.535	2924
682.860	2966
683.186	3000
683.511	3028
683.837	3045
684.162	3058
684.488	3068
684.813	3079
685.138	3090
685.464	3099
685.789	3107
686.114	3114
686.439	3125
686.764	3136
687.089	3143
687.414	3143
687.739	3133
688.064	3114
688.389	3090
688.714	3061
689.039	3030
689.363	2997
689.688	2962
690.013	2927
690.337	2895
690.662	2870
690.986	2847
691.311	2824
691.635	2801
691.959	2779
692.284	2764
692.608	2759
692.932	2764
693.256	2772
693.580	2783
693.904	2798
694.228	2816
694.552	2831
694.876	2838
695.200	2836
695.524	2824
695.848	2806
696.172	2783
696.495	2759
696.819	2734
697.143	2708
697.466	2681
697.790	2659
698.113	2644
698.437	2636
698.760	2634
699.083	2632
699.407	2624
699.730	2610
700.053	2589
700.376	2559
700.699	2518
701.022	2466
701.345	2409
701.668	2357
701.991	2312
702.314	2282
702.637	2267
702.960	2272
703.283	2295
703.605	2336
703.928	2391
704.251	2455
704.573	2518
704.896	2574
705.218	2621
705.540	2658
705.863	2688
706.185	2712
706.507	2733
706.830	2753
707.152	2774
707.474	2796
707.796	2821
708.118	2847
708.440	2872
708.762	2895
709.084	2912
709.406	2922
709.728	2924
710.049	2917
710.371	2905
710.693	2886
711.014	2864
711.336	2843
711.658	2825
711.979	2808
712.301	2792
712.622	2775
712.943	2756
713.265	2732
713.586	2707
713.907	2683
714.228	2662
714.549	2646
714.870	2634
715.191	2629
715.512	2627
715.833	2623
716.154	2616
716.475	2605
716.796	2588
717.117	2563
717.437	2535
717.758	2502
718.078	2469
718.399	2437
718.719	2408
719.040	2383
719.360	2364
719.681	2350
720.001	2341
720.321	2336
720.642	2334
720.962	2336
721.282	2342
721.602	2349
721.922	2357
722.242	2368
722.562	2383
722.882	2401
723.202	2417
723.521	2432
723.841	2448
724.161	2464
724.481	2480
724.800	2497
725.120	2519
725.439	2545
725.759	2575
726.078	2609
726.398	2650
726.717	2701
727.036	2759
727.355	2819
727.675	2878
727.994	2934
728.313	2988
728.632	3035
728.951	3074
729.270	3107
729.589	3138
729.908	3176
730.226	3220
730.545	3268
730.864	3321
731.182	3376
731.501	3433
731.820	3487
732.138	3534
732.457	3576
732.775	3613
733.093	3644
733.412	3661
733.730	3666
734.048	3658
734.367	3642
734.685	3620
735.003	3594
735.321	3572
735.639	3553
735.957	3539
736.275	3525
736.593	3506
736.910	3477
737.228	3435
737.546	3382
737.863	3319
738.181	3251
738.499	3179
738.816	3107
739.134	3037
739.451	2966
739.768	2895
740.086	2827
740.403	2764
740.720	2705
741.038	2650
741.355	2597
741.672	2544
741.989	2490
742.306	2433
742.623	2376
742.940	2320
743.257	2268
743.573	2223
743.890	2186
744.207	2158
744.523	2139
744.840	2127
745.157	2119
745.473	2118
745.790	2126
746.106	2142
746.422	2167
746.739	2198
747.055	2235
747.371	2277
747.687	2321
748.004	2363
748.320	2400
748.636	2433
748.952	2466
749.268	2499
749.584	2531
749.899	2560
750.215	2589
750.531	2622
750.847	2659
751.162	2697
751.478	2733
751.793	2771
752.109	2812
752.424	2855
752.740	2899
753.055	2950
753.370	3010
753.686	3080
754.001	3156
754.316	3235
754.631	3318
754.946	3407
755.261	3500
755.576	3591
755.891	3678
756.206	3765
756.521	3856
756.836	3950
757.150	4040
757.465	4119
757.780	4186
758.094	4243
758.409	4287
758.723	4314
759.038	4327
759.352	4327
759.667	4315
759.981	4294
760.295	4273
760.609	4256
760.923	4246
761.238	4241
761.552	4238
761.866	4232
762.180	4224
762.493	4201
762.807	4157
763.121	4090
763.435	4007
763.749	3915
764.062	3828
764.376	3756
764.689	3706
765.003	3680
765.316	3676
765.630	3688
765.943	3709
766.257	3734
766.570	3755
766.883	3761
767.196	3754
767.509	3730
767.822	3694
768.135	3648
768.448	3599
768.761	3547
769.074	3501
769.387	3467
769.700	3445
770.013	3433
770.325	3422
770.638	3407
770.950	3379
771.263	3334
771.575	3272
771.888	3191
772.200	3098
772.513	2997
772.825	2891
773.137	2781
773.449	2674
773.761	2569
774.074	2473
774.386	2387
774.698	2315
775.010	2256
775.321	2214
775.633	2186
775.945	2171
776.257	2162
776.568	2159
776.880	2166
777.192	2182
777.503	2206
777.815	2235
778.126	2273
778.438	2319
778.749	2368
779.060	2416
779.372	2461
779.683	2505
779.994	2544
780.305	2576
780.616	2597
780.927	2611
781.238	2616
781.549	2610
781.860	2593
782.171	2570
782.481	2543
782.792	2517
783.103	2490
783.413	2462
783.724	2431
784.034	2402
784.345	2375
784.655	2351
784.966	2326
785.276	2300
785.586	2274
785.896	2248
786.207	2221
786.517	2192
786.827	2164
787.137	2138
787.447	2112
787.757	2087
788.066	2064
788.376	2041
788.686	2019
788.996	1996
789.305	1973
789.615	1955
789.925	1945
790.234	1943
790.544	1948
790.853	1957
791.162	1968
791.472	1977
791.781	1981
792.090	1977
792.399	1965
792.708	1947
793.017	1927
793.326	1907
793.635	1888
793.944	1871
794.253	1857
794.562	1846
794.871	1840
795.179	1835
795.488	1829
795.797	1820
796.105	1803
796.414	1776
796.722	1740
797.031	1694
797.339	1638
797.647	1575
797.956	1510
798.264	1449
798.572	1398
798.880	1359
799.188	1330
799.496	1309
799.804	1293
800.112	1281
800.420	1270
800.728	1260
801.035	1247
801.343	1232
801.651	1220
801.958	1217
802.266	1222
802.573	1232
802.881	1246
803.188	1262
803.496	1280
803.803	1298
804.110	1315
804.417	1330
804.724	1343
805.032	1356
805.339	1366
805.646	1373
805.953	1376
806.259	1377
806.566	1375
806.873	1370
807.180	1363
807.486	1356
807.793	1347
808.100	1333
808.406	1311
808.713	1281
809.019	1247
809.326	1212
809.632	1178
809.938	1147
810.244	1118
810.551	1093
810.857	1073
811.163	1055
811.469	1036
811.775	1016
812.081	996
812.387	977
812.692	962
812.998	950
813.304	941
813.610	934
813.915	928
814.221	923
814.526	919
814.832	915
815.137	911
815.443	905
815.748	896
816.053	884
816.358	872
816.664	861
816.969	850
817.274	842
817.579	835
817.884	831
818.189	829
818.493	829
818.798	826
819.103	821
819.408	813
819.712	804
820.017	793
820.321	783
820.626	772
820.930	762
821.235	756
821.539	753
821.843	753
822.148	755
822.452	756
822.756	755
823.060	753
823.364	748
823.668	742
823.972	734
824.276	726
824.580	720
824.883	716
825.187	715
825.491	715
825.795	715
826.098	715
826.402	714
826.705	712
827.008	707
827.312	700
827.615	688
827.918	674
828.222	657
828.525	641
828.828	625
829.131	609
829.434	593
829.737	579
830.040	568
830.343	558
830.645	550
830.948	541
831.251	533
831.553	526
831.856	521
832.159	515
832.461	508
832.764	500
833.066	493
833.368	488
833.671	483
833.973	480
834.275	477
834.577	473
834.879	469
835.181	465
835.483	460
835.785	453
836.087	445
836.389	435
836.690	424
836.992	413
837.294	401
837.595	388
837.897	375
838.198	361
838.500	349
838.801	338
839.103	328
839.404	320
839.705	313
840.006	307
840.307	302
840.608	298
840.910	296
841.210	294
841.511	292
841.812	289
842.113	285
842.414	281
842.715	277
843.015	271
843.316	265
843.616	259
843.917	254
844.217	250
844.518	246
844.818	243
845.118	241
845.419	240
845.719	238
846.019	237
846.319	236
846.619	234
846.919	233
847.219	232
847.519	231
847.819	230
848.118	230
848.418	233
848.718	240
849.017	252
849.317	268
849.616	287
849.916	310
850.215	335
850.515	362
850.814	389
851.113	414
851.412	436
851.712	455
852.011	474
852.310	491
852.609	507
852.908	520
853.206	532
853.505	543
853.804	553
854.103	561
854.401	566
854.700	569
854.999	567
855.297	560
855.595	548
855.894	532
856.192	513
856.491	490
856.789	466
857.087	441
857.385	418
857.683	397
857.981	378
858.279	360
858.577	343
858.875	329
859.173	317
859.471	308
859.768	300
860.066	293
860.363	287
860.661	282
860.959	278
861.256	274
861.553	270
861.851	265
862.148	259
862.445	254
862.742	249
863.039	245
863.337	242
863.634	239
863.931	237
864.227	235
864.524	235
864.821	235
865.118	234
865.415	232
865.711	229
866.008	225
866.304	221
866.601	217
866.897	213
867.194	210
867.490	208
867.786	207
868.082	207
868.379	208
868.675	209
868.971	209
869.267	209
869.563	209
869.859	208
870.154	207
870.450	206
870.746	205
871.042	204
871.337	204
871.633	205
871.928	205
872.224	207
872.519	209
872.815	210
873.110	211
873.405	211
873.700	210
873.995	209
874.291	209
874.586	210
874.881	211
875.175	213
875.470	217
875.765	221
876.060	225
876.355	229
876.649	233
876.944	238
877.238	242
877.533	245
877.827	248
878.122	250
878.416	251
878.710	250
879.005	249
879.299	248
879.593	247
879.887	246
880.181	245
880.475	244
880.769	242
881.063	239
881.356	237
881.650	233
881.944	230
882.238	190
882.531	180
882.825	182
883.118	188
883.412	186
883.705	184
883.998	187
884.291	194
884.585	195
884.878	203
>>>>>>>>>> END of Data <<<<<<<<<<