Date	2021年06月15日火曜日 04時31分25秒
Spectrometers	USB2+H05879
ダーク	使用
リファレンス	使用
積分時間[msec]	10
平均回数	280
ｽﾑｰｼﾞﾝｸﾞ	10
Electrical Dark	USE
ピクセル数	2048
計測モード	吸光度
保存開始波長[nm]	190.664
保存終了波長[nm]	884.878
保存ﾋﾟｯﾁ波長[nm]	全波長

>>>>>>>>>> Data Start <<<<<<<<<<<<
190.664	0.000000
191.040	0.000000
191.415	0.000000
191.791	-2.222196
192.166	-0.430718
192.542	-1.031591
192.917	0.000000
193.293	-0.552759
193.668	-0.375414
194.044	-1.049506
194.419	0.000000
194.794	-1.421868
195.170	-1.340047
195.545	-1.247965
195.920	-1.124661
196.296	-1.010133
196.671	-0.848206
197.046	-0.695229
197.421	-0.641141
197.796	-0.639418
198.171	-0.603813
198.546	-0.559644
198.922	-0.508105
199.297	-0.487256
199.672	-0.466494
200.047	-0.436687
200.422	-0.405346
200.796	-0.396235
201.171	-0.377211
201.546	-0.380455
201.921	-0.369181
202.296	-0.357685
202.671	-0.334744
203.045	-0.311959
203.420	-0.302979
203.795	-0.282925
204.170	-0.280449
204.544	-0.273844
204.919	-0.276087
205.294	-0.273555
205.668	-0.257514
206.043	-0.244142
206.417	-0.251787
206.792	-0.245383
207.166	-0.238793
207.541	-0.241461
207.915	-0.246974
208.289	-0.229729
208.664	-0.227556
209.038	-0.229154
209.412	-0.213739
209.787	-0.196294
210.161	-0.186718
210.535	-0.188795
210.909	-0.181347
211.284	-0.180057
211.658	-0.188580
212.032	-0.184204
212.406	-0.193617
212.780	-0.189677
213.154	-0.185104
213.528	-0.185685
213.902	-0.186253
214.276	-0.176813
214.650	-0.177388
215.024	-0.173875
215.398	-0.164492
215.772	-0.155453
216.145	-0.157242
216.519	-0.148630
216.893	-0.146468
217.267	-0.151143
217.640	-0.159105
218.014	-0.148562
218.388	-0.135740
218.761	-0.139824
219.135	-0.126828
219.508	-0.127545
219.882	-0.138218
220.256	-0.129019
220.629	-0.118826
221.003	-0.128570
221.376	-0.128280
221.749	-0.138358
222.123	-0.139465
222.496	-0.147412
222.869	-0.149590
223.243	-0.146456
223.616	-0.149987
223.989	-0.157170
224.362	-0.153753
224.736	-0.151475
225.109	-0.147971
225.482	-0.145103
225.855	-0.151095
226.228	-0.156527
226.601	-0.159693
226.974	-0.157166
227.347	-0.149977
227.720	-0.141544
228.093	-0.149574
228.466	-0.161171
228.839	-0.154614
229.212	-0.160017
229.585	-0.167358
229.957	-0.166543
230.330	-0.151830
230.703	-0.147428
231.076	-0.147628
231.448	-0.150818
231.821	-0.156490
232.194	-0.157944
232.566	-0.165819
232.939	-0.169732
233.311	-0.178600
233.684	-0.171591
234.056	-0.172375
234.429	-0.166973
234.801	-0.170611
235.174	-0.170080
235.546	-0.173694
235.918	-0.167214
236.291	-0.163364
236.663	-0.157192
237.035	-0.153217
237.408	-0.133929
237.780	-0.128892
238.152	-0.136961
238.524	-0.142168
238.896	-0.139166
239.268	-0.134163
239.641	-0.126990
240.013	-0.119614
240.385	-0.106015
240.757	-0.104262
241.129	-0.098003
241.500	-0.101531
241.872	-0.097870
242.244	-0.096006
242.616	-0.098965
242.988	-0.097602
243.360	-0.092445
243.731	-0.084247
244.103	-0.085201
244.475	-0.093277
244.847	-0.089781
245.218	-0.088768
245.590	-0.091356
245.961	-0.092426
246.333	-0.088400
246.705	-0.087188
247.076	-0.085370
247.448	-0.079305
247.819	-0.080901
248.190	-0.079640
248.562	-0.080755
248.933	-0.075176
249.305	-0.068621
249.676	-0.068530
250.047	-0.072369
250.418	-0.073111
250.790	-0.072918
251.161	-0.069929
251.532	-0.077596
251.903	-0.079044
252.274	-0.066445
252.645	-0.060208
253.016	-0.065895
253.387	-0.062996
253.758	-0.064456
254.129	-0.067554
254.500	-0.070252
254.871	-0.069946
255.242	-0.074220
255.613	-0.074966
255.984	-0.082470
256.355	-0.080314
256.725	-0.080139
257.096	-0.086289
257.467	-0.090879
257.838	-0.088122
258.208	-0.086665
258.579	-0.085450
258.949	-0.090003
259.320	-0.089495
259.690	-0.082520
260.061	-0.083933
260.431	-0.079501
260.802	-0.075205
261.172	-0.075105
261.543	-0.065801
261.913	-0.061253
262.283	-0.062663
262.654	-0.065065
263.024	-0.067374
263.394	-0.066757
263.764	-0.059000
264.135	-0.055558
264.505	-0.059582
264.875	-0.056217
265.245	-0.049999
265.615	-0.050431
265.985	-0.047296
266.355	-0.046118
266.725	-0.042374
267.095	-0.037202
267.465	-0.036076
267.835	-0.039589
268.205	-0.049695
268.575	-0.052875
268.944	-0.052357
269.314	-0.056129
269.684	-0.057002
270.054	-0.060518
270.423	-0.053417
270.793	-0.054554
271.163	-0.055396
271.532	-0.053737
271.902	-0.054271
272.271	-0.050534
272.641	-0.047796
273.010	-0.052763
273.380	-0.056004
273.749	-0.059813
274.119	-0.057261
274.488	-0.051161
274.857	-0.052473
275.227	-0.050469
275.596	-0.048570
275.965	-0.043898
276.335	-0.042165
276.704	-0.041722
277.073	-0.041106
277.442	-0.038920
277.811	-0.032045
278.180	-0.032402
278.549	-0.030559
278.918	-0.032284
279.287	-0.034293
279.656	-0.030617
280.025	-0.033623
280.394	-0.037228
280.763	-0.029440
281.132	-0.018688
281.501	-0.014017
281.869	-0.018634
282.238	-0.021161
282.607	-0.023710
282.976	-0.027072
283.344	-0.024711
283.713	-0.022664
284.081	-0.021332
284.450	-0.014618
284.819	-0.012506
285.187	-0.006861
285.556	-0.004533
285.924	-0.009779
286.292	-0.010570
286.661	-0.009025
287.029	-0.012119
287.398	-0.009481
287.766	-0.006987
288.134	-0.003345
288.502	-0.005683
288.871	-0.006496
289.239	-0.005240
289.607	-0.005497
289.975	-0.010529
290.343	-0.005708
290.711	-0.010157
291.079	-0.009836
291.447	-0.015614
291.815	-0.014378
292.183	-0.016214
292.551	-0.013755
292.919	-0.015568
293.287	-0.017205
293.655	-0.013137
294.022	-0.011203
294.390	-0.009075
294.758	-0.004691
295.126	-0.010341
295.493	-0.007007
295.861	-0.008051
296.229	-0.008926
296.596	-0.006581
296.964	-0.006942
297.331	-0.001156
297.699	0.008057
298.066	0.007997
298.434	0.013297
298.801	0.013426
299.168	0.014495
299.536	0.018316
299.903	0.013667
300.270	0.014875
300.638	0.019542
301.005	0.030359
301.372	0.036470
301.739	0.046957
302.106	0.053539
302.473	0.061204
302.840	0.071466
303.207	0.085788
303.574	0.100821
303.941	0.112372
304.308	0.121869
304.675	0.130494
305.042	0.140242
305.409	0.151955
305.776	0.168016
306.143	0.187252
306.509	0.203761
306.876	0.227121
307.243	0.246089
307.610	0.271822
307.976	0.291085
308.343	0.312392
308.709	0.331573
309.076	0.355656
309.442	0.375642
309.809	0.399024
310.175	0.418495
310.542	0.438988
310.908	0.455007
311.275	0.468744
311.641	0.486590
312.007	0.503555
312.373	0.525029
312.740	0.544541
313.106	0.560774
313.472	0.579742
313.838	0.595435
314.204	0.610049
314.570	0.621519
314.936	0.632988
315.302	0.643160
315.668	0.652359
316.034	0.664329
316.400	0.675277
316.766	0.684305
317.132	0.694500
317.498	0.701388
317.864	0.706002
318.230	0.711063
318.595	0.717173
318.961	0.723996
319.327	0.730582
319.692	0.735448
320.058	0.736397
320.424	0.739308
320.789	0.742714
321.155	0.745259
321.520	0.748490
321.886	0.752809
322.251	0.756092
322.616	0.757434
322.982	0.759779
323.347	0.761136
323.712	0.762840
324.078	0.764345
324.443	0.764703
324.808	0.764550
325.173	0.765623
325.539	0.767191
325.904	0.767586
326.269	0.768040
326.634	0.768795
326.999	0.769047
327.364	0.769028
327.729	0.770490
328.094	0.771040
328.459	0.771184
328.823	0.771015
329.188	0.771268
329.553	0.770241
329.918	0.770214
330.283	0.770549
330.647	0.770607
331.012	0.770899
331.377	0.770705
331.741	0.769981
332.106	0.769947
332.470	0.770112
332.835	0.769676
333.199	0.769567
333.564	0.769384
333.928	0.769026
334.293	0.768709
334.657	0.767884
335.021	0.767927
335.386	0.767403
335.750	0.766980
336.114	0.766691
336.478	0.766409
336.843	0.765638
337.207	0.765642
337.571	0.765583
337.935	0.765458
338.299	0.764971
338.663	0.764391
339.027	0.764068
339.391	0.763921
339.755	0.763537
340.119	0.763164
340.483	0.762819
340.846	0.762927
341.210	0.762919
341.574	0.762741
341.938	0.762683
342.301	0.763156
342.665	0.762975
343.029	0.763015
343.392	0.763180
343.756	0.762926
344.119	0.762782
344.483	0.763093
344.846	0.763238
345.210	0.763352
345.573	0.763049
345.937	0.763044
346.300	0.763388
346.663	0.763419
347.027	0.763422
347.390	0.763537
347.753	0.763455
348.116	0.763682
348.479	0.763675
348.843	0.763833
349.206	0.764046
349.569	0.763917
349.932	0.763905
350.295	0.764201
350.658	0.764368
351.021	0.764473
351.383	0.764896
351.746	0.765181
352.109	0.765145
352.472	0.765090
352.835	0.764900
353.197	0.765218
353.560	0.765441
353.923	0.765372
354.285	0.765403
354.648	0.765506
355.011	0.765456
355.373	0.765896
355.736	0.766049
356.098	0.765905
356.461	0.766013
356.823	0.766080
357.185	0.766484
357.548	0.766605
357.910	0.766508
358.272	0.766370
358.635	0.766095
358.997	0.765843
359.359	0.765963
359.721	0.765897
360.083	0.765960
360.445	0.766017
360.807	0.765912
361.169	0.765860
361.531	0.766018
361.893	0.766110
362.255	0.766213
362.617	0.766471
362.979	0.766306
363.341	0.766126
363.703	0.766282
364.064	0.766391
364.426	0.766458
364.788	0.766312
365.149	0.766282
365.511	0.766429
365.873	0.766578
366.234	0.766652
366.596	0.767032
366.957	0.767014
367.319	0.767359
367.680	0.767361
368.042	0.767316
368.403	0.767548
368.764	0.767751
369.126	0.767564
369.487	0.767582
369.848	0.767539
370.209	0.767414
370.570	0.767356
370.931	0.767371
371.293	0.767451
371.654	0.767294
372.015	0.767348
372.376	0.767347
372.737	0.767265
373.098	0.767217
373.458	0.767201
373.819	0.767302
374.180	0.767257
374.541	0.767271
374.902	0.767114
375.263	0.767145
375.623	0.767220
375.984	0.767406
376.345	0.767341
376.705	0.767547
377.066	0.767630
377.426	0.767553
377.787	0.767614
378.147	0.767816
378.508	0.767824
378.868	0.767749
379.228	0.767848
379.589	0.767693
379.949	0.767682
380.309	0.767684
380.670	0.767550
381.030	0.767441
381.390	0.767488
381.750	0.767198
382.110	0.767062
382.470	0.767072
382.830	0.767006
383.190	0.766899
383.550	0.766481
383.910	0.766445
384.270	0.766277
384.630	0.766050
384.990	0.765943
385.350	0.765732
385.709	0.765286
386.069	0.765203
386.429	0.765051
386.788	0.764791
387.148	0.764535
387.508	0.764217
387.867	0.763924
388.227	0.763613
388.586	0.763356
388.946	0.763145
389.305	0.762920
389.665	0.762619
390.024	0.762111
390.383	0.761851
390.743	0.761465
391.102	0.761199
391.461	0.760656
391.820	0.760196
392.179	0.759640
392.539	0.759096
392.898	0.758668
393.257	0.758318
393.616	0.757915
393.975	0.757267
394.334	0.756703
394.693	0.756207
395.051	0.755793
395.410	0.755240
395.769	0.754835
396.128	0.754480
396.487	0.753937
396.845	0.753209
397.204	0.752597
397.563	0.751850
397.921	0.751025
398.280	0.750207
398.638	0.749251
398.997	0.748442
399.355	0.747605
399.714	0.746894
400.072	0.745971
400.431	0.745003
400.789	0.744066
401.147	0.743081
401.506	0.742225
401.864	0.741207
402.222	0.740200
402.580	0.739005
402.938	0.737995
403.297	0.736840
403.655	0.735686
404.013	0.734376
404.371	0.733467
404.729	0.732325
405.087	0.731198
405.444	0.730090
405.802	0.729080
406.160	0.728087
406.518	0.726925
406.876	0.725829
407.233	0.724690
407.591	0.723713
407.949	0.722678
408.306	0.721548
408.664	0.720314
409.022	0.719120
409.379	0.717982
409.737	0.716661
410.094	0.715462
410.451	0.714021
410.809	0.712701
411.166	0.711321
411.523	0.710193
411.881	0.708819
412.238	0.707497
412.595	0.706212
412.952	0.704911
413.310	0.703604
413.667	0.702324
414.024	0.701122
414.381	0.699754
414.738	0.698311
415.095	0.696745
415.452	0.695238
415.809	0.693759
416.165	0.692251
416.522	0.690738
416.879	0.689198
417.236	0.687642
417.593	0.686104
417.949	0.684630
418.306	0.683165
418.663	0.681834
419.019	0.680455
419.376	0.678988
419.732	0.677604
420.089	0.676361
420.445	0.674967
420.802	0.673592
421.158	0.672130
421.514	0.670687
421.871	0.669328
422.227	0.668014
422.583	0.666722
422.939	0.665248
423.295	0.663891
423.652	0.662519
424.008	0.660985
424.364	0.659468
424.720	0.657973
425.076	0.656444
425.432	0.654827
425.788	0.653108
426.143	0.651244
426.499	0.649349
426.855	0.647684
427.211	0.645984
427.567	0.644299
427.922	0.642692
428.278	0.640914
428.634	0.639396
428.989	0.637762
429.345	0.636109
429.700	0.634476
430.056	0.632924
430.411	0.631375
430.767	0.629691
431.122	0.628034
431.478	0.626389
431.833	0.624753
432.188	0.623033
432.543	0.621332
432.899	0.619608
433.254	0.617837
433.609	0.616080
433.964	0.614305
434.319	0.612386
434.674	0.610484
435.029	0.608661
435.384	0.606758
435.739	0.605027
436.094	0.603322
436.449	0.601645
436.804	0.599936
437.158	0.598217
437.513	0.596472
437.868	0.594713
438.223	0.592976
438.577	0.591237
438.932	0.589634
439.287	0.587906
439.641	0.586305
439.996	0.584553
440.350	0.583013
440.704	0.581394
441.059	0.579753
441.413	0.578063
441.768	0.576377
442.122	0.574790
442.476	0.573082
442.830	0.571558
443.185	0.569967
443.539	0.568349
443.893	0.566738
444.247	0.565212
444.601	0.563594
444.955	0.561944
445.309	0.560287
445.663	0.558622
446.017	0.556912
446.371	0.555101
446.724	0.553379
447.078	0.551651
447.432	0.549938
447.786	0.548110
448.139	0.546364
448.493	0.544590
448.847	0.542835
449.200	0.541104
449.554	0.539355
449.907	0.537644
450.261	0.535819
450.614	0.534153
450.968	0.532383
451.321	0.530568
451.674	0.528773
452.027	0.526952
452.381	0.525203
452.734	0.523444
453.087	0.521659
453.440	0.519807
453.793	0.518044
454.146	0.516296
454.499	0.514597
454.852	0.512900
455.205	0.511221
455.558	0.509624
455.911	0.508048
456.264	0.506443
456.617	0.504873
456.970	0.503331
457.322	0.501867
457.675	0.500426
458.028	0.498919
458.380	0.497518
458.733	0.496127
459.086	0.494718
459.438	0.493415
459.791	0.491956
460.143	0.490519
460.496	0.489222
460.848	0.487838
461.200	0.486473
461.553	0.485102
461.905	0.483691
462.257	0.482284
462.609	0.481043
462.961	0.479740
463.314	0.478543
463.666	0.477289
464.018	0.476037
464.370	0.474814
464.722	0.473686
465.074	0.472448
465.426	0.471297
465.777	0.470190
466.129	0.469111
466.481	0.468049
466.833	0.466958
467.184	0.465983
467.536	0.464861
467.888	0.463666
468.239	0.462458
468.591	0.461177
468.943	0.459758
469.294	0.458439
469.646	0.457113
469.997	0.455676
470.348	0.454341
470.700	0.452878
471.051	0.451613
471.402	0.450381
471.754	0.449198
472.105	0.447971
472.456	0.446895
472.807	0.445798
473.158	0.444750
473.509	0.443753
473.860	0.442685
474.211	0.441736
474.562	0.440712
474.913	0.439728
475.264	0.438709
475.615	0.437783
475.966	0.436835
476.316	0.435913
476.667	0.434936
477.018	0.434009
477.368	0.433009
477.719	0.432031
478.070	0.431138
478.420	0.430188
478.771	0.429188
479.121	0.428211
479.472	0.427281
479.822	0.426271
480.172	0.425297
480.523	0.424211
480.873	0.422910
481.223	0.421421
481.573	0.419827
481.924	0.418336
482.274	0.416945
482.624	0.415726
482.974	0.414770
483.324	0.414093
483.674	0.413458
484.024	0.412870
484.374	0.412249
484.724	0.411685
485.073	0.411086
485.423	0.410497
485.773	0.409879
486.123	0.409323
486.472	0.408699
486.822	0.408029
487.172	0.407417
487.521	0.406804
487.871	0.406193
488.220	0.405663
488.570	0.405149
488.919	0.404564
489.268	0.403824
489.618	0.402969
489.967	0.401974
490.316	0.400702
490.666	0.399164
491.015	0.397766
491.364	0.396401
491.713	0.395145
492.062	0.394011
492.411	0.392879
492.760	0.391809
493.109	0.390765
493.458	0.389709
493.807	0.388747
494.156	0.387784
494.505	0.386791
494.853	0.385716
495.202	0.384678
495.551	0.383625
495.900	0.382560
496.248	0.381473
496.597	0.380383
496.945	0.379377
497.294	0.378339
497.642	0.377333
497.991	0.376254
498.339	0.375171
498.688	0.374182
499.036	0.373283
499.384	0.372331
499.732	0.371369
500.081	0.370421
500.429	0.369451
500.777	0.368486
501.125	0.367579
501.473	0.366588
501.821	0.365627
502.169	0.364769
502.517	0.363935
502.865	0.363084
503.213	0.362203
503.561	0.361334
503.908	0.360515
504.256	0.359698
504.604	0.358797
504.952	0.357888
505.299	0.357035
505.647	0.356177
505.994	0.355296
506.342	0.354386
506.689	0.353460
507.037	0.352589
507.384	0.351739
507.732	0.350912
508.079	0.350056
508.426	0.349157
508.774	0.348327
509.121	0.347563
509.468	0.346759
509.815	0.345940
510.162	0.345120
510.509	0.344363
510.856	0.343587
511.203	0.342803
511.550	0.341939
511.897	0.341214
512.244	0.340472
512.591	0.339709
512.938	0.338926
513.284	0.338140
513.631	0.337364
513.978	0.336528
514.324	0.335815
514.671	0.334978
515.018	0.334143
515.364	0.333387
515.711	0.332632
516.057	0.331865
516.403	0.331107
516.750	0.330319
517.096	0.329543
517.443	0.328818
517.789	0.328129
518.135	0.327386
518.481	0.326657
518.827	0.325944
519.173	0.325189
519.519	0.324460
519.865	0.323753
520.211	0.323073
520.557	0.322360
520.903	0.321659
521.249	0.321018
521.595	0.320216
521.941	0.319451
522.287	0.318711
522.632	0.317884
522.978	0.317081
523.324	0.316334
523.669	0.315506
524.015	0.314727
524.360	0.313904
524.706	0.313146
525.051	0.312291
525.397	0.311461
525.742	0.310698
526.087	0.309974
526.433	0.309259
526.778	0.308526
527.123	0.307806
527.468	0.307039
527.813	0.306286
528.158	0.305469
528.504	0.304691
528.849	0.303903
529.193	0.303180
529.538	0.302398
529.883	0.301550
530.228	0.300669
530.573	0.299877
530.918	0.299088
531.263	0.298323
531.607	0.297592
531.952	0.296827
532.296	0.296117
532.641	0.295431
532.986	0.294653
533.330	0.293862
533.675	0.293089
534.019	0.292270
534.363	0.291465
534.708	0.290653
535.052	0.289978
535.396	0.289268
535.741	0.288592
536.085	0.287868
536.429	0.287106
536.773	0.286343
537.117	0.285620
537.461	0.284844
537.805	0.283993
538.149	0.283079
538.493	0.282172
538.837	0.281336
539.181	0.280428
539.524	0.279465
539.868	0.278565
540.212	0.277652
540.556	0.276728
540.899	0.275842
541.243	0.275028
541.586	0.274179
541.930	0.273338
542.273	0.272380
542.617	0.271430
542.960	0.270378
543.304	0.269369
543.647	0.268328
543.990	0.267349
544.333	0.266384
544.677	0.265401
545.020	0.264484
545.363	0.263568
545.706	0.262638
546.049	0.261655
546.392	0.260706
546.735	0.259789
547.078	0.258785
547.421	0.257796
547.764	0.256821
548.106	0.255738
548.449	0.254577
548.792	0.253440
549.135	0.252300
549.477	0.251272
549.820	0.250301
550.162	0.249305
550.505	0.248296
550.847	0.247283
551.190	0.246181
551.532	0.245009
551.875	0.243847
552.217	0.242618
552.559	0.241460
552.901	0.240308
553.244	0.239155
553.586	0.238032
553.928	0.236972
554.270	0.235947
554.612	0.234910
554.954	0.233900
555.296	0.232863
555.638	0.231796
555.980	0.230648
556.322	0.229450
556.663	0.228104
557.005	0.226756
557.347	0.225491
557.689	0.224253
558.030	0.223061
558.372	0.221837
558.713	0.220641
559.055	0.219431
559.396	0.218215
559.738	0.216975
560.079	0.215696
560.421	0.214465
560.762	0.213269
561.103	0.212000
561.444	0.210834
561.786	0.209695
562.127	0.208487
562.468	0.207245
562.809	0.206010
563.150	0.204716
563.491	0.203392
563.832	0.201989
564.173	0.200509
564.514	0.198982
564.855	0.197434
565.195	0.195811
565.536	0.194208
565.877	0.192595
566.218	0.191080
566.558	0.189552
566.899	0.188117
567.239	0.186864
567.580	0.185748
567.920	0.184721
568.261	0.183828
568.601	0.182948
568.941	0.182152
569.282	0.181413
569.622	0.180682
569.962	0.179925
570.302	0.179226
570.643	0.178587
570.983	0.178049
571.323	0.177545
571.663	0.177053
572.003	0.176531
572.343	0.176006
572.683	0.175367
573.022	0.174701
573.362	0.173993
573.702	0.173306
574.042	0.172640
574.381	0.171996
574.721	0.171350
575.061	0.170773
575.400	0.170264
575.740	0.169718
576.079	0.169145
576.419	0.168464
576.758	0.167734
577.097	0.166961
577.437	0.166134
577.776	0.165257
578.115	0.164374
578.454	0.163557
578.794	0.162880
579.133	0.162314
579.472	0.161801
579.811	0.161369
580.150	0.160922
580.489	0.160453
580.828	0.159933
581.167	0.159385
581.505	0.158847
581.844	0.158300
582.183	0.157702
582.522	0.157086
582.860	0.156505
583.199	0.155949
583.538	0.155463
583.876	0.155016
584.215	0.154634
584.553	0.154260
584.891	0.153917
585.230	0.153551
585.568	0.153124
585.906	0.152605
586.245	0.152022
586.583	0.151447
586.921	0.150909
587.259	0.150472
587.597	0.150052
587.935	0.149600
588.273	0.149098
588.611	0.148462
588.949	0.147790
589.287	0.147106
589.625	0.146403
589.963	0.145789
590.300	0.145204
590.638	0.144710
590.976	0.144217
591.313	0.143658
591.651	0.143087
591.989	0.142515
592.326	0.141985
592.664	0.141529
593.001	0.141065
593.338	0.140664
593.676	0.140321
594.013	0.139953
594.350	0.139597
594.687	0.139274
595.025	0.139011
595.362	0.138728
595.699	0.138444
596.036	0.138152
596.373	0.137867
596.710	0.137573
597.047	0.137217
597.384	0.136849
597.720	0.136447
598.057	0.136063
598.394	0.135654
598.731	0.135280
599.067	0.134860
599.404	0.134425
599.741	0.133988
600.077	0.133596
600.414	0.133253
600.750	0.132927
601.087	0.132659
601.423	0.132347
601.759	0.132041
602.096	0.131725
602.432	0.131428
602.768	0.131120
603.104	0.130805
603.440	0.130493
603.776	0.130192
604.112	0.129889
604.448	0.129650
604.784	0.129423
605.120	0.129188
605.456	0.128985
605.792	0.128763
606.128	0.128575
606.463	0.128418
606.799	0.128207
607.135	0.127990
607.470	0.127755
607.806	0.127507
608.142	0.127269
608.477	0.127051
608.812	0.126829
609.148	0.126605
609.483	0.126375
609.819	0.126113
610.154	0.125886
610.489	0.125621
610.824	0.125351
611.159	0.125145
611.494	0.124887
611.830	0.124688
612.165	0.124528
612.500	0.124401
612.834	0.124273
613.169	0.124157
613.504	0.123957
613.839	0.123774
614.174	0.123561
614.509	0.123337
614.843	0.123128
615.178	0.122935
615.512	0.122800
615.847	0.122634
616.182	0.122531
616.516	0.122399
616.850	0.122356
617.185	0.122240
617.519	0.122113
617.853	0.122017
618.188	0.121789
618.522	0.121586
618.856	0.121333
619.190	0.121066
619.524	0.120838
619.858	0.120607
620.192	0.120420
620.526	0.120242
620.860	0.120151
621.194	0.120055
621.528	0.119955
621.862	0.119815
622.195	0.119671
622.529	0.119413
622.863	0.119213
623.196	0.118989
623.530	0.118866
623.864	0.118672
624.197	0.118527
624.530	0.118380
624.864	0.118236
625.197	0.118150
625.531	0.118047
625.864	0.117888
626.197	0.117751
626.530	0.117608
626.863	0.117460
627.196	0.117243
627.529	0.117094
627.862	0.116846
628.195	0.116615
628.528	0.116409
628.861	0.116183
629.194	0.115993
629.527	0.115865
629.860	0.115716
630.192	0.115508
630.525	0.115211
630.858	0.114974
631.190	0.114739
631.523	0.114497
631.855	0.114162
632.188	0.113918
632.520	0.113658
632.852	0.113497
633.185	0.113309
633.517	0.113098
633.849	0.112977
634.182	0.112915
634.514	0.112878
634.846	0.112847
635.178	0.112815
635.510	0.112731
635.842	0.112655
636.174	0.112574
636.506	0.112480
636.837	0.112363
637.169	0.112298
637.501	0.112260
637.833	0.112232
638.164	0.112140
638.496	0.111995
638.828	0.111831
639.159	0.111609
639.491	0.111440
639.822	0.111210
640.154	0.110896
640.485	0.110591
640.816	0.110219
641.147	0.109870
641.479	0.109474
641.810	0.109167
642.141	0.108892
642.472	0.108591
642.803	0.108357
643.134	0.108033
643.465	0.107749
643.796	0.107517
644.127	0.107311
644.458	0.107214
644.789	0.107125
645.119	0.107074
645.450	0.107255
645.781	0.107617
646.111	0.108015
646.442	0.108317
646.773	0.108521
647.103	0.108685
647.433	0.108737
647.764	0.108844
648.094	0.108874
648.425	0.108967
648.755	0.109060
649.085	0.109050
649.415	0.109180
649.745	0.109400
650.075	0.109620
650.405	0.109704
650.735	0.108415
651.065	0.100125
651.395	0.093435
651.725	0.082079
652.055	0.056196
652.385	0.041459
652.715	0.031926
653.044	0.025263
653.374	0.020366
653.704	0.016630
654.033	0.022114
654.363	0.027378
654.692	0.030377
655.022	0.032121
655.351	0.033157
655.680	0.033762
656.010	0.034088
656.339	0.034225
656.668	0.034251
656.997	0.034211
657.326	0.034141
657.655	0.034072
657.984	0.033662
658.313	0.031018
658.642	0.027966
658.971	0.032536
659.300	0.038366
659.629	0.046068
659.958	0.056688
660.286	0.072301
660.615	0.097512
660.944	0.106231
661.272	0.104678
661.601	0.104026
661.929	0.104166
662.258	0.104935
662.586	0.105749
662.915	0.106372
663.243	0.106591
663.571	0.106516
663.899	0.106472
664.228	0.106344
664.556	0.106204
664.884	0.106158
665.212	0.106117
665.540	0.106222
665.868	0.106363
666.196	0.106506
666.524	0.106526
666.852	0.106637
667.179	0.106700
667.507	0.106685
667.835	0.106771
668.162	0.106818
668.490	0.106889
668.818	0.107037
669.145	0.107168
669.473	0.107412
669.800	0.107696
670.127	0.107898
670.455	0.108016
670.782	0.108222
671.109	0.108340
671.436	0.108550
671.764	0.108734
672.091	0.108850
672.418	0.108988
672.745	0.109010
673.072	0.109040
673.399	0.109035
673.726	0.108934
674.053	0.108922
674.379	0.108996
674.706	0.109055
675.033	0.109024
675.359	0.109036
675.686	0.108972
676.013	0.109008
676.339	0.108978
676.666	0.108809
676.992	0.108840
677.318	0.108922
677.645	0.108941
677.971	0.109029
678.297	0.109011
678.624	0.109057
678.950	0.109034
679.276	0.108940
679.602	0.108863
679.928	0.108798
680.254	0.108741
680.580	0.108779
680.906	0.108720
681.232	0.108755
681.558	0.108926
681.883	0.109131
682.209	0.109311
682.535	0.109584
682.860	0.109734
683.186	0.109883
683.511	0.109982
683.837	0.109971
684.162	0.109969
684.488	0.109949
684.813	0.109906
685.138	0.109908
685.464	0.109885
685.789	0.109819
686.114	0.109819
686.439	0.109838
686.764	0.109868
687.089	0.109916
687.414	0.109974
687.739	0.110127
688.064	0.110208
688.389	0.110184
688.714	0.110167
689.039	0.110058
689.363	0.109929
689.688	0.109944
690.013	0.109836
690.337	0.109787
690.662	0.109862
690.986	0.109933
691.311	0.109947
691.635	0.110005
691.959	0.110005
692.284	0.109864
692.608	0.109809
692.932	0.109786
693.256	0.109875
693.580	0.109957
693.904	0.110013
694.228	0.110129
694.552	0.110196
694.876	0.110313
695.200	0.110334
695.524	0.110314
695.848	0.110300
696.172	0.110153
696.495	0.109911
696.819	0.109796
697.143	0.109633
697.466	0.109375
697.790	0.109083
698.113	0.108922
698.437	0.108686
698.760	0.108493
699.083	0.108456
699.407	0.108475
699.730	0.108469
700.053	0.108378
700.376	0.108193
700.699	0.108001
701.022	0.107694
701.345	0.107284
701.668	0.106804
701.991	0.106329
702.314	0.105770
702.637	0.105193
702.960	0.104783
703.283	0.104427
703.605	0.103994
703.928	0.103935
704.251	0.103958
704.573	0.104027
704.896	0.104052
705.218	0.103993
705.540	0.103929
705.863	0.103732
706.185	0.103357
706.507	0.102943
706.830	0.102527
707.152	0.102107
707.474	0.101710
707.796	0.101319
708.118	0.101010
708.440	0.100742
708.762	0.100558
709.084	0.100433
709.406	0.100364
709.728	0.100278
710.049	0.100185
710.371	0.100120
710.693	0.099830
711.014	0.099473
711.336	0.099201
711.658	0.099006
711.979	0.098917
712.301	0.098669
712.622	0.098569
712.943	0.098505
713.265	0.098479
713.586	0.098360
713.907	0.098339
714.228	0.098357
714.549	0.098431
714.870	0.098519
715.191	0.098549
715.512	0.098600
715.833	0.098658
716.154	0.098598
716.475	0.098479
716.796	0.098331
717.117	0.098127
717.437	0.097874
717.758	0.097669
718.078	0.097324
718.399	0.096885
718.719	0.096505
719.040	0.096268
719.360	0.096005
719.681	0.095739
720.001	0.095552
720.321	0.095409
720.642	0.095190
720.962	0.094996
721.282	0.094842
721.602	0.094646
721.922	0.094526
722.242	0.094354
722.562	0.094119
722.882	0.094077
723.202	0.094110
723.521	0.094068
723.841	0.094085
724.161	0.094087
724.481	0.094016
724.800	0.093871
725.120	0.093826
725.439	0.093742
725.759	0.093672
726.078	0.093733
726.398	0.093713
726.717	0.093668
727.036	0.093756
727.355	0.093965
727.675	0.094119
727.994	0.094265
728.313	0.094432
728.632	0.094490
728.951	0.094498
729.270	0.094467
729.589	0.094289
729.908	0.094108
730.226	0.093932
730.545	0.093751
730.864	0.093529
731.182	0.093362
731.501	0.093320
731.820	0.093189
732.138	0.093170
732.457	0.092995
732.775	0.092786
733.093	0.092754
733.412	0.092687
733.730	0.092574
734.048	0.092352
734.367	0.092038
734.685	0.091710
735.003	0.091291
735.321	0.090982
735.639	0.090683
735.957	0.090493
736.275	0.090348
736.593	0.090224
736.910	0.090061
737.228	0.089972
737.546	0.089891
737.863	0.089804
738.181	0.089589
738.499	0.089394
738.816	0.089071
739.134	0.088865
739.451	0.088661
739.768	0.088398
740.086	0.088099
740.403	0.087792
740.720	0.087540
741.038	0.087299
741.355	0.086893
741.672	0.086609
741.989	0.086258
742.306	0.085924
742.623	0.085446
742.940	0.084946
743.257	0.084343
743.573	0.083838
743.890	0.083220
744.207	0.082652
744.523	0.082252
744.840	0.081936
745.157	0.081562
745.473	0.081165
745.790	0.080978
746.106	0.080677
746.422	0.080417
746.739	0.080136
747.055	0.079925
747.371	0.079701
747.687	0.079656
748.004	0.079731
748.320	0.079780
748.636	0.079738
748.952	0.079654
749.268	0.079736
749.584	0.079764
749.899	0.079770
750.215	0.079829
750.531	0.079797
750.847	0.079894
751.162	0.079909
751.478	0.079852
751.793	0.079808
752.109	0.079757
752.424	0.079659
752.740	0.079669
753.055	0.079627
753.370	0.079650
753.686	0.079780
754.001	0.079968
754.316	0.080184
754.631	0.080397
754.946	0.080532
755.261	0.080647
755.576	0.080720
755.891	0.080687
756.206	0.080621
756.521	0.080525
756.836	0.080424
757.150	0.080415
757.465	0.080416
757.780	0.080383
758.094	0.080427
758.409	0.080436
758.723	0.080530
759.038	0.080521
759.352	0.080495
759.667	0.080453
759.981	0.080333
760.295	0.080080
760.609	0.079787
760.923	0.079515
761.238	0.079183
761.552	0.078931
761.866	0.078692
762.180	0.078607
762.493	0.078478
762.807	0.078435
763.121	0.078365
763.435	0.078221
763.749	0.077999
764.062	0.077730
764.376	0.077433
764.689	0.077079
765.003	0.076806
765.316	0.076504
765.630	0.076408
765.943	0.076217
766.257	0.076126
766.570	0.076037
766.883	0.075881
767.196	0.075689
767.509	0.075365
767.822	0.075086
768.135	0.074793
768.448	0.074494
768.761	0.074078
769.074	0.073799
769.387	0.073460
769.700	0.073191
770.013	0.072961
770.325	0.072788
770.638	0.072666
770.950	0.072504
771.263	0.072424
771.575	0.072285
771.888	0.072058
772.200	0.071719
772.513	0.071348
772.825	0.070913
773.137	0.070534
773.449	0.070235
773.761	0.069859
774.074	0.069591
774.386	0.069278
774.698	0.068945
775.010	0.068591
775.321	0.068267
775.633	0.067896
775.945	0.067659
776.257	0.067442
776.568	0.067304
776.880	0.067220
777.192	0.067058
777.503	0.066979
777.815	0.066958
778.126	0.066924
778.438	0.067026
778.749	0.067170
779.060	0.067350
779.372	0.067451
779.683	0.067518
779.994	0.067578
780.305	0.067706
780.616	0.067803
780.927	0.067938
781.238	0.067883
781.549	0.068006
781.860	0.068062
782.171	0.068178
782.481	0.068272
782.792	0.068240
783.103	0.068247
783.413	0.068233
783.724	0.068157
784.034	0.068125
784.345	0.067983
784.655	0.067886
784.966	0.067726
785.276	0.067609
785.586	0.067445
785.896	0.067355
786.207	0.067248
786.517	0.067235
786.827	0.067169
787.137	0.067082
787.447	0.066979
787.757	0.067137
788.066	0.067095
788.376	0.067131
788.686	0.067108
788.996	0.067106
789.305	0.067176
789.615	0.067151
789.925	0.067120
790.234	0.067171
790.544	0.067174
790.853	0.067189
791.162	0.067235
791.472	0.067448
791.781	0.067595
792.090	0.067752
792.399	0.067811
792.708	0.067834
793.017	0.067789
793.326	0.067751
793.635	0.067651
793.944	0.067472
794.253	0.067179
794.562	0.067077
794.871	0.066957
795.179	0.066835
795.488	0.066716
795.797	0.066695
796.105	0.066566
796.414	0.066530
796.722	0.066413
797.031	0.066334
797.339	0.066167
797.647	0.065964
797.956	0.065493
798.264	0.064941
798.572	0.064548
798.880	0.064192
799.188	0.063896
799.496	0.063696
799.804	0.063538
800.112	0.063404
800.420	0.063357
800.728	0.063420
801.035	0.063259
801.343	0.062957
801.651	0.062540
801.958	0.062179
802.266	0.062025
802.573	0.062176
802.881	0.062300
803.188	0.062412
803.496	0.062769
803.803	0.062971
804.110	0.063153
804.417	0.063245
804.724	0.063276
805.032	0.063199
805.339	0.063189
805.646	0.063175
805.953	0.063004
806.259	0.062985
806.566	0.062838
806.873	0.062826
807.180	0.062737
807.486	0.062732
807.793	0.062862
808.100	0.063115
808.406	0.063210
808.713	0.063121
809.019	0.062866
809.326	0.062431
809.632	0.062070
809.938	0.061277
810.244	0.060853
810.551	0.060382
810.857	0.059986
811.163	0.059886
811.469	0.059756
811.775	0.059664
812.081	0.059610
812.387	0.059624
812.692	0.059571
812.998	0.059764
813.304	0.059799
813.610	0.060038
813.915	0.060024
814.221	0.059993
814.526	0.060056
814.832	0.060142
815.137	0.060248
815.443	0.060233
815.748	0.060409
816.053	0.060390
816.358	0.060434
816.664	0.060495
816.969	0.060557
817.274	0.060938
817.579	0.060893
817.884	0.060967
818.189	0.060856
818.493	0.060814
818.798	0.060813
819.103	0.060678
819.408	0.060390
819.712	0.060238
820.017	0.059815
820.321	0.059728
820.626	0.059759
820.930	0.059442
821.235	0.059245
821.539	0.058945
821.843	0.058967
822.148	0.058764
822.452	0.059031
822.756	0.059354
823.060	0.059174
823.364	0.059539
823.668	0.059406
823.972	0.059566
824.276	0.059605
824.580	0.059617
824.883	0.059850
825.187	0.060091
825.491	0.060234
825.795	0.060428
826.098	0.060540
826.402	0.060612
826.705	0.060835
827.008	0.060706
827.312	0.060714
827.615	0.060658
827.918	0.060584
828.222	0.060369
828.525	0.060497
828.828	0.060468
829.131	0.060446
829.434	0.060503
829.737	0.060049
830.040	0.059644
830.343	0.059181
830.645	0.059000
830.948	0.059004
831.251	0.058754
831.553	0.058253
831.856	0.058120
832.159	0.058443
832.461	0.058549
832.764	0.058533
833.066	0.057956
833.368	0.057670
833.671	0.057443
833.973	0.057403
834.275	0.057389
834.577	0.057424
834.879	0.057208
835.181	0.056618
835.483	0.056023
835.785	0.055540
836.087	0.055090
836.389	0.055293
836.690	0.055004
836.992	0.054332
837.294	0.053320
837.595	0.052136
837.897	0.051535
838.198	0.050527
838.500	0.049325
838.801	0.048290
839.103	0.047708
839.404	0.047422
839.705	0.047216
840.006	0.047230
840.307	0.047092
840.608	0.046693
840.910	0.046572
841.210	0.046876
841.511	0.047060
841.812	0.047174
842.113	0.047926
842.414	0.047890
842.715	0.047313
843.015	0.046374
843.316	0.046124
843.616	0.045725
843.917	0.045720
844.217	0.045442
844.518	0.045437
844.818	0.045387
845.118	0.045511
845.419	0.045792
845.719	0.046024
846.019	0.045667
846.319	0.045817
846.619	0.045406
846.919	0.045950
847.219	0.046066
847.519	0.045585
847.819	0.046053
848.118	0.045492
848.418	0.044709
848.718	0.044641
849.017	0.044509
849.317	0.045262
849.616	0.046108
849.916	0.047452
850.215	0.048432
850.515	0.049466
850.814	0.050245
851.113	0.050920
851.412	0.051569
851.712	0.051574
852.011	0.051801
852.310	0.052423
852.609	0.052490
852.908	0.052804
853.206	0.052820
853.505	0.053072
853.804	0.053176
854.103	0.053206
854.401	0.053526
854.700	0.053575
854.999	0.053674
855.297	0.053879
855.595	0.054089
855.894	0.053966
856.192	0.053823
856.491	0.053745
856.789	0.053458
857.087	0.053000
857.385	0.052426
857.683	0.051797
857.981	0.051585
858.279	0.051106
858.577	0.050336
858.875	0.049797
859.173	0.049041
859.471	0.049379
859.768	0.049338
860.066	0.048991
860.363	0.048200
860.661	0.047776
860.959	0.047912
861.256	0.047635
861.553	0.047371
861.851	0.046580
862.148	0.046293
862.445	0.046206
862.742	0.045758
863.039	0.044999
863.337	0.044589
863.634	0.044121
863.931	0.043560
864.227	0.043555
864.524	0.043406
864.821	0.043587
865.118	0.042992
865.415	0.043034
865.711	0.042068
866.008	0.040588
866.304	0.040499
866.601	0.040619
866.897	0.040214
867.194	0.039843
867.490	0.039678
867.786	0.039628
868.082	0.039815
868.379	0.039611
868.675	0.039283
868.971	0.039319
869.267	0.039392
869.563	0.039946
869.859	0.040404
870.154	0.040588
870.450	0.040260
870.746	0.040196
871.042	0.040723
871.337	0.041415
871.633	0.041246
871.928	0.041100
872.224	0.041140
872.519	0.040322
872.815	0.040058
873.110	0.040307
873.405	0.040577
873.700	0.040786
873.995	0.040939
874.291	0.041398
874.586	0.042160
874.881	0.042430
875.175	0.042484
875.470	0.042531
875.765	0.042111
876.060	0.041877
876.355	0.042479
876.649	0.042908
876.944	0.043177
877.238	0.042604
877.533	0.042820
877.827	0.043754
878.122	0.044469
878.416	0.045102
878.710	0.046266
879.005	0.046906
879.299	0.046737
879.593	0.046383
879.887	0.046152
880.181	0.045535
880.475	0.045351
880.769	0.044466
881.063	0.044236
881.356	0.043750
881.650	0.043818
881.944	0.043803
882.238	0.034049
882.531	0.038515
882.825	0.032628
883.118	0.027541
883.412	0.039656
883.705	0.026834
883.998	0.042157
884.291	0.033948
884.585	0.042550
884.878	0.037763
>>>>>>>>>> END of Data <<<<<<<<<<
>>>>>>>>>> Raw Data Start <<<<<<<<
190.664	-394
191.040	8
191.415	8
191.791	3
192.166	6
192.542	13
192.917	8
193.293	10
193.668	5
194.044	9
194.419	-9
194.794	10
195.170	11
195.545	11
195.920	11
196.296	12
196.671	12
197.046	13
197.421	13
197.796	14
198.171	15
198.546	15
198.922	15
199.297	16
199.672	16
200.047	16
200.422	17
200.796	17
201.171	17
201.546	17
201.921	17
202.296	17
202.671	17
203.045	18
203.420	18
203.795	18
204.170	18
204.544	18
204.919	18
205.294	18
205.668	18
206.043	17
206.417	17
206.792	17
207.166	17
207.541	17
207.915	17
208.289	17
208.664	17
209.038	17
209.412	17
209.787	17
210.161	17
210.535	17
210.909	17
211.284	17
211.658	17
212.032	17
212.406	17
212.780	17
213.154	16
213.528	16
213.902	16
214.276	16
214.650	16
215.024	16
215.398	16
215.772	16
216.145	16
216.519	16
216.893	16
217.267	16
217.640	16
218.014	17
218.388	17
218.761	16
219.135	17
219.508	17
219.882	17
220.256	17
220.629	17
221.003	17
221.376	17
221.749	18
222.123	18
222.496	18
222.869	18
223.243	18
223.616	18
223.989	18
224.362	19
224.736	19
225.109	19
225.482	19
225.855	19
226.228	19
226.601	19
226.974	19
227.347	19
227.720	18
228.093	18
228.466	19
228.839	18
229.212	19
229.585	18
229.957	18
230.330	18
230.703	18
231.076	18
231.448	18
231.821	18
232.194	18
232.566	19
232.939	18
233.311	18
233.684	18
234.056	18
234.429	18
234.801	18
235.174	19
235.546	19
235.918	19
236.291	19
236.663	19
237.035	19
237.408	19
237.780	19
238.152	20
238.524	20
238.896	20
239.268	20
239.641	19
240.013	19
240.385	19
240.757	19
241.129	19
241.500	19
241.872	19
242.244	19
242.616	19
242.988	19
243.360	19
243.731	19
244.103	19
244.475	19
244.847	20
245.218	19
245.590	20
245.961	20
246.333	20
246.705	20
247.076	19
247.448	20
247.819	20
248.190	20
248.562	20
248.933	20
249.305	20
249.676	21
250.047	20
250.418	20
250.790	21
251.161	20
251.532	20
251.903	20
252.274	20
252.645	20
253.016	20
253.387	20
253.758	20
254.129	20
254.500	20
254.871	21
255.242	21
255.613	21
255.984	21
256.355	20
256.725	20
257.096	21
257.467	21
257.838	21
258.208	21
258.579	21
258.949	21
259.320	21
259.690	21
260.061	22
260.431	22
260.802	22
261.172	22
261.543	21
261.913	21
262.283	21
262.654	21
263.024	21
263.394	21
263.764	21
264.135	21
264.505	22
264.875	22
265.245	21
265.615	21
265.985	21
266.355	21
266.725	21
267.095	21
267.465	21
267.835	21
268.205	21
268.575	21
268.944	21
269.314	21
269.684	21
270.054	21
270.423	20
270.793	21
271.163	21
271.532	21
271.902	21
272.271	20
272.641	20
273.010	21
273.380	21
273.749	21
274.119	21
274.488	21
274.857	21
275.227	21
275.596	21
275.965	22
276.335	22
276.704	21
277.073	21
277.442	22
277.811	22
278.180	22
278.549	22
278.918	22
279.287	23
279.656	22
280.025	23
280.394	23
280.763	23
281.132	22
281.501	22
281.869	22
282.238	22
282.607	22
282.976	22
283.344	21
283.713	21
284.081	21
284.450	21
284.819	21
285.187	21
285.556	21
285.924	21
286.292	21
286.661	21
287.029	21
287.398	21
287.766	21
288.134	21
288.502	21
288.871	21
289.239	21
289.607	21
289.975	22
290.343	22
290.711	22
291.079	22
291.447	22
291.815	22
292.183	23
292.551	22
292.919	22
293.287	23
293.655	23
294.022	23
294.390	23
294.758	22
295.126	22
295.493	22
295.861	22
296.229	22
296.596	22
296.964	22
297.331	22
297.699	22
298.066	22
298.434	22
298.801	22
299.168	22
299.536	22
299.903	22
300.270	22
300.638	23
301.005	22
301.372	22
301.739	22
302.106	23
302.473	23
302.840	23
303.207	23
303.574	23
303.941	23
304.308	23
304.675	24
305.042	24
305.409	24
305.776	25
306.143	25
306.509	25
306.876	25
307.243	26
307.610	26
307.976	26
308.343	27
308.709	27
309.076	27
309.442	28
309.809	28
310.175	29
310.542	30
310.908	31
311.275	32
311.641	33
312.007	34
312.373	35
312.740	36
313.106	37
313.472	38
313.838	39
314.204	40
314.570	42
314.936	44
315.302	46
315.668	48
316.034	49
316.400	51
316.766	53
317.132	55
317.498	57
317.864	60
318.230	62
318.595	65
318.961	67
319.327	69
319.692	72
320.058	76
320.424	79
320.789	83
321.155	87
321.520	90
321.886	94
322.251	98
322.616	103
322.982	107
323.347	112
323.712	118
324.078	123
324.443	129
324.808	135
325.173	141
325.539	146
325.904	152
326.269	158
326.634	164
326.999	170
327.364	177
327.729	182
328.094	188
328.459	195
328.823	201
329.188	207
329.553	214
329.918	221
330.283	227
330.647	233
331.012	239
331.377	246
331.741	252
332.106	259
332.470	265
332.835	272
333.199	279
333.564	286
333.928	293
334.293	300
334.657	307
335.021	314
335.386	322
335.750	329
336.114	337
336.478	344
336.843	352
337.207	359
337.571	366
337.935	373
338.299	381
338.663	389
339.027	396
339.391	403
339.755	411
340.119	418
340.483	426
340.846	433
341.210	440
341.574	447
341.938	454
342.301	460
342.665	467
343.029	474
343.392	481
343.756	488
344.119	495
344.483	501
344.846	507
345.210	514
345.573	521
345.937	527
346.300	532
346.663	538
347.027	544
347.390	550
347.753	556
348.116	562
348.479	568
348.843	573
349.206	579
349.569	584
349.932	590
350.295	595
350.658	599
351.021	604
351.383	609
351.746	613
352.109	618
352.472	622
352.835	627
353.197	632
353.560	636
353.923	641
354.285	645
354.648	649
355.011	654
355.373	657
355.736	661
356.098	665
356.461	670
356.823	674
357.185	677
357.548	680
357.910	684
358.272	689
358.635	693
358.997	698
359.359	701
359.721	705
360.083	709
360.445	713
360.807	716
361.169	720
361.531	723
361.893	727
362.255	731
362.617	734
362.979	738
363.341	742
363.703	746
364.064	750
364.426	754
364.788	758
365.149	762
365.511	766
365.873	769
366.234	772
366.596	774
366.957	776
367.319	778
367.680	781
368.042	783
368.403	785
368.764	787
369.126	789
369.487	791
369.848	792
370.209	794
370.570	795
370.931	796
371.293	797
371.654	799
372.015	800
372.376	801
372.737	802
373.098	804
373.458	806
373.819	808
374.180	811
374.541	813
374.902	817
375.263	821
375.623	825
375.984	828
376.345	832
376.705	835
377.066	838
377.426	842
377.787	845
378.147	848
378.508	851
378.868	854
379.228	857
379.589	860
379.949	863
380.309	866
380.670	869
381.030	871
381.390	874
381.750	876
382.110	878
382.470	880
382.830	881
383.190	883
383.550	885
383.910	888
384.270	891
384.630	895
384.990	900
385.350	903
385.709	908
386.069	911
386.429	914
386.788	917
387.148	919
387.508	922
387.867	926
388.227	930
388.586	935
388.946	941
389.305	947
389.665	954
390.024	961
390.383	968
390.743	973
391.102	978
391.461	982
391.820	986
392.179	989
392.539	991
392.898	995
393.257	999
393.616	1003
393.975	1010
394.334	1018
394.693	1027
395.051	1036
395.410	1045
395.769	1052
396.128	1056
396.487	1061
396.845	1064
397.204	1067
397.563	1068
397.921	1070
398.280	1072
398.638	1075
398.997	1078
399.355	1081
399.714	1084
400.072	1087
400.431	1092
400.789	1095
401.147	1100
401.506	1104
401.864	1106
402.222	1109
402.580	1109
402.938	1109
403.297	1109
403.655	1109
404.013	1110
404.371	1110
404.729	1111
405.087	1114
405.444	1117
405.802	1120
406.160	1124
406.518	1127
406.876	1130
407.233	1133
407.591	1136
407.949	1138
408.306	1140
408.664	1143
409.022	1145
409.379	1148
409.737	1151
410.094	1155
410.451	1159
410.809	1164
411.166	1170
411.523	1175
411.881	1180
412.238	1186
412.595	1190
412.952	1193
413.310	1197
413.667	1199
414.024	1204
414.381	1207
414.738	1212
415.095	1217
415.452	1222
415.809	1227
416.165	1231
416.522	1237
416.879	1243
417.236	1251
417.593	1261
417.949	1273
418.306	1286
418.663	1300
419.019	1316
419.376	1332
419.732	1346
420.089	1359
420.445	1373
420.802	1387
421.158	1399
421.514	1409
421.871	1419
422.227	1428
422.583	1436
422.939	1444
423.295	1451
423.652	1459
424.008	1466
424.364	1472
424.720	1476
425.076	1480
425.432	1484
425.788	1487
426.143	1493
426.499	1501
426.855	1509
427.211	1516
427.567	1525
427.922	1532
428.278	1536
428.634	1539
428.989	1544
429.345	1549
429.700	1556
430.056	1565
430.411	1574
430.767	1585
431.122	1594
431.478	1603
431.833	1610
432.188	1617
432.543	1623
432.899	1628
433.254	1631
433.609	1632
433.964	1631
434.319	1631
434.674	1632
435.029	1634
435.384	1638
435.739	1644
436.094	1654
436.449	1664
436.804	1678
437.158	1692
437.513	1707
437.868	1726
438.223	1744
438.577	1764
438.932	1786
439.287	1808
439.641	1830
439.996	1853
440.350	1874
440.704	1896
441.059	1917
441.413	1940
441.768	1961
442.122	1981
442.476	2001
442.830	2020
443.185	2039
443.539	2057
443.893	2075
444.247	2088
444.601	2100
444.955	2108
445.309	2111
445.663	2114
446.017	2116
446.371	2117
446.724	2116
447.078	2115
447.432	2111
447.786	2108
448.139	2103
448.493	2098
448.847	2091
449.200	2084
449.554	2077
449.907	2070
450.261	2063
450.614	2055
450.968	2049
451.321	2042
451.674	2038
452.027	2031
452.381	2027
452.734	2025
453.087	2022
453.440	2021
453.793	2021
454.146	2024
454.499	2031
454.852	2041
455.205	2052
455.558	2064
455.911	2076
456.264	2089
456.617	2101
456.970	2112
457.322	2122
457.675	2131
458.028	2139
458.380	2145
458.733	2149
459.086	2154
459.438	2163
459.791	2171
460.143	2183
460.496	2199
460.848	2215
461.200	2235
461.553	2256
461.905	2276
462.257	2292
462.609	2306
462.961	2318
463.314	2329
463.666	2338
464.018	2344
464.370	2350
464.722	2359
465.074	2368
465.426	2375
465.777	2382
466.129	2386
466.481	2388
466.833	2387
467.184	2383
467.536	2376
467.888	2366
468.239	2356
468.591	2345
468.943	2335
469.294	2328
469.646	2324
469.997	2324
470.348	2329
470.700	2339
471.051	2354
471.402	2373
471.754	2398
472.105	2423
472.456	2450
472.807	2483
473.158	2518
473.509	2557
473.860	2601
474.211	2644
474.562	2692
474.913	2740
475.264	2791
475.615	2841
475.966	2891
476.316	2938
476.667	2987
477.018	3036
477.368	3087
477.719	3137
478.070	3184
478.420	3229
478.771	3274
479.121	3317
479.472	3359
479.822	3404
480.172	3453
480.523	3511
480.873	3594
481.223	3734
481.573	3947
481.924	4215
482.274	4517
482.624	4834
482.974	5151
483.324	5425
483.674	5633
484.024	5771
484.374	5862
484.724	5916
485.073	5952
485.423	5981
485.773	6008
486.123	6032
486.472	6056
486.822	6078
487.172	6096
487.521	6107
487.871	6107
488.220	6080
488.570	5992
488.919	5832
489.268	5615
489.618	5364
489.967	5095
490.316	4824
490.666	4589
491.015	4418
491.364	4312
491.713	4254
492.062	4230
492.411	4224
492.760	4227
493.109	4232
493.458	4239
493.807	4242
494.156	4243
494.505	4244
494.853	4247
495.202	4254
495.551	4267
495.900	4280
496.248	4295
496.597	4311
496.945	4324
497.294	4338
497.642	4353
497.991	4372
498.339	4396
498.688	4422
499.036	4446
499.384	4467
499.732	4486
500.081	4498
500.429	4509
500.777	4518
501.125	4525
501.473	4534
501.821	4544
502.169	4552
502.517	4557
502.865	4557
503.213	4554
503.561	4549
503.908	4542
504.256	4533
504.604	4523
504.952	4511
505.299	4497
505.647	4478
505.994	4456
506.342	4434
506.689	4411
507.037	4390
507.384	4373
507.732	4359
508.079	4345
508.426	4333
508.774	4322
509.121	4307
509.468	4293
509.815	4277
510.162	4262
510.509	4248
510.856	4231
511.203	4213
511.550	4198
511.897	4182
512.244	4166
512.591	4150
512.938	4135
513.284	4121
513.631	4104
513.978	4087
514.324	4068
514.671	4050
515.018	4030
515.364	4012
515.711	3996
516.057	3978
516.403	3962
516.750	3944
517.096	3924
517.443	3903
517.789	3881
518.135	3861
518.481	3843
518.827	3825
519.173	3806
519.519	3789
519.865	3772
520.211	3756
520.557	3741
520.903	3727
521.249	3714
521.595	3703
521.941	3690
522.287	3678
522.632	3666
522.978	3655
523.324	3646
523.669	3638
524.015	3633
524.360	3634
524.706	3639
525.051	3648
525.397	3660
525.742	3674
526.087	3687
526.433	3701
526.778	3712
527.123	3719
527.468	3724
527.813	3728
528.158	3733
528.504	3740
528.849	3752
529.193	3771
529.538	3793
529.883	3823
530.228	3858
530.573	3898
530.918	3939
531.263	3980
531.607	4017
531.952	4050
532.296	4075
532.641	4094
532.986	4107
533.330	4120
533.675	4133
534.019	4153
534.363	4181
534.708	4215
535.052	4254
535.396	4297
535.741	4338
536.085	4373
536.429	4403
536.773	4427
537.117	4443
537.461	4455
537.805	4464
538.149	4476
538.493	4489
538.837	4503
539.181	4523
539.524	4551
539.868	4585
540.212	4625
540.556	4667
540.899	4712
541.243	4749
541.586	4779
541.930	4799
542.273	4811
542.617	4816
542.960	4823
543.304	4836
543.647	4856
543.990	4886
544.333	4921
544.677	4957
545.020	4991
545.363	5016
545.706	5032
546.049	5040
546.392	5038
546.735	5027
547.078	5012
547.421	4998
547.764	4986
548.106	4977
548.449	4973
548.792	4979
549.135	4994
549.477	5015
549.820	5036
550.162	5051
550.505	5059
550.847	5059
551.190	5052
551.532	5042
551.875	5030
552.217	5022
552.559	5018
552.901	5022
553.244	5032
553.586	5045
553.928	5060
554.270	5072
554.612	5078
554.954	5079
555.296	5076
555.638	5072
555.980	5068
556.322	5067
556.663	5077
557.005	5097
557.347	5129
557.689	5165
558.030	5199
558.372	5230
558.713	5255
559.055	5278
559.396	5299
559.738	5323
560.079	5350
560.421	5384
560.762	5427
561.103	5476
561.444	5533
561.786	5592
562.127	5658
562.468	5730
562.809	5810
563.150	5901
563.491	5999
563.832	6108
564.173	6236
564.514	6385
564.855	6566
565.195	6793
565.536	7069
565.877	7393
566.218	7763
566.558	8183
566.899	8644
567.239	9141
567.580	9661
567.920	10196
568.261	10733
568.601	11283
568.941	11850
569.282	12432
569.622	13035
569.962	13660
570.302	14325
570.643	15010
570.983	15695
571.323	16353
571.663	16984
572.003	17578
572.343	18128
572.683	18637
573.022	19151
573.362	19689
573.702	20243
574.042	20793
574.381	21316
574.721	21810
575.061	22277
575.400	22695
575.740	23060
576.079	23378
576.419	23692
576.758	24053
577.097	24487
577.437	24965
577.776	25476
578.115	26014
578.454	26558
578.794	27053
579.133	27424
579.472	27663
579.811	27777
580.150	27777
580.489	27686
580.828	27553
581.167	27423
581.505	27315
581.844	27220
582.183	27127
582.522	27057
582.860	27004
583.199	26953
583.538	26864
583.876	26692
584.215	26407
584.553	25997
584.891	25474
585.230	24845
585.568	24160
585.906	23468
586.245	22845
586.583	22307
586.921	21860
587.259	21454
587.597	21049
587.935	20632
588.273	20203
588.611	19802
588.949	19443
589.287	19136
589.625	18888
589.963	18685
590.300	18518
590.638	18363
590.976	18194
591.313	18005
591.651	17823
591.989	17663
592.326	17530
592.664	17412
593.001	17314
593.338	17246
593.676	17203
594.013	17192
594.350	17236
594.687	17325
595.025	17426
595.362	17516
595.699	17572
596.036	17600
596.373	17589
596.710	17531
597.047	17445
597.384	17345
597.720	17237
598.057	17146
598.394	17075
598.731	17026
599.067	17007
599.404	17019
599.741	17072
600.077	17152
600.414	17245
600.750	17345
601.087	17416
601.423	17443
601.759	17431
602.096	17386
602.432	17321
602.768	17229
603.104	17107
603.440	16960
603.776	16806
604.112	16640
604.448	16472
604.784	16294
605.120	16107
605.456	15926
605.792	15738
606.128	15540
606.463	15337
606.799	15133
607.135	14947
607.470	14764
607.806	14582
608.142	14405
608.477	14235
608.812	14070
609.148	13906
609.483	13734
609.819	13560
610.154	13392
610.489	13237
610.824	13101
611.159	12985
611.494	12868
611.830	12765
612.165	12664
612.500	12551
612.834	12422
613.169	12277
613.504	12119
613.839	11944
614.174	11747
614.509	11549
614.843	11352
615.178	11164
615.512	10978
615.847	10796
616.182	10616
616.516	10434
616.850	10240
617.185	10042
617.519	9840
617.853	9624
618.188	9401
618.522	9196
618.856	9022
619.190	8869
619.524	8735
619.858	8627
620.192	8541
620.526	8464
620.860	8388
621.194	8314
621.528	8242
621.862	8171
622.195	8086
622.529	7997
622.863	7904
623.196	7812
623.530	7717
623.864	7624
624.197	7529
624.530	7437
624.864	7353
625.197	7267
625.531	7170
625.864	7054
626.197	6930
626.530	6796
626.863	6646
627.196	6483
627.529	6319
627.862	6157
628.195	5997
628.528	5838
628.861	5686
629.194	5550
629.527	5419
629.860	5291
630.192	5164
630.525	5047
630.858	4937
631.190	4832
631.523	4731
631.855	4636
632.188	4553
632.520	4477
632.852	4403
633.185	4328
633.517	4256
633.849	4191
634.182	4130
634.514	4073
634.846	4022
635.178	3976
635.510	3936
635.842	3899
636.174	3863
636.506	3827
636.837	3792
637.169	3758
637.501	3720
637.833	3680
638.164	3636
638.496	3587
638.828	3531
639.159	3470
639.491	3402
639.822	3333
640.154	3263
640.485	3194
640.816	3126
641.147	3058
641.479	2993
641.810	2930
642.141	2868
642.472	2809
642.803	2748
643.134	2692
643.465	2643
643.796	2604
644.127	2576
644.458	2561
644.789	2559
645.119	2572
645.450	2594
645.781	2619
646.111	2644
646.442	2666
646.773	2683
647.103	2696
647.433	2708
647.764	2720
648.094	2736
648.425	2757
648.755	2783
649.085	2813
649.415	2844
649.745	2876
650.075	2909
650.405	2947
650.735	3030
651.065	3636
651.395	5511
651.725	8594
652.055	12228
652.385	15857
652.715	19486
653.044	23116
653.374	26752
653.704	30394
654.033	33387
654.363	35288
654.692	36552
655.022	37377
655.351	37919
655.680	38256
656.010	38439
656.339	38521
656.668	38544
656.997	38534
657.326	38500
657.655	38407
657.984	37781
658.313	35874
658.642	32751
658.971	29065
659.300	25379
659.629	21693
659.958	18008
660.286	14322
660.615	10639
660.944	7611
661.272	5679
661.601	4387
661.929	3531
662.258	2953
662.586	2574
662.915	2342
663.243	2208
663.571	2132
663.899	2085
664.228	2056
664.556	2036
664.884	2023
665.212	2013
665.540	2005
665.868	2000
666.196	1997
666.524	1995
666.852	1996
667.179	2003
667.507	2018
667.835	2039
668.162	2068
668.490	2104
668.818	2147
669.145	2192
669.473	2236
669.800	2277
670.127	2313
670.455	2343
670.782	2368
671.109	2391
671.436	2409
671.764	2423
672.091	2436
672.418	2446
672.745	2455
673.072	2464
673.399	2474
673.726	2486
674.053	2495
674.379	2497
674.706	2495
675.033	2493
675.359	2489
675.686	2483
676.013	2479
676.339	2480
676.666	2487
676.992	2505
677.318	2529
677.645	2557
677.971	2583
678.297	2607
678.624	2631
678.950	2653
679.276	2674
679.602	2694
679.928	2715
680.254	2741
680.580	2774
680.906	2817
681.232	2870
681.558	2925
681.883	2980
682.209	3031
682.535	3077
682.860	3120
683.186	3156
683.511	3184
683.837	3201
684.162	3215
684.488	3226
684.813	3238
685.138	3248
685.464	3257
685.789	3264
686.114	3272
686.439	3282
686.764	3293
687.089	3301
687.414	3301
687.739	3289
688.064	3269
688.389	3243
688.714	3212
689.039	3179
689.363	3145
689.688	3106
690.013	3069
690.337	3037
690.662	3009
690.986	2984
691.311	2960
691.635	2934
691.959	2911
692.284	2895
692.608	2891
692.932	2895
693.256	2904
693.580	2915
693.904	2930
694.228	2948
694.552	2964
694.876	2971
695.200	2968
695.524	2955
695.848	2935
696.172	2911
696.495	2886
696.819	2859
697.143	2832
697.466	2804
697.790	2780
698.113	2764
698.437	2755
698.760	2754
699.083	2752
699.407	2743
699.730	2728
700.053	2706
700.376	2675
700.699	2632
701.022	2577
701.345	2518
701.668	2462
701.991	2416
702.314	2384
702.637	2369
702.960	2373
703.283	2398
703.605	2441
703.928	2499
704.251	2565
704.573	2631
704.896	2690
705.218	2738
705.540	2777
705.863	2807
706.185	2833
706.507	2855
706.830	2875
707.152	2896
707.474	2919
707.796	2945
708.118	2972
708.440	2999
708.762	3022
709.084	3041
709.406	3050
709.728	3052
710.049	3045
710.371	3031
710.693	3011
711.014	2989
711.336	2967
711.658	2947
711.979	2929
712.301	2913
712.622	2896
712.943	2875
713.265	2850
713.586	2824
713.907	2800
714.228	2778
714.549	2760
714.870	2748
715.191	2742
715.512	2740
715.833	2736
716.154	2728
716.475	2716
716.796	2699
717.117	2673
717.437	2643
717.758	2609
718.078	2574
718.399	2541
718.719	2511
719.040	2485
719.360	2465
719.681	2450
720.001	2441
720.321	2436
720.642	2433
720.962	2435
721.282	2441
721.602	2448
721.922	2457
722.242	2469
722.562	2485
722.882	2503
723.202	2520
723.521	2536
723.841	2552
724.161	2569
724.481	2587
724.800	2605
725.120	2627
725.439	2655
725.759	2687
726.078	2721
726.398	2764
726.717	2818
727.036	2877
727.355	2940
727.675	3002
727.994	3060
728.313	3117
728.632	3165
728.951	3206
729.270	3241
729.589	3274
729.908	3314
730.226	3360
730.545	3410
730.864	3464
731.182	3523
731.501	3582
731.820	3638
732.138	3687
732.457	3730
732.775	3770
733.093	3802
733.412	3820
733.730	3825
734.048	3817
734.367	3800
734.685	3778
735.003	3752
735.321	3728
735.639	3709
735.957	3693
736.275	3679
736.593	3659
736.910	3629
737.228	3585
737.546	3530
737.863	3465
738.181	3393
738.499	3318
738.816	3244
739.134	3171
739.451	3097
739.768	3023
740.086	2952
740.403	2886
740.720	2824
741.038	2767
741.355	2712
741.672	2656
741.989	2600
742.306	2541
742.623	2481
742.940	2423
743.257	2369
743.573	2321
743.890	2282
744.207	2254
744.523	2234
744.840	2220
745.157	2212
745.473	2211
745.790	2218
746.106	2235
746.422	2261
746.739	2294
747.055	2333
747.371	2377
747.687	2423
748.004	2467
748.320	2505
748.636	2540
748.952	2575
749.268	2609
749.584	2642
749.899	2672
750.215	2703
750.531	2738
750.847	2777
751.162	2816
751.478	2854
751.793	2894
752.109	2936
752.424	2982
752.740	3028
753.055	3080
753.370	3144
753.686	3216
754.001	3295
754.316	3378
754.631	3465
754.946	3558
755.261	3656
755.576	3751
755.891	3842
756.206	3933
756.521	4029
756.836	4127
757.150	4220
757.465	4303
757.780	4374
758.094	4433
758.409	4479
758.723	4508
759.038	4521
759.352	4522
759.667	4509
759.981	4486
760.295	4465
760.609	4448
760.923	4437
761.238	4431
761.552	4428
761.866	4422
762.180	4412
762.493	4389
762.807	4343
763.121	4273
763.435	4185
763.749	4089
764.062	3998
764.376	3923
764.689	3871
765.003	3844
765.316	3840
765.630	3853
765.943	3876
766.257	3902
766.570	3923
766.883	3929
767.196	3919
767.509	3894
767.822	3857
768.135	3809
768.448	3757
768.761	3703
769.074	3655
769.387	3619
769.700	3597
770.013	3583
770.325	3572
770.638	3556
770.950	3527
771.263	3479
771.575	3413
771.888	3328
772.200	3230
772.513	3125
772.825	3014
773.137	2900
773.449	2788
773.761	2679
774.074	2578
774.386	2489
774.698	2414
775.010	2352
775.321	2308
775.633	2279
775.945	2263
776.257	2254
776.568	2251
776.880	2258
777.192	2275
777.503	2300
777.815	2331
778.126	2370
778.438	2418
778.749	2470
779.060	2520
779.372	2567
779.683	2612
779.994	2654
780.305	2686
780.616	2708
780.927	2722
781.238	2727
781.549	2720
781.860	2702
782.171	2677
782.481	2649
782.792	2622
783.103	2594
783.413	2564
783.724	2532
784.034	2501
784.345	2473
784.655	2447
784.966	2421
785.276	2393
785.586	2367
785.896	2339
786.207	2311
786.517	2281
786.827	2252
787.137	2225
787.447	2198
787.757	2171
788.066	2147
788.376	2123
788.686	2100
788.996	2076
789.305	2052
789.615	2032
789.925	2022
790.234	2019
790.544	2024
790.853	2034
791.162	2045
791.472	2053
791.781	2057
792.090	2052
792.399	2040
792.708	2020
793.017	1998
793.326	1976
793.635	1957
793.944	1939
794.253	1924
794.562	1912
794.871	1905
795.179	1900
795.488	1894
795.797	1883
796.105	1866
796.414	1838
796.722	1801
797.031	1752
797.339	1694
797.647	1629
797.956	1561
798.264	1497
798.572	1445
798.880	1404
799.188	1374
799.496	1352
799.804	1336
800.112	1323
800.420	1312
800.728	1301
801.035	1288
801.343	1272
801.651	1261
801.958	1258
802.266	1263
802.573	1273
802.881	1286
803.188	1302
803.496	1320
803.803	1339
804.110	1356
804.417	1372
804.724	1385
805.032	1398
805.339	1408
805.646	1415
805.953	1419
806.259	1420
806.566	1418
806.873	1412
807.180	1405
807.486	1398
807.793	1389
808.100	1374
808.406	1351
808.713	1320
809.019	1284
809.326	1248
809.632	1213
809.938	1181
810.244	1151
810.551	1127
810.857	1106
811.163	1087
811.469	1068
811.775	1047
812.081	1025
812.387	1006
812.692	990
812.998	978
813.304	968
813.610	960
813.915	954
814.221	948
814.526	944
814.832	940
815.137	935
815.443	930
815.748	920
816.053	908
816.358	895
816.664	883
816.969	872
817.274	863
817.579	855
817.884	851
818.189	850
818.493	849
818.798	847
819.103	841
819.408	833
819.712	823
820.017	813
820.321	802
820.626	790
820.930	780
821.235	773
821.539	770
821.843	770
822.148	772
822.452	773
822.756	772
823.060	770
823.364	764
823.668	758
823.972	750
824.276	742
824.580	735
824.883	731
825.187	730
825.491	729
825.795	729
826.098	729
826.402	728
826.705	725
827.008	720
827.312	712
827.615	700
827.918	686
828.222	669
828.525	652
828.828	636
829.131	620
829.434	604
829.737	589
830.040	577
830.343	567
830.645	558
830.948	549
831.251	541
831.553	534
831.856	528
832.159	522
832.461	514
832.764	507
833.066	500
833.368	495
833.671	490
833.973	487
834.275	483
834.577	480
834.879	476
835.181	471
835.483	466
835.785	460
836.087	452
836.389	442
836.690	431
836.992	419
837.294	407
837.595	394
837.897	380
838.198	367
838.500	354
838.801	343
839.103	333
839.404	324
839.705	317
840.006	311
840.307	306
840.608	302
840.910	300
841.210	298
841.511	296
841.812	293
842.113	289
842.414	284
842.715	279
843.015	274
843.316	268
843.616	262
843.917	257
844.217	253
844.518	249
844.818	245
845.118	244
845.419	242
845.719	240
846.019	239
846.319	238
846.619	237
846.919	236
847.219	235
847.519	233
847.819	232
848.118	232
848.418	235
848.718	242
849.017	253
849.317	270
849.616	289
849.916	312
850.215	337
850.515	364
850.814	390
851.113	415
851.412	437
851.712	457
852.011	475
852.310	493
852.609	508
852.908	521
853.206	534
853.505	545
853.804	555
854.103	563
854.401	569
854.700	572
854.999	569
855.297	562
855.595	550
855.894	535
856.192	515
856.491	493
856.789	468
857.087	443
857.385	420
857.683	399
857.981	380
858.279	363
858.577	346
858.875	331
859.173	319
859.471	309
859.768	301
860.066	294
860.363	288
860.661	283
860.959	279
861.256	276
861.553	272
861.851	267
862.148	261
862.445	256
862.742	251
863.039	247
863.337	243
863.634	240
863.931	239
864.227	237
864.524	237
864.821	237
865.118	236
865.415	234
865.711	231
866.008	227
866.304	223
866.601	218
866.897	215
867.194	211
867.490	209
867.786	208
868.082	208
868.379	208
868.675	209
868.971	209
869.267	209
869.563	209
869.859	208
870.154	207
870.450	206
870.746	205
871.042	204
871.337	204
871.633	204
871.928	205
872.224	206
872.519	208
872.815	210
873.110	210
873.405	210
873.700	209
873.995	208
874.291	208
874.586	209
874.881	210
875.175	212
875.470	215
875.765	219
876.060	223
876.355	227
876.649	232
876.944	236
877.238	240
877.533	244
877.827	246
878.122	248
878.416	249
878.710	248
879.005	247
879.299	246
879.593	245
879.887	244
880.181	244
880.475	242
880.769	241
881.063	239
881.356	236
881.650	233
881.944	229
882.238	192
882.531	183
882.825	182
883.118	187
883.412	185
883.705	187
883.998	187
884.291	196
884.585	193
884.878	203
>>>>>>>>>> END of Data <<<<<<<<<<