Date	2021年06月15日火曜日 04時42分14秒
Spectrometers	USB2+H05879
ダーク	使用
リファレンス	使用
積分時間[msec]	10
平均回数	280
ｽﾑｰｼﾞﾝｸﾞ	10
Electrical Dark	USE
ピクセル数	2048
計測モード	吸光度
保存開始波長[nm]	190.664
保存終了波長[nm]	884.878
保存ﾋﾟｯﾁ波長[nm]	全波長

>>>>>>>>>> Data Start <<<<<<<<<<<<
190.664	0.000000
191.040	0.000000
191.415	0.000000
191.791	-2.409885
192.166	-0.571513
192.542	-0.767368
192.917	0.000000
193.293	-0.219719
193.668	-0.438483
194.044	-1.011748
194.419	0.000000
194.794	-1.337301
195.170	-1.256102
195.545	-1.164120
195.920	-1.028849
196.296	-0.914585
196.671	-0.768086
197.046	-0.620668
197.421	-0.577682
197.796	-0.575110
198.171	-0.535612
198.546	-0.496017
198.922	-0.446330
199.297	-0.426179
199.672	-0.405439
200.047	-0.388306
200.422	-0.359097
200.796	-0.349271
201.171	-0.333988
201.546	-0.337729
201.921	-0.331016
202.296	-0.321035
202.671	-0.300203
203.045	-0.273512
203.420	-0.259950
203.795	-0.250919
204.170	-0.248847
204.544	-0.239948
204.919	-0.238738
205.294	-0.232487
205.668	-0.218530
206.043	-0.214320
206.417	-0.218042
206.792	-0.205546
207.166	-0.200583
207.541	-0.200543
207.915	-0.208404
208.289	-0.198388
208.664	-0.193983
209.038	-0.185949
209.412	-0.164477
209.787	-0.146191
210.161	-0.139692
210.535	-0.141375
210.909	-0.137337
211.284	-0.134404
211.658	-0.139059
212.032	-0.129260
212.406	-0.141709
212.780	-0.135341
213.154	-0.136216
213.528	-0.134600
213.902	-0.130393
214.276	-0.125984
214.650	-0.135120
215.024	-0.128207
215.398	-0.131573
215.772	-0.121159
216.145	-0.122129
216.519	-0.113179
216.893	-0.112526
217.267	-0.123134
217.640	-0.125578
218.014	-0.113167
218.388	-0.101555
218.761	-0.107102
219.135	-0.102751
219.508	-0.107241
219.882	-0.121050
220.256	-0.111697
220.629	-0.106647
221.003	-0.110395
221.376	-0.110349
221.749	-0.112295
222.123	-0.109237
222.496	-0.106980
222.869	-0.102971
223.243	-0.091915
223.616	-0.093093
223.989	-0.094071
224.362	-0.095096
224.736	-0.099314
225.109	-0.093508
225.482	-0.088928
225.855	-0.090026
226.228	-0.097828
226.601	-0.092643
226.974	-0.092815
227.347	-0.084215
227.720	-0.077427
228.093	-0.079805
228.466	-0.086889
228.839	-0.086600
229.212	-0.089114
229.585	-0.099568
229.957	-0.104148
230.330	-0.100413
230.703	-0.101556
231.076	-0.106946
231.448	-0.109659
231.821	-0.111699
232.194	-0.109140
232.566	-0.109378
232.939	-0.115898
233.311	-0.124444
233.684	-0.124569
234.056	-0.127168
234.429	-0.125368
234.801	-0.127934
235.174	-0.120056
235.546	-0.115740
235.918	-0.113130
236.291	-0.113991
236.663	-0.104180
237.035	-0.099191
237.408	-0.080986
237.780	-0.067754
238.152	-0.075127
238.524	-0.082647
238.896	-0.079805
239.268	-0.071880
239.641	-0.069373
240.013	-0.059587
240.385	-0.055877
240.757	-0.056011
241.129	-0.047765
241.500	-0.053069
241.872	-0.045066
242.244	-0.044898
242.616	-0.044309
242.988	-0.051424
243.360	-0.049725
243.731	-0.041463
244.103	-0.039168
244.475	-0.040765
244.847	-0.040209
245.218	-0.042346
245.590	-0.039384
245.961	-0.032754
246.333	-0.028736
246.705	-0.027929
247.076	-0.028244
247.448	-0.026180
247.819	-0.035027
248.190	-0.029494
248.562	-0.031999
248.933	-0.029661
249.305	-0.023794
249.676	-0.017886
250.047	-0.022369
250.418	-0.020817
250.790	-0.016882
251.161	-0.018875
251.532	-0.024439
251.903	-0.019980
252.274	-0.016476
252.645	-0.013896
253.016	-0.016404
253.387	-0.022651
253.758	-0.021760
254.129	-0.023478
254.500	-0.020653
254.871	-0.019295
255.242	-0.026679
255.613	-0.028859
255.984	-0.033897
256.355	-0.027870
256.725	-0.027549
257.096	-0.027507
257.467	-0.029746
257.838	-0.026173
258.208	-0.023028
258.579	-0.023425
258.949	-0.021283
259.320	-0.018244
259.690	-0.018210
260.061	-0.017002
260.431	-0.015364
260.802	-0.012182
261.172	-0.015783
261.543	-0.011762
261.913	-0.006385
262.283	-0.010694
262.654	-0.013534
263.024	-0.006709
263.394	-0.002601
263.764	-0.000723
264.135	-0.003523
264.505	-0.006868
264.875	-0.003421
265.245	-0.004309
265.615	-0.004455
265.985	-0.001783
266.355	0.004767
266.725	0.005018
267.095	0.008129
267.465	0.011698
267.835	0.005401
268.205	0.000034
268.575	-0.000998
268.944	0.006825
269.314	0.001564
269.684	0.002878
270.054	0.002349
270.423	0.005142
270.793	0.007336
271.163	0.011698
271.532	0.012236
271.902	0.018961
272.271	0.024097
272.641	0.024843
273.010	0.018742
273.380	0.010999
273.749	0.009170
274.119	0.012557
274.488	0.015309
274.857	0.009494
275.227	0.007093
275.596	0.010087
275.965	0.018179
276.335	0.019489
276.704	0.020096
277.073	0.027298
277.442	0.029379
277.811	0.032463
278.180	0.035648
278.549	0.029376
278.918	0.025783
279.287	0.030102
279.656	0.030882
280.025	0.026168
280.394	0.015327
280.763	0.021861
281.132	0.034087
281.501	0.037262
281.869	0.028863
282.238	0.030714
282.607	0.031968
282.976	0.029839
283.344	0.029535
283.713	0.023799
284.081	0.023275
284.450	0.024240
284.819	0.020247
285.187	0.022382
285.556	0.024902
285.924	0.022599
286.292	0.020840
286.661	0.021194
287.029	0.019149
287.398	0.023008
287.766	0.024240
288.134	0.031741
288.502	0.031283
288.871	0.029085
289.239	0.027949
289.607	0.032810
289.975	0.030974
290.343	0.032576
290.711	0.035668
291.079	0.037305
291.447	0.037445
291.815	0.039092
292.183	0.039715
292.551	0.044259
292.919	0.047596
293.287	0.049321
293.655	0.054624
294.022	0.059860
294.390	0.062399
294.758	0.066094
295.126	0.065323
295.493	0.073587
295.861	0.080549
296.229	0.084618
296.596	0.089395
296.964	0.095558
297.331	0.097454
297.699	0.098653
298.066	0.103062
298.434	0.103608
298.801	0.108088
299.168	0.110512
299.536	0.115522
299.903	0.113653
300.270	0.109169
300.638	0.111211
301.005	0.112700
301.372	0.116481
301.739	0.124660
302.106	0.131220
302.473	0.140602
302.840	0.147060
303.207	0.159383
303.574	0.177054
303.941	0.186106
304.308	0.196005
304.675	0.205901
305.042	0.221284
305.409	0.243451
305.776	0.261909
306.143	0.280771
306.509	0.300613
306.876	0.333504
307.243	0.354330
307.610	0.381389
307.976	0.407860
308.343	0.435455
308.709	0.464742
309.076	0.494755
309.442	0.520533
309.809	0.546177
310.175	0.572855
310.542	0.602018
310.908	0.621098
311.275	0.644177
311.641	0.671113
312.007	0.696894
312.373	0.727215
312.740	0.755586
313.106	0.777533
313.472	0.806509
313.838	0.836751
314.204	0.861620
314.570	0.875831
314.936	0.894320
315.302	0.918231
315.668	0.940973
316.034	0.966926
316.400	1.000383
316.766	1.020960
317.132	1.050775
317.498	1.075760
317.864	1.097682
318.230	1.114495
318.595	1.134190
318.961	1.148727
319.327	1.171389
319.692	1.187937
320.058	1.195761
320.424	1.209877
320.789	1.227660
321.155	1.243312
321.520	1.259271
321.886	1.279040
322.251	1.296242
322.616	1.313344
322.982	1.325428
323.347	1.339578
323.712	1.350518
324.078	1.353703
324.443	1.357904
324.808	1.364909
325.173	1.372149
325.539	1.379641
325.904	1.389268
326.269	1.396261
326.634	1.405602
326.999	1.411507
327.364	1.421060
327.729	1.430675
328.094	1.437709
328.459	1.442068
328.823	1.444079
329.188	1.450742
329.553	1.450908
329.918	1.455853
330.283	1.461213
330.647	1.467629
331.012	1.470336
331.377	1.473442
331.741	1.478114
332.106	1.486319
332.470	1.488695
332.835	1.491509
333.199	1.493616
333.564	1.497727
333.928	1.503118
334.293	1.505690
334.657	1.507211
335.021	1.508211
335.386	1.512115
335.750	1.514012
336.114	1.517039
336.478	1.520773
336.843	1.519501
337.207	1.523111
337.571	1.526142
337.935	1.528786
338.299	1.528750
338.663	1.529972
339.027	1.530423
339.391	1.530462
339.755	1.530450
340.119	1.530482
340.483	1.531354
340.846	1.534604
341.210	1.536681
341.574	1.536028
341.938	1.536548
342.301	1.537887
342.665	1.541422
343.029	1.542421
343.392	1.543747
343.756	1.543361
344.119	1.544020
344.483	1.545629
344.846	1.545486
345.210	1.546972
345.573	1.546808
345.937	1.546588
346.300	1.548059
346.663	1.549232
347.027	1.551118
347.390	1.552955
347.753	1.554192
348.116	1.554480
348.479	1.554237
348.843	1.553274
349.206	1.554632
349.569	1.553689
349.932	1.554463
350.295	1.552461
350.658	1.551934
351.021	1.552535
351.383	1.554213
351.746	1.554862
352.109	1.555083
352.472	1.555432
352.835	1.554627
353.197	1.554625
353.560	1.556483
353.923	1.554705
354.285	1.554776
354.648	1.554182
355.011	1.552804
355.373	1.553003
355.736	1.553906
356.098	1.553929
356.461	1.554789
356.823	1.554417
357.185	1.556631
357.548	1.556341
357.910	1.556660
358.272	1.556424
358.635	1.555130
358.997	1.554781
359.359	1.555363
359.721	1.555249
360.083	1.556281
360.445	1.557108
360.807	1.557548
361.169	1.556864
361.531	1.558928
361.893	1.559042
362.255	1.560071
362.617	1.561410
362.979	1.562081
363.341	1.560534
363.703	1.560494
364.064	1.560353
364.426	1.561054
364.788	1.560496
365.149	1.561254
365.511	1.561260
365.873	1.562046
366.234	1.563267
366.596	1.563850
366.957	1.563435
367.319	1.564249
367.680	1.563995
368.042	1.562333
368.403	1.562237
368.764	1.562983
369.126	1.562398
369.487	1.562787
369.848	1.561708
370.209	1.561736
370.570	1.561067
370.931	1.561736
371.293	1.561519
371.654	1.561820
372.015	1.562250
372.376	1.563343
372.737	1.562948
373.098	1.562542
373.458	1.562298
373.819	1.562582
374.180	1.563267
374.541	1.563788
374.902	1.563873
375.263	1.564566
375.623	1.565005
375.984	1.566273
376.345	1.565833
376.705	1.567150
377.066	1.567791
377.426	1.568283
377.787	1.568072
378.147	1.569145
378.508	1.569808
378.868	1.570004
379.228	1.569291
379.589	1.568585
379.949	1.567575
380.309	1.567631
380.670	1.568290
381.030	1.567480
381.390	1.566727
381.750	1.565862
382.110	1.565435
382.470	1.565005
382.830	1.563843
383.190	1.564609
383.550	1.563992
383.910	1.564533
384.270	1.563881
384.630	1.563285
384.990	1.563287
385.350	1.563009
385.709	1.562334
386.069	1.562186
386.429	1.561854
386.788	1.562814
387.148	1.562952
387.508	1.563344
387.867	1.563198
388.227	1.563379
388.586	1.564133
388.946	1.564755
389.305	1.564990
389.665	1.565130
390.024	1.565581
390.383	1.566170
390.743	1.565971
391.102	1.565305
391.461	1.564418
391.820	1.563891
392.179	1.562569
392.539	1.562029
392.898	1.562097
393.257	1.561521
393.616	1.561942
393.975	1.561886
394.334	1.561122
394.693	1.560914
395.051	1.561107
395.410	1.560817
395.769	1.560587
396.128	1.560845
396.487	1.559534
396.845	1.558595
397.204	1.557673
397.563	1.555919
397.921	1.555027
398.280	1.554105
398.638	1.553069
398.997	1.552201
399.355	1.550755
399.714	1.551135
400.072	1.549851
400.431	1.548268
400.789	1.547213
401.147	1.545327
401.506	1.543728
401.864	1.542325
402.222	1.540294
402.580	1.537683
402.938	1.536311
403.297	1.534323
403.655	1.532251
404.013	1.531018
404.371	1.529789
404.729	1.527908
405.087	1.526456
405.444	1.525011
405.802	1.523065
406.160	1.522346
406.518	1.520848
406.876	1.519459
407.233	1.517495
407.591	1.516767
407.949	1.515724
408.306	1.514188
408.664	1.512726
409.022	1.511729
409.379	1.510205
409.737	1.508881
410.094	1.507185
410.451	1.505484
410.809	1.504294
411.166	1.502402
411.523	1.501388
411.881	1.500087
412.238	1.499209
412.595	1.497578
412.952	1.495846
413.310	1.494080
413.667	1.492328
414.024	1.491140
414.381	1.490155
414.738	1.488205
415.095	1.485772
415.452	1.483512
415.809	1.481440
416.165	1.479452
416.522	1.477090
416.879	1.474635
417.236	1.472249
417.593	1.470162
417.949	1.468083
418.306	1.465757
418.663	1.464482
419.019	1.462297
419.376	1.459956
419.732	1.457555
420.089	1.455881
420.445	1.453787
420.802	1.452267
421.158	1.450242
421.514	1.447540
421.871	1.445165
422.227	1.442716
422.583	1.440640
422.939	1.438407
423.295	1.436386
423.652	1.434443
424.008	1.432044
424.364	1.429770
424.720	1.427980
425.076	1.425706
425.432	1.422902
425.788	1.420489
426.143	1.417093
426.499	1.413769
426.855	1.410827
427.211	1.407957
427.567	1.404801
427.922	1.402320
428.278	1.398289
428.634	1.395426
428.989	1.392647
429.345	1.389650
429.700	1.386917
430.056	1.384277
430.411	1.381820
430.767	1.378754
431.122	1.375499
431.478	1.372495
431.833	1.369327
432.188	1.365616
432.543	1.362707
432.899	1.359535
433.254	1.355901
433.609	1.352728
433.964	1.350056
434.319	1.346466
434.674	1.342734
435.029	1.339036
435.384	1.335059
435.739	1.332241
436.094	1.328637
436.449	1.325352
436.804	1.322092
437.158	1.318692
437.513	1.314843
437.868	1.310700
438.223	1.307004
438.577	1.303476
438.932	1.300110
439.287	1.296511
439.641	1.293100
439.996	1.289381
440.350	1.285585
440.704	1.282033
441.059	1.278124
441.413	1.273691
441.768	1.270010
442.122	1.266734
442.476	1.263255
442.830	1.259546
443.185	1.255897
443.539	1.252338
443.893	1.248594
444.247	1.244494
444.601	1.240790
444.955	1.236879
445.309	1.233053
445.663	1.228886
446.017	1.224764
446.371	1.220340
446.724	1.216256
447.078	1.212129
447.432	1.207827
447.786	1.203909
448.139	1.199615
448.493	1.195622
448.847	1.191395
449.200	1.187227
449.554	1.182986
449.907	1.178809
450.261	1.174473
450.614	1.170139
450.968	1.165755
451.321	1.161348
451.674	1.157341
452.027	1.152949
452.381	1.148955
452.734	1.144702
453.087	1.140832
453.440	1.136195
453.793	1.132046
454.146	1.127911
454.499	1.123756
454.852	1.119408
455.205	1.115255
455.558	1.111128
455.911	1.107014
456.264	1.103182
456.617	1.098933
456.970	1.095131
457.322	1.091459
457.675	1.088062
458.028	1.084451
458.380	1.080972
458.733	1.077546
459.086	1.073981
459.438	1.070721
459.791	1.066982
460.143	1.063456
460.496	1.059734
460.848	1.056199
461.200	1.052535
461.553	1.048781
461.905	1.045378
462.257	1.041866
462.609	1.038323
462.961	1.034963
463.314	1.031439
463.666	1.028239
464.018	1.025161
464.370	1.021834
464.722	1.018666
465.074	1.015236
465.426	1.012350
465.777	1.009324
466.129	1.006278
466.481	1.003501
466.833	1.000596
467.184	0.997864
467.536	0.994784
467.888	0.991690
468.239	0.988460
468.591	0.984956
468.943	0.981599
469.294	0.977935
469.646	0.974549
469.997	0.970959
470.348	0.967495
470.700	0.964359
471.051	0.961036
471.402	0.957845
471.754	0.954832
472.105	0.951907
472.456	0.949139
472.807	0.946103
473.158	0.943483
473.509	0.941206
473.860	0.938508
474.211	0.935993
474.562	0.933575
474.913	0.931018
475.264	0.928699
475.615	0.926353
475.966	0.924154
476.316	0.921574
476.667	0.919015
477.018	0.916601
477.368	0.914191
477.719	0.911875
478.070	0.909411
478.420	0.906992
478.771	0.904577
479.121	0.902174
479.472	0.899854
479.822	0.897509
480.172	0.895278
480.523	0.892695
480.873	0.889775
481.223	0.886674
481.573	0.883476
481.924	0.880231
482.274	0.877356
482.624	0.874583
482.974	0.872287
483.324	0.870320
483.674	0.868700
484.024	0.867128
484.374	0.865617
484.724	0.864076
485.073	0.862528
485.423	0.861027
485.773	0.859498
486.123	0.857922
486.472	0.856365
486.822	0.854714
487.172	0.853199
487.521	0.851565
487.871	0.850055
488.220	0.848483
488.570	0.846796
488.919	0.844732
489.268	0.842450
489.618	0.839804
489.967	0.836817
490.316	0.833396
490.666	0.829761
491.015	0.826213
491.364	0.822948
491.713	0.819870
492.062	0.817167
492.411	0.814581
492.760	0.812096
493.109	0.809608
493.458	0.807257
493.807	0.804828
494.156	0.802441
494.505	0.799903
494.853	0.797407
495.202	0.794888
495.551	0.792403
495.900	0.789971
496.248	0.787506
496.597	0.785100
496.945	0.782668
497.294	0.780305
497.642	0.777912
497.991	0.775446
498.339	0.772930
498.688	0.770599
499.036	0.768314
499.384	0.766064
499.732	0.763780
500.081	0.761473
500.429	0.759175
500.777	0.756915
501.125	0.754682
501.473	0.752490
501.821	0.750289
502.169	0.748225
502.517	0.746104
502.865	0.744061
503.213	0.741874
503.561	0.739783
503.908	0.737606
504.256	0.735495
504.604	0.733408
504.952	0.731255
505.299	0.729069
505.647	0.726994
505.994	0.724899
506.342	0.722731
506.689	0.720583
507.037	0.718369
507.384	0.716139
507.732	0.713957
508.079	0.711813
508.426	0.709793
508.774	0.707703
509.121	0.705654
509.468	0.703672
509.815	0.701638
510.162	0.699522
510.509	0.697498
510.856	0.695527
511.203	0.693599
511.550	0.691586
511.897	0.689520
512.244	0.687651
512.591	0.685723
512.938	0.683851
513.284	0.681932
513.631	0.680020
513.978	0.678013
514.324	0.676096
514.671	0.674259
515.018	0.672355
515.364	0.670495
515.711	0.668406
516.057	0.666340
516.403	0.664406
516.750	0.662532
517.096	0.660670
517.443	0.658844
517.789	0.657002
518.135	0.655098
518.481	0.653195
518.827	0.651434
519.173	0.649673
519.519	0.647738
519.865	0.645925
520.211	0.644070
520.557	0.642097
520.903	0.640129
521.249	0.638219
521.595	0.636269
521.941	0.634154
522.287	0.632147
522.632	0.629990
522.978	0.628145
523.324	0.626267
523.669	0.624289
524.015	0.622188
524.360	0.620053
524.706	0.618038
525.051	0.616049
525.397	0.614045
525.742	0.612053
526.087	0.610086
526.433	0.608148
526.778	0.606340
527.123	0.604425
527.468	0.602442
527.813	0.600639
528.158	0.598788
528.504	0.596910
528.849	0.594919
529.193	0.593031
529.538	0.591060
529.883	0.589027
530.228	0.586754
530.573	0.584672
530.918	0.582615
531.263	0.580575
531.607	0.578612
531.952	0.576672
532.296	0.574690
532.641	0.572764
532.986	0.570728
533.330	0.568673
533.675	0.566663
534.019	0.564553
534.363	0.562406
534.708	0.560333
535.052	0.558250
535.396	0.556228
535.741	0.554300
536.085	0.552345
536.429	0.550280
536.773	0.548218
537.117	0.546131
537.461	0.544007
537.805	0.541754
538.149	0.539427
538.493	0.537048
538.837	0.534804
539.181	0.532357
539.524	0.530016
539.868	0.527686
540.212	0.525413
540.556	0.523078
540.899	0.520773
541.243	0.518499
541.586	0.516299
541.930	0.514043
542.273	0.511726
542.617	0.509371
542.960	0.506803
543.304	0.504197
543.647	0.501674
543.990	0.499120
544.333	0.496504
544.677	0.494025
545.020	0.491542
545.363	0.489069
545.706	0.486683
546.049	0.484199
546.392	0.481779
546.735	0.479328
547.078	0.476827
547.421	0.474282
547.764	0.471743
548.106	0.469023
548.449	0.466272
548.792	0.463537
549.135	0.460762
549.477	0.458066
549.820	0.455469
550.162	0.452926
550.505	0.450434
550.847	0.447759
551.190	0.444945
551.532	0.442137
551.875	0.439196
552.217	0.436177
552.559	0.433291
552.901	0.430366
553.244	0.427506
553.586	0.424777
553.928	0.422148
554.270	0.419579
554.612	0.417028
554.954	0.414462
555.296	0.411859
555.638	0.409237
555.980	0.406360
556.322	0.403451
556.663	0.400408
557.005	0.397293
557.347	0.394207
557.689	0.391169
558.030	0.388238
558.372	0.385364
558.713	0.382534
559.055	0.379724
559.396	0.376898
559.738	0.373960
560.079	0.371020
560.421	0.368109
560.762	0.365299
561.103	0.362439
561.444	0.359660
561.786	0.356894
562.127	0.354189
562.468	0.351468
562.809	0.348646
563.150	0.345816
563.491	0.342888
563.832	0.339819
564.173	0.336691
564.514	0.333518
564.855	0.330202
565.195	0.326874
565.536	0.323524
565.877	0.320189
566.218	0.316905
566.558	0.313785
566.899	0.310803
567.239	0.307996
567.580	0.305419
567.920	0.303015
568.261	0.300856
568.601	0.298784
568.941	0.296828
569.282	0.294943
569.622	0.293094
569.962	0.291236
570.302	0.289428
570.643	0.287686
570.983	0.286049
571.323	0.284491
571.663	0.282975
572.003	0.281473
572.343	0.279962
572.683	0.278342
573.022	0.276651
573.362	0.274851
573.702	0.273068
574.042	0.271308
574.381	0.269618
574.721	0.267951
575.061	0.266352
575.400	0.264855
575.740	0.263375
576.079	0.261908
576.419	0.260345
576.758	0.258684
577.097	0.256970
577.437	0.255182
577.776	0.253342
578.115	0.251505
578.454	0.249756
578.794	0.248211
579.133	0.246856
579.472	0.245617
579.811	0.244499
580.150	0.243375
580.489	0.242237
580.828	0.240969
581.167	0.239646
581.505	0.238294
581.844	0.236981
582.183	0.235624
582.522	0.234263
582.860	0.232976
583.199	0.231730
583.538	0.230566
583.876	0.229451
584.215	0.228351
584.553	0.227251
584.891	0.226179
585.230	0.225098
585.568	0.223965
585.906	0.222711
586.245	0.221430
586.583	0.220170
586.921	0.219007
587.259	0.217972
587.597	0.216993
587.935	0.216009
588.273	0.214927
588.611	0.213699
588.949	0.212338
589.287	0.210965
589.625	0.209587
589.963	0.208224
590.300	0.206938
590.638	0.205771
590.976	0.204615
591.313	0.203456
591.651	0.202270
591.989	0.201083
592.326	0.199944
592.664	0.198889
593.001	0.197918
593.338	0.197002
593.676	0.196175
594.013	0.195339
594.350	0.194515
594.687	0.193730
595.025	0.192973
595.362	0.192217
595.699	0.191459
596.036	0.190672
596.373	0.189883
596.710	0.189054
597.047	0.188219
597.384	0.187366
597.720	0.186466
598.057	0.185586
598.394	0.184698
598.731	0.183811
599.067	0.182920
599.404	0.182049
599.741	0.181183
600.077	0.180329
600.414	0.179554
600.750	0.178850
601.087	0.178230
601.423	0.177568
601.759	0.176907
602.096	0.176220
602.432	0.175585
602.768	0.174892
603.104	0.174209
603.440	0.173521
603.776	0.172878
604.112	0.172218
604.448	0.171605
604.784	0.171011
605.120	0.170440
605.456	0.169861
605.792	0.169315
606.128	0.168761
606.463	0.168207
606.799	0.167617
607.135	0.167030
607.470	0.166455
607.806	0.165850
608.142	0.165213
608.477	0.164632
608.812	0.164047
609.148	0.163495
609.483	0.162908
609.819	0.162341
610.154	0.161774
610.489	0.161182
610.824	0.160578
611.159	0.160008
611.494	0.159417
611.830	0.158908
612.165	0.158438
612.500	0.157998
612.834	0.157584
613.169	0.157166
613.504	0.156681
613.839	0.156211
614.174	0.155732
614.509	0.155240
614.843	0.154757
615.178	0.154288
615.512	0.153884
615.847	0.153469
616.182	0.153070
616.516	0.152686
616.850	0.152324
617.185	0.151955
617.519	0.151579
617.853	0.151223
618.188	0.150754
618.522	0.150255
618.856	0.149668
619.190	0.149098
619.524	0.148577
619.858	0.148042
620.192	0.147581
620.526	0.147136
620.860	0.146779
621.194	0.146411
621.528	0.146021
621.862	0.145617
622.195	0.145278
622.529	0.144786
622.863	0.144375
623.196	0.143960
623.530	0.143612
623.864	0.143196
624.197	0.142805
624.530	0.142431
624.864	0.142047
625.197	0.141787
625.531	0.141522
625.864	0.141253
626.197	0.140890
626.530	0.140504
626.863	0.140102
627.196	0.139653
627.529	0.139270
627.862	0.138815
628.195	0.138386
628.528	0.137935
628.861	0.137493
629.194	0.137015
629.527	0.136659
629.860	0.136256
630.192	0.135842
630.525	0.135371
630.858	0.134994
631.190	0.134553
631.523	0.134097
631.855	0.133513
632.188	0.132936
632.520	0.132432
632.852	0.131920
633.185	0.131533
633.517	0.131150
633.849	0.130759
634.182	0.130450
634.514	0.130213
634.846	0.129920
635.178	0.129656
635.510	0.129423
635.842	0.129159
636.174	0.128896
636.506	0.128633
636.837	0.128346
637.169	0.128118
637.501	0.127830
637.833	0.127594
638.164	0.127344
638.496	0.127027
638.828	0.126788
639.159	0.126466
639.491	0.126111
639.822	0.125732
640.154	0.125225
640.485	0.124730
640.816	0.124272
641.147	0.123816
641.479	0.123185
641.810	0.122701
642.141	0.122230
642.472	0.121733
642.803	0.121275
643.134	0.120810
643.465	0.120283
643.796	0.119935
644.127	0.119537
644.458	0.119145
644.789	0.118805
645.119	0.118531
645.450	0.118542
645.781	0.118637
646.111	0.118842
646.442	0.118983
646.773	0.119034
647.103	0.119124
647.433	0.119144
647.764	0.119100
648.094	0.118978
648.425	0.119003
648.755	0.118938
649.085	0.118839
649.415	0.118771
649.745	0.118847
650.075	0.118875
650.405	0.118850
650.735	0.117373
651.065	0.108450
651.395	0.100304
651.725	0.087744
652.055	0.060031
652.385	0.044293
652.715	0.034145
653.044	0.027060
653.374	0.021856
653.704	0.017889
654.033	0.024370
654.363	0.030029
654.692	0.033319
655.022	0.035274
655.351	0.036456
655.680	0.037158
656.010	0.037530
656.339	0.037693
656.668	0.037726
656.997	0.037689
657.326	0.037615
657.655	0.037524
657.984	0.037073
658.313	0.034377
658.642	0.031300
658.971	0.036324
659.300	0.042739
659.629	0.051219
659.958	0.062946
660.286	0.080227
660.615	0.108269
660.944	0.116196
661.272	0.114569
661.601	0.113385
661.929	0.112571
662.258	0.112222
662.586	0.111898
662.915	0.111660
663.243	0.111234
663.571	0.110800
663.899	0.110405
664.228	0.109998
664.556	0.109745
664.884	0.109515
665.212	0.109374
665.540	0.109118
665.868	0.108933
666.196	0.108798
666.524	0.108647
666.852	0.108441
667.179	0.108303
667.507	0.108153
667.835	0.108029
668.162	0.107919
668.490	0.107784
668.818	0.107771
669.145	0.107789
669.473	0.107800
669.800	0.107831
670.127	0.107895
670.455	0.107922
670.782	0.108045
671.109	0.108032
671.436	0.108074
671.764	0.108137
672.091	0.108111
672.418	0.108144
672.745	0.108215
673.072	0.108222
673.399	0.108167
673.726	0.108164
674.053	0.108121
674.379	0.108105
674.706	0.108051
675.033	0.107868
675.359	0.107683
675.686	0.107513
676.013	0.107296
676.339	0.107154
676.666	0.106902
676.992	0.106702
677.318	0.106532
677.645	0.106291
677.971	0.106262
678.297	0.106149
678.624	0.106041
678.950	0.105925
679.276	0.105804
679.602	0.105508
679.928	0.105226
680.254	0.104998
680.580	0.104734
680.906	0.104533
681.232	0.104406
681.558	0.104405
681.883	0.104538
682.209	0.104683
682.535	0.104727
682.860	0.104723
683.186	0.104714
683.511	0.104631
683.837	0.104560
684.162	0.104473
684.488	0.104409
684.813	0.104274
685.138	0.104135
685.464	0.103960
685.789	0.103798
686.114	0.103639
686.439	0.103570
686.764	0.103520
687.089	0.103459
687.414	0.103459
687.739	0.103387
688.064	0.103301
688.389	0.103187
688.714	0.103006
689.039	0.102759
689.363	0.102585
689.688	0.102425
690.013	0.102134
690.337	0.102006
690.662	0.101922
690.986	0.101804
691.311	0.101660
691.635	0.101538
691.959	0.101426
692.284	0.101178
692.608	0.100989
692.932	0.100786
693.256	0.100686
693.580	0.100602
693.904	0.100423
694.228	0.100307
694.552	0.100289
694.876	0.100274
695.200	0.100212
695.524	0.100060
695.848	0.099968
696.172	0.099684
696.495	0.099380
696.819	0.099208
697.143	0.098857
697.466	0.098467
697.790	0.098076
698.113	0.097813
698.437	0.097502
698.760	0.097175
699.083	0.097111
699.407	0.096925
699.730	0.096818
700.053	0.096669
700.376	0.096521
700.699	0.096316
701.022	0.095973
701.345	0.095521
701.668	0.094885
701.991	0.094244
702.314	0.093478
702.637	0.092676
702.960	0.092070
703.283	0.091561
703.605	0.091008
703.928	0.090732
704.251	0.090497
704.573	0.090423
704.896	0.090250
705.218	0.090113
705.540	0.089936
705.863	0.089661
706.185	0.089345
706.507	0.088921
706.830	0.088405
707.152	0.087835
707.474	0.087348
707.796	0.086861
708.118	0.086399
708.440	0.086128
708.762	0.085881
709.084	0.085743
709.406	0.085638
709.728	0.085458
710.049	0.085270
710.371	0.085108
710.693	0.084859
711.014	0.084539
711.336	0.084200
711.658	0.083909
711.979	0.083631
712.301	0.083395
712.622	0.083224
712.943	0.083100
713.265	0.082919
713.586	0.082797
713.907	0.082714
714.228	0.082739
714.549	0.082688
714.870	0.082762
715.191	0.082691
715.512	0.082629
715.833	0.082589
716.154	0.082444
716.475	0.082307
716.796	0.082117
717.117	0.081860
717.437	0.081535
717.758	0.081177
718.078	0.080786
718.399	0.080422
718.719	0.079974
719.040	0.079624
719.360	0.079188
719.681	0.078817
720.001	0.078617
720.321	0.078395
720.642	0.078111
720.962	0.077707
721.282	0.077518
721.602	0.077303
721.922	0.077170
722.242	0.076904
722.562	0.076666
722.882	0.076472
723.202	0.076386
723.521	0.076193
723.841	0.076100
724.161	0.076050
724.481	0.076068
724.800	0.075949
725.120	0.075802
725.439	0.075764
725.759	0.075625
726.078	0.075569
726.398	0.075542
726.717	0.075504
727.036	0.075504
727.355	0.075667
727.675	0.075848
727.994	0.076003
728.313	0.076067
728.632	0.076140
728.951	0.076234
729.270	0.076201
729.589	0.076073
729.908	0.075871
730.226	0.075673
730.545	0.075494
730.864	0.075271
731.182	0.075060
731.501	0.074906
731.820	0.074811
732.138	0.074734
732.457	0.074577
732.775	0.074470
733.093	0.074382
733.412	0.074241
733.730	0.074123
734.048	0.073934
734.367	0.073640
734.685	0.073338
735.003	0.072983
735.321	0.072657
735.639	0.072328
735.957	0.072045
736.275	0.071822
736.593	0.071714
736.910	0.071638
737.228	0.071585
737.546	0.071514
737.863	0.071457
738.181	0.071304
738.499	0.071050
738.816	0.070809
739.134	0.070624
739.451	0.070404
739.768	0.070183
740.086	0.069962
740.403	0.069704
740.720	0.069434
741.038	0.069217
741.355	0.068912
741.672	0.068684
741.989	0.068343
742.306	0.067978
742.623	0.067615
742.940	0.067217
743.257	0.066658
743.573	0.066158
743.890	0.065607
744.207	0.065046
744.523	0.064502
744.840	0.064157
745.157	0.063909
745.473	0.063561
745.790	0.063364
746.106	0.063033
746.422	0.062747
746.739	0.062490
747.055	0.062273
747.371	0.062016
747.687	0.061959
748.004	0.062036
748.320	0.062042
748.636	0.062073
748.952	0.062076
749.268	0.062133
749.584	0.062251
749.899	0.062361
750.215	0.062424
750.531	0.062366
750.847	0.062440
751.162	0.062519
751.478	0.062519
751.793	0.062506
752.109	0.062421
752.424	0.062340
752.740	0.062328
753.055	0.062280
753.370	0.062332
753.686	0.062425
754.001	0.062755
754.316	0.063017
754.631	0.063182
754.946	0.063296
755.261	0.063426
755.576	0.063573
755.891	0.063620
756.206	0.063604
756.521	0.063514
756.836	0.063478
757.150	0.063509
757.465	0.063534
757.780	0.063588
758.094	0.063739
758.409	0.063814
758.723	0.063994
759.038	0.064021
759.352	0.064050
759.667	0.064069
759.981	0.064020
760.295	0.063910
760.609	0.063649
760.923	0.063413
761.238	0.063168
761.552	0.062999
761.866	0.062844
762.180	0.062729
762.493	0.062726
762.807	0.062686
763.121	0.062699
763.435	0.062604
763.749	0.062450
764.062	0.062294
764.376	0.062090
764.689	0.061764
765.003	0.061505
765.316	0.061284
765.630	0.061278
765.943	0.061191
766.257	0.061175
766.570	0.061090
766.883	0.060940
767.196	0.060780
767.509	0.060555
767.822	0.060374
768.135	0.060132
768.448	0.059905
768.761	0.059594
769.074	0.059355
769.387	0.059067
769.700	0.058827
770.013	0.058676
770.325	0.058592
770.638	0.058505
770.950	0.058361
771.263	0.058236
771.575	0.058100
771.888	0.057877
772.200	0.057583
772.513	0.057281
772.825	0.056943
773.137	0.056653
773.449	0.056462
773.761	0.056204
774.074	0.056015
774.386	0.055722
774.698	0.055542
775.010	0.055213
775.321	0.054977
775.633	0.054590
775.945	0.054484
776.257	0.054398
776.568	0.054298
776.880	0.054177
777.192	0.054105
777.503	0.054062
777.815	0.054073
778.126	0.054123
778.438	0.054196
778.749	0.054370
779.060	0.054588
779.372	0.054703
779.683	0.054820
779.994	0.054995
780.305	0.055108
780.616	0.055217
780.927	0.055382
781.238	0.055397
781.549	0.055530
781.860	0.055676
782.171	0.055818
782.481	0.055915
782.792	0.055922
783.103	0.055935
783.413	0.056036
783.724	0.055998
784.034	0.055977
784.345	0.055898
784.655	0.055837
784.966	0.055668
785.276	0.055575
785.586	0.055440
785.896	0.055324
786.207	0.055302
786.517	0.055271
786.827	0.055302
787.137	0.055276
787.447	0.055191
787.757	0.055339
788.066	0.055299
788.376	0.055317
788.686	0.055327
788.996	0.055366
789.305	0.055367
789.615	0.055434
789.925	0.055297
790.234	0.055221
790.544	0.055366
790.853	0.055500
791.162	0.055662
791.472	0.055989
791.781	0.056156
792.090	0.056348
792.399	0.056384
792.708	0.056361
793.017	0.056264
793.326	0.056182
793.635	0.056158
793.944	0.056058
794.253	0.055727
794.562	0.055547
794.871	0.055362
795.179	0.055217
795.488	0.055160
795.797	0.055100
796.105	0.054936
796.414	0.055102
796.722	0.055184
797.031	0.055035
797.339	0.054899
797.647	0.054584
797.956	0.054180
798.264	0.053712
798.572	0.053270
798.880	0.052980
799.188	0.052696
799.496	0.052503
799.804	0.052308
800.112	0.052006
800.420	0.051919
800.728	0.051964
801.035	0.051950
801.343	0.051762
801.651	0.051455
801.958	0.051037
802.266	0.050830
802.573	0.050965
802.881	0.050873
803.188	0.050780
803.496	0.050926
803.803	0.051059
804.110	0.051232
804.417	0.051309
804.724	0.051292
805.032	0.051374
805.339	0.051445
805.646	0.051395
805.953	0.051201
806.259	0.051126
806.566	0.051048
806.873	0.051062
807.180	0.051085
807.486	0.051095
807.793	0.051188
808.100	0.051321
808.406	0.051419
808.713	0.051444
809.019	0.051066
809.326	0.050762
809.632	0.050527
809.938	0.049924
810.244	0.049521
810.551	0.049168
810.857	0.048714
811.163	0.048541
811.469	0.048136
811.775	0.047971
812.081	0.047923
812.387	0.047916
812.692	0.047953
812.998	0.048089
813.304	0.048000
813.610	0.048051
813.915	0.048089
814.221	0.048101
814.526	0.048036
814.832	0.048005
815.137	0.048038
815.443	0.048094
815.748	0.048043
816.053	0.048125
816.358	0.048142
816.664	0.048181
816.969	0.048137
817.274	0.048268
817.579	0.048321
817.884	0.048338
818.189	0.048335
818.493	0.048364
818.798	0.048447
819.103	0.048341
819.408	0.047970
819.712	0.047761
820.017	0.047436
820.321	0.047247
820.626	0.047030
820.930	0.046706
821.235	0.046438
821.539	0.046266
821.843	0.046295
822.148	0.046054
822.452	0.046062
822.756	0.046276
823.060	0.046213
823.364	0.046456
823.668	0.046495
823.972	0.046503
824.276	0.046669
824.580	0.046332
824.883	0.046348
825.187	0.046402
825.491	0.046494
825.795	0.046737
826.098	0.046684
826.402	0.046738
826.705	0.046639
827.008	0.046514
827.312	0.046660
827.615	0.046523
827.918	0.046323
828.222	0.045802
828.525	0.045860
828.828	0.045725
829.131	0.045482
829.434	0.045291
829.737	0.044584
830.040	0.043951
830.343	0.043331
830.645	0.042802
830.948	0.042680
831.251	0.042403
831.553	0.041853
831.856	0.041386
832.159	0.041349
832.461	0.041279
832.764	0.041140
833.066	0.041028
833.368	0.041229
833.671	0.041042
833.973	0.041226
834.275	0.041027
834.577	0.041272
834.879	0.041046
835.181	0.040402
835.483	0.039863
835.785	0.039424
836.087	0.039191
836.389	0.039337
836.690	0.039019
836.992	0.038306
837.294	0.037566
837.595	0.036395
837.897	0.035621
838.198	0.034826
838.500	0.033927
838.801	0.033600
839.103	0.032718
839.404	0.032103
839.705	0.031036
840.006	0.030543
840.307	0.030129
840.608	0.029941
840.910	0.029703
841.210	0.029907
841.511	0.030177
841.812	0.031062
842.113	0.031158
842.414	0.030941
842.715	0.030445
843.015	0.029518
843.316	0.029153
843.616	0.028665
843.917	0.028410
844.217	0.027908
844.518	0.027763
844.818	0.027587
845.118	0.027012
845.419	0.027411
845.719	0.027421
846.019	0.027204
846.319	0.027217
846.619	0.027181
846.919	0.027207
847.219	0.027409
847.519	0.026682
847.819	0.026448
848.118	0.025175
848.418	0.025063
848.718	0.024358
849.017	0.024107
849.317	0.024347
849.616	0.024348
849.916	0.024894
850.215	0.025528
850.515	0.026592
850.814	0.027144
851.113	0.027159
851.412	0.027714
851.712	0.027749
852.011	0.027700
852.310	0.028218
852.609	0.028358
852.908	0.028525
853.206	0.028601
853.505	0.028940
853.804	0.029018
854.103	0.029199
854.401	0.029311
854.700	0.029253
854.999	0.029209
855.297	0.029098
855.595	0.029192
855.894	0.029378
856.192	0.029354
856.491	0.029134
856.789	0.028599
857.087	0.028068
857.385	0.027895
857.683	0.027322
857.981	0.026801
858.279	0.026691
858.577	0.025822
858.875	0.025228
859.173	0.023996
859.471	0.023893
859.768	0.023201
860.066	0.022460
860.363	0.021518
860.661	0.020835
860.959	0.020726
861.256	0.020992
861.553	0.021239
861.851	0.020332
862.148	0.019631
862.445	0.019207
862.742	0.018943
863.039	0.018417
863.337	0.017855
863.634	0.016914
863.931	0.015903
864.227	0.015410
864.524	0.014709
864.821	0.014843
865.118	0.014393
865.415	0.014564
865.711	0.013448
866.008	0.012211
866.304	0.012314
866.601	0.012081
866.897	0.012098
867.194	0.011774
867.490	0.011523
867.786	0.010865
868.082	0.011107
868.379	0.010837
868.675	0.010732
868.971	0.010364
869.267	0.010676
869.563	0.011129
869.859	0.011276
870.154	0.011604
870.450	0.011818
870.746	0.011729
871.042	0.011537
871.337	0.011585
871.633	0.011344
871.928	0.011487
872.224	0.011472
872.519	0.010753
872.815	0.010707
873.110	0.010544
873.405	0.010203
873.700	0.010127
873.995	0.009929
874.291	0.010185
874.586	0.010834
874.881	0.010725
875.175	0.010983
875.470	0.010516
875.765	0.009985
876.060	0.010194
876.355	0.010136
876.649	0.010073
876.944	0.010284
877.238	0.010032
877.533	0.010014
877.827	0.010140
878.122	0.010487
878.416	0.010513
878.710	0.011610
879.005	0.011409
879.299	0.011217
879.593	0.010818
879.887	0.010044
880.181	0.009910
880.475	0.009842
880.769	0.009320
881.063	0.009367
881.356	0.009054
881.650	0.008714
881.944	0.008360
882.238	0.002124
882.531	0.005138
882.825	-0.007993
883.118	0.002892
883.412	0.008725
883.705	-0.000018
883.998	0.010788
884.291	0.007599
884.585	-0.001122
884.878	-0.002221
>>>>>>>>>> END of Data <<<<<<<<<<
>>>>>>>>>> Raw Data Start <<<<<<<<
190.664	-400
191.040	8
191.415	8
191.791	5
192.166	8
192.542	7
192.917	7
193.293	5
193.668	6
194.044	8
194.419	-11
194.794	9
195.170	9
195.545	9
195.920	9
196.296	9
196.671	10
197.046	11
197.421	12
197.796	12
198.171	13
198.546	13
198.922	13
199.297	14
199.672	14
200.047	15
200.422	15
200.796	15
201.171	15
201.546	16
201.921	15
202.296	16
202.671	16
203.045	16
203.420	16
203.795	17
204.170	17
204.544	17
204.919	16
205.294	16
205.668	16
206.043	16
206.417	16
206.792	16
207.166	16
207.541	16
207.915	15
208.289	16
208.664	15
209.038	15
209.412	15
209.787	15
210.161	15
210.535	15
210.909	15
211.284	15
211.658	15
212.032	15
212.406	15
212.780	15
213.154	15
213.528	14
213.902	14
214.276	15
214.650	15
215.024	15
215.398	15
215.772	15
216.145	15
216.519	15
216.893	15
217.267	15
217.640	15
218.014	15
218.388	16
218.761	15
219.135	16
219.508	16
219.882	16
220.256	16
220.629	16
221.003	16
221.376	17
221.749	17
222.123	17
222.496	16
222.869	16
223.243	16
223.616	16
223.989	16
224.362	16
224.736	17
225.109	17
225.482	17
225.855	16
226.228	16
226.601	16
226.974	16
227.347	16
227.720	16
228.093	16
228.466	16
228.839	16
229.212	16
229.585	16
229.957	16
230.330	16
230.703	16
231.076	17
231.448	17
231.821	16
232.194	16
232.566	16
232.939	16
233.311	16
233.684	17
234.056	17
234.429	17
234.801	17
235.174	17
235.546	17
235.918	17
236.291	17
236.663	17
237.035	17
237.408	17
237.780	17
238.152	17
238.524	17
238.896	17
239.268	17
239.641	17
240.013	17
240.385	17
240.757	17
241.129	17
241.500	17
241.872	17
242.244	17
242.616	17
242.988	17
243.360	17
243.731	17
244.103	17
244.475	17
244.847	17
245.218	17
245.590	17
245.961	17
246.333	17
246.705	17
247.076	17
247.448	17
247.819	18
248.190	18
248.562	18
248.933	18
249.305	18
249.676	18
250.047	18
250.418	18
250.790	18
251.161	18
251.532	18
251.903	18
252.274	18
252.645	18
253.016	17
253.387	18
253.758	18
254.129	18
254.500	18
254.871	18
255.242	19
255.613	19
255.984	19
256.355	18
256.725	18
257.096	18
257.467	18
257.838	18
258.208	18
258.579	18
258.949	18
259.320	18
259.690	18
260.061	19
260.431	19
260.802	19
261.172	19
261.543	19
261.913	19
262.283	19
262.654	19
263.024	18
263.394	18
263.764	18
264.135	19
264.505	19
264.875	19
265.245	19
265.615	19
265.985	19
266.355	19
266.725	19
267.095	19
267.465	19
267.835	19
268.205	18
268.575	19
268.944	18
269.314	18
269.684	18
270.054	18
270.423	18
270.793	18
271.163	18
271.532	18
271.902	17
272.271	17
272.641	17
273.010	17
273.380	18
273.749	18
274.119	18
274.488	18
274.857	18
275.227	19
275.596	19
275.965	19
276.335	19
276.704	19
277.073	18
277.442	18
277.811	19
278.180	19
278.549	19
278.918	19
279.287	19
279.656	19
280.025	20
280.394	20
280.763	20
281.132	20
281.501	20
281.869	20
282.238	19
282.607	19
282.976	19
283.344	19
283.713	19
284.081	19
284.450	19
284.819	20
285.187	20
285.556	19
285.924	19
286.292	20
286.661	19
287.029	19
287.398	19
287.766	19
288.134	19
288.502	19
288.871	19
289.239	20
289.607	19
289.975	20
290.343	20
290.711	20
291.079	20
291.447	20
291.815	20
292.183	20
292.551	19
292.919	19
293.287	19
293.655	19
294.022	19
294.390	19
294.758	19
295.126	19
295.493	18
295.861	18
296.229	18
296.596	18
296.964	17
297.331	18
297.699	18
298.066	18
298.434	18
298.801	18
299.168	18
299.536	18
299.903	18
300.270	18
300.638	18
301.005	18
301.372	19
301.739	19
302.106	19
302.473	19
302.840	19
303.207	19
303.574	19
303.941	20
304.308	20
304.675	20
305.042	20
305.409	20
305.776	20
306.143	20
306.509	20
306.876	20
307.243	20
307.610	20
307.976	20
308.343	20
308.709	20
309.076	20
309.442	20
309.809	20
310.175	20
310.542	21
310.908	21
311.275	21
311.641	22
312.007	22
312.373	22
312.740	22
313.106	22
313.472	22
313.838	22
314.204	23
314.570	23
314.936	24
315.302	24
315.668	25
316.034	25
316.400	24
316.766	24
317.132	24
317.498	24
317.864	24
318.230	25
318.595	25
318.961	25
319.327	25
319.692	25
320.058	26
320.424	27
320.789	27
321.155	28
321.520	28
321.886	28
322.251	28
322.616	29
322.982	29
323.347	30
323.712	30
324.078	32
324.443	33
324.808	34
325.173	35
325.539	36
325.904	36
326.269	37
326.634	38
326.999	39
327.364	39
327.729	40
328.094	41
328.459	42
328.823	43
329.188	43
329.553	45
329.918	45
330.283	46
330.647	47
331.012	48
331.377	49
331.741	49
332.106	50
332.470	51
332.835	52
333.199	53
333.564	53
333.928	54
334.293	55
334.657	56
335.021	57
335.386	58
335.750	59
336.114	60
336.478	61
336.843	62
337.207	63
337.571	64
337.935	64
338.299	66
338.663	67
339.027	68
339.391	69
339.755	70
340.119	71
340.483	73
340.846	73
341.210	74
341.574	75
341.938	76
342.301	77
342.665	78
343.029	79
343.392	80
343.756	81
344.119	82
344.483	83
344.846	84
345.210	85
345.573	86
345.937	87
346.300	87
346.663	88
347.027	89
347.390	89
347.753	90
348.116	91
348.479	92
348.843	93
349.206	94
349.569	95
349.932	96
350.295	97
350.658	98
351.021	98
351.383	99
351.746	99
352.109	100
352.472	101
352.835	102
353.197	103
353.560	103
353.923	104
354.285	105
354.648	106
355.011	107
355.373	107
355.736	108
356.098	108
356.461	109
356.823	110
357.185	110
357.548	110
357.910	111
358.272	112
358.635	113
358.997	113
359.359	114
359.721	115
360.083	115
360.445	115
360.807	116
361.169	117
361.531	117
361.893	117
362.255	117
362.617	118
362.979	118
363.341	119
363.703	120
364.064	121
364.426	121
364.788	122
365.149	122
365.511	123
365.873	123
366.234	123
366.596	124
366.957	124
367.319	124
367.680	125
368.042	126
368.403	126
368.764	126
369.126	127
369.487	127
369.848	127
370.209	127
370.570	128
370.931	128
371.293	128
371.654	128
372.015	128
372.376	128
372.737	128
373.098	129
373.458	129
373.819	129
374.180	130
374.541	130
374.902	130
375.263	131
375.623	131
375.984	132
376.345	132
376.705	133
377.066	133
377.426	133
377.787	134
378.147	134
378.508	134
378.868	135
379.228	135
379.589	136
379.949	137
380.309	137
380.670	137
381.030	138
381.390	139
381.750	139
382.110	140
382.470	140
382.830	141
383.190	141
383.550	141
383.910	141
384.270	142
384.630	143
384.990	143
385.350	144
385.709	145
386.069	145
386.429	146
386.788	146
387.148	146
387.508	146
387.867	147
388.227	147
388.586	148
388.946	149
389.305	149
389.665	150
390.024	151
390.383	152
390.743	153
391.102	153
391.461	154
391.820	155
392.179	156
392.539	156
392.898	156
393.257	157
393.616	158
393.975	158
394.334	160
394.693	161
395.051	162
395.410	163
395.769	164
396.128	165
396.487	166
396.845	167
397.204	167
397.563	168
397.921	168
398.280	168
398.638	169
398.997	169
399.355	170
399.714	170
400.072	171
400.431	172
400.789	172
401.147	173
401.506	174
401.864	175
402.222	176
402.580	176
402.938	176
403.297	177
403.655	177
404.013	177
404.371	177
404.729	178
405.087	178
405.444	179
405.802	180
406.160	180
406.518	181
406.876	182
407.233	183
407.591	183
407.949	183
408.306	184
408.664	184
409.022	185
409.379	185
409.737	186
410.094	187
410.451	187
410.809	188
411.166	189
411.523	190
411.881	191
412.238	192
412.595	192
412.952	193
413.310	194
413.667	195
414.024	195
414.381	196
414.738	197
415.095	198
415.452	199
415.809	200
416.165	201
416.522	202
416.879	204
417.236	205
417.593	207
417.949	210
418.306	212
418.663	215
419.019	217
419.376	220
419.732	223
420.089	226
420.445	228
420.802	231
421.158	233
421.514	235
421.871	238
422.227	240
422.583	242
422.939	243
423.295	245
423.652	247
424.008	248
424.364	250
424.720	251
425.076	252
425.432	253
425.788	254
426.143	256
426.499	258
426.855	260
427.211	262
427.567	265
427.922	266
428.278	269
428.634	270
428.989	271
429.345	273
429.700	275
430.056	277
430.411	280
430.767	282
431.122	285
431.478	288
431.833	290
432.188	293
432.543	294
432.899	296
433.254	298
433.609	299
433.964	300
434.319	301
434.674	302
435.029	304
435.384	306
435.739	308
436.094	311
436.449	314
436.804	318
437.158	322
437.513	327
437.868	332
438.223	337
438.577	342
438.932	348
439.287	354
439.641	359
439.996	366
440.350	372
440.704	378
441.059	384
441.413	391
441.768	397
442.122	403
442.476	408
442.830	414
443.185	420
443.539	426
443.893	432
444.247	437
444.601	442
444.955	446
445.309	449
445.663	452
446.017	455
446.371	458
446.724	460
447.078	462
447.432	464
447.786	466
448.139	467
448.493	469
448.847	470
449.200	471
449.554	472
449.907	473
450.261	474
450.614	475
450.968	477
451.321	478
451.674	479
452.027	480
452.381	482
452.734	484
453.087	486
453.440	489
453.793	492
454.146	495
454.499	500
454.852	505
455.205	511
455.558	517
455.911	523
456.264	529
456.617	535
456.970	541
457.322	546
457.675	551
458.028	556
458.380	560
458.733	563
459.086	568
459.438	572
459.791	578
460.143	584
460.496	591
460.848	599
461.200	607
461.553	616
461.905	624
462.257	632
462.609	639
462.961	646
463.314	652
463.666	657
464.018	662
464.370	667
464.722	673
465.074	679
465.426	683
465.777	688
466.129	693
466.481	696
466.833	699
467.184	700
467.536	701
467.888	701
468.239	702
468.591	702
468.943	702
469.294	704
469.646	706
469.997	710
470.348	715
470.700	720
471.051	729
471.402	738
471.754	748
472.105	759
472.456	771
472.807	785
473.158	799
473.509	813
473.860	830
474.211	847
474.562	865
474.913	884
475.264	903
475.615	922
475.966	941
476.316	960
476.667	980
477.018	999
477.368	1019
477.719	1039
478.070	1059
478.420	1077
478.771	1096
479.121	1114
479.472	1132
479.822	1150
480.172	1170
480.523	1194
480.873	1227
481.223	1279
481.573	1357
481.924	1455
482.274	1565
482.624	1681
482.974	1796
483.324	1898
483.674	1975
484.024	2028
484.374	2064
484.724	2088
485.073	2105
485.423	2120
485.773	2133
486.123	2147
486.472	2160
486.822	2173
487.172	2184
487.521	2193
487.871	2198
488.220	2193
488.570	2167
488.919	2117
489.268	2045
489.618	1962
489.967	1872
490.316	1781
490.666	1703
491.015	1647
491.364	1615
491.713	1600
492.062	1597
492.411	1600
492.760	1606
493.109	1613
493.458	1621
493.807	1627
494.156	1633
494.505	1639
494.853	1646
495.202	1654
495.551	1665
495.900	1675
496.248	1686
496.597	1698
496.945	1709
497.294	1719
497.642	1731
497.991	1744
498.339	1759
498.688	1775
499.036	1790
499.384	1804
499.732	1817
500.081	1828
500.429	1838
500.777	1847
501.125	1856
501.473	1865
501.821	1874
502.169	1883
502.517	1890
502.865	1895
503.213	1900
503.561	1903
503.908	1906
504.256	1908
504.604	1909
504.952	1909
505.299	1909
505.647	1907
505.994	1902
506.342	1899
506.689	1894
507.037	1891
507.384	1890
507.732	1890
508.079	1889
508.426	1889
508.774	1889
509.121	1888
509.468	1887
509.815	1886
510.162	1885
510.509	1884
510.856	1881
511.203	1879
511.550	1877
511.897	1875
512.244	1873
512.591	1871
512.938	1869
513.284	1867
513.631	1865
513.978	1862
514.324	1858
514.671	1854
515.018	1850
515.364	1846
515.711	1844
516.057	1842
516.403	1839
516.750	1835
517.096	1831
517.443	1825
517.789	1820
518.135	1815
518.481	1812
518.827	1808
519.173	1803
519.519	1800
519.865	1796
520.211	1794
520.557	1792
520.903	1790
521.249	1789
521.595	1789
521.941	1788
522.287	1787
522.632	1787
522.978	1786
523.324	1786
523.669	1787
524.015	1790
524.360	1796
524.706	1803
525.051	1813
525.397	1824
525.742	1836
526.087	1847
526.433	1860
526.778	1870
527.123	1878
527.468	1886
527.813	1893
528.158	1900
528.504	1908
528.849	1920
529.193	1935
529.538	1951
529.883	1972
530.228	1997
530.573	2023
530.918	2050
531.263	2078
531.607	2103
531.952	2126
532.296	2146
532.641	2162
532.986	2175
533.330	2188
533.675	2201
534.019	2219
534.363	2240
534.708	2265
535.052	2294
535.396	2324
535.741	2353
536.085	2378
536.429	2402
536.773	2422
537.117	2439
537.461	2453
537.805	2466
538.149	2480
538.493	2496
538.837	2512
539.181	2532
539.524	2556
539.868	2584
540.212	2614
540.556	2647
540.899	2681
541.243	2711
541.586	2736
541.930	2757
542.273	2772
542.617	2785
542.960	2798
543.304	2816
543.647	2838
543.990	2865
544.333	2897
544.677	2928
545.020	2959
545.363	2984
545.706	3004
546.049	3019
546.392	3028
546.735	3032
547.078	3034
547.421	3036
547.764	3040
548.106	3045
548.449	3055
548.792	3069
549.135	3090
549.477	3115
549.820	3140
550.162	3160
550.505	3176
550.847	3189
551.190	3197
551.532	3203
551.875	3208
552.217	3216
552.559	3226
552.901	3242
553.244	3261
553.586	3282
553.928	3304
554.270	3323
554.612	3339
554.954	3351
555.296	3361
555.638	3371
555.980	3381
556.322	3395
556.663	3414
557.005	3442
557.347	3478
557.689	3517
558.030	3554
558.372	3589
558.713	3620
559.055	3649
559.396	3677
559.738	3708
560.079	3741
560.421	3780
560.762	3824
561.103	3873
561.444	3928
561.786	3984
562.127	4045
562.468	4111
562.809	4184
563.150	4264
563.491	4351
563.832	4447
564.173	4557
564.514	4684
564.855	4837
565.195	5024
565.536	5249
565.877	5511
566.218	5810
566.558	6147
566.899	6517
567.239	6916
567.580	7334
567.920	7765
568.261	8198
568.601	8641
568.941	9100
569.282	9573
569.622	10062
569.962	10572
570.302	11115
570.643	11675
570.983	12240
571.323	12784
571.663	13308
572.003	13804
572.343	14269
572.683	14703
573.022	15144
573.362	15609
573.702	16089
574.042	16568
574.381	17025
574.721	17460
575.061	17876
575.400	18253
575.740	18587
576.079	18881
576.419	19174
576.758	19508
577.097	19904
577.437	20337
577.776	20799
578.115	21285
578.454	21777
578.794	22227
579.133	22573
579.472	22808
579.811	22938
580.150	22973
580.489	22934
580.828	22863
581.167	22796
581.505	22749
581.844	22710
582.183	22672
582.522	22652
582.860	22644
583.199	22637
583.538	22598
583.876	22488
584.215	22284
584.553	21975
584.891	21569
585.230	21072
585.568	20524
585.906	19969
586.245	19471
586.583	19042
586.921	18688
587.259	18366
587.597	18042
587.935	17706
588.273	17361
588.611	17040
588.949	16757
589.287	16519
589.625	16330
589.963	16183
590.300	16064
590.638	15954
590.976	15832
591.313	15689
591.651	15552
591.989	15435
592.326	15340
592.664	15258
593.001	15190
593.338	15148
593.676	15126
594.013	15134
594.350	15189
594.687	15283
595.025	15390
595.362	15486
595.699	15553
596.036	15595
596.373	15603
596.710	15572
597.047	15512
597.384	15441
597.720	15362
598.057	15298
598.394	15252
598.731	15226
599.067	15226
599.404	15252
599.741	15314
600.077	15402
600.414	15501
600.750	15604
601.087	15681
601.423	15719
601.759	15720
602.096	15693
602.432	15646
602.768	15577
603.104	15480
603.440	15360
603.776	15233
604.112	15095
604.448	14955
604.784	14806
605.120	14648
605.456	14495
605.792	14335
606.128	14166
606.463	13994
606.799	13820
607.135	13662
607.470	13505
607.806	13350
608.142	13200
608.477	13055
608.812	12915
609.148	12774
609.483	12626
609.819	12475
610.154	12330
610.489	12197
610.824	12081
611.159	11983
611.494	11885
611.830	11798
612.165	11713
612.500	11617
612.834	11505
613.169	11378
613.504	11239
613.839	11084
614.174	10908
614.509	10731
614.843	10554
615.178	10387
615.512	10220
615.847	10056
616.182	9895
616.516	9731
616.850	9557
617.185	9378
617.519	9195
617.853	8998
618.188	8794
618.522	8609
618.856	8452
619.190	8315
619.524	8194
619.858	8099
620.192	8023
620.526	7956
620.860	7889
621.194	7825
621.528	7762
621.862	7699
622.195	7623
622.529	7543
622.863	7459
623.196	7376
623.530	7290
623.864	7205
624.197	7120
624.530	7036
624.864	6961
625.197	6882
625.531	6793
625.864	6684
626.197	6570
626.530	6447
626.863	6308
627.196	6157
627.529	6004
627.862	5853
628.195	5704
628.528	5556
628.861	5414
629.194	5287
629.527	5166
629.860	5046
630.192	4928
630.525	4818
630.858	4714
631.190	4616
631.523	4522
631.855	4434
632.188	4358
632.520	4287
632.852	4220
633.185	4150
633.517	4083
633.849	4022
634.182	3967
634.514	3914
634.846	3867
635.178	3825
635.510	3787
635.842	3754
636.174	3721
636.506	3688
636.837	3655
637.169	3623
637.501	3589
637.833	3553
638.164	3511
638.496	3465
638.828	3412
639.159	3353
639.491	3289
639.822	3223
640.154	3157
640.485	3092
640.816	3026
641.147	2962
641.479	2900
641.810	2840
642.141	2782
642.472	2725
642.803	2668
643.134	2614
643.465	2568
643.796	2531
644.127	2505
644.458	2491
644.789	2491
645.119	2505
645.450	2528
645.781	2554
646.111	2579
646.442	2601
646.773	2619
647.103	2632
647.433	2644
647.764	2656
648.094	2673
648.425	2694
648.755	2720
649.085	2750
649.415	2782
649.745	2814
650.075	2848
650.405	2886
650.735	2969
651.065	3567
651.395	5425
651.725	8482
652.055	12120
652.385	15754
652.715	19386
653.044	23021
653.374	26660
653.704	30306
654.033	33214
654.363	35073
654.692	36305
655.022	37106
655.351	37632
655.680	37958
656.010	38135
656.339	38215
656.668	38236
656.997	38226
657.326	38193
657.655	38103
657.984	37485
658.313	35598
658.642	32501
658.971	28812
659.300	25124
659.629	21437
659.958	17750
660.286	14063
660.615	10378
660.944	7439
661.272	5551
661.601	4293
661.929	3463
662.258	2903
662.586	2538
662.915	2314
663.243	2184
663.571	2111
663.899	2066
664.228	2039
664.556	2020
664.884	2007
665.212	1998
665.540	1991
665.868	1988
666.196	1987
666.524	1986
666.852	1988
667.179	1996
667.507	2011
667.835	2033
668.162	2063
668.490	2100
668.818	2143
669.145	2188
669.473	2234
669.800	2276
670.127	2313
670.455	2344
670.782	2369
671.109	2392
671.436	2411
671.764	2427
672.091	2440
672.418	2451
672.745	2459
673.072	2468
673.399	2479
673.726	2490
674.053	2499
674.379	2502
674.706	2501
675.033	2500
675.359	2497
675.686	2491
676.013	2489
676.339	2490
676.666	2498
676.992	2517
677.318	2543
677.645	2573
677.971	2600
678.297	2625
678.624	2649
678.950	2672
679.276	2694
679.602	2715
679.928	2738
680.254	2765
680.580	2800
680.906	2844
681.232	2899
681.558	2956
681.883	3012
682.209	3064
682.535	3112
682.860	3156
683.186	3194
683.511	3223
683.837	3241
684.162	3256
684.488	3267
684.813	3280
685.138	3291
685.464	3301
685.789	3310
686.114	3319
686.439	3330
686.764	3342
687.089	3350
687.414	3351
687.739	3341
688.064	3321
688.389	3295
688.714	3265
689.039	3233
689.363	3198
689.688	3160
690.013	3124
690.337	3091
690.662	3065
690.986	3041
691.311	3017
691.635	2992
691.959	2969
692.284	2954
692.608	2950
692.932	2956
693.256	2966
693.580	2979
693.904	2996
694.228	3015
694.552	3033
694.876	3041
695.200	3038
695.524	3025
695.848	3006
696.172	2982
696.495	2956
696.819	2930
697.143	2903
697.466	2875
697.790	2852
698.113	2835
698.437	2827
698.760	2826
699.083	2825
699.407	2817
699.730	2803
700.053	2780
700.376	2748
700.699	2704
701.022	2648
701.345	2587
701.668	2531
701.991	2484
702.314	2452
702.637	2438
702.960	2444
703.283	2470
703.605	2515
703.928	2576
704.251	2646
704.573	2714
704.896	2777
705.218	2827
705.540	2868
705.863	2900
706.185	2926
706.507	2949
706.830	2970
707.152	2993
707.474	3017
707.796	3045
708.118	3074
708.440	3102
708.762	3126
709.084	3145
709.406	3156
709.728	3158
710.049	3151
710.371	3138
710.693	3117
711.014	3093
711.336	3071
711.658	3051
711.979	3034
712.301	3017
712.622	3000
712.943	2978
713.265	2954
713.586	2927
713.907	2902
714.228	2879
714.549	2862
714.870	2849
715.191	2844
715.512	2843
715.833	2839
716.154	2832
716.475	2819
716.796	2802
717.117	2775
717.437	2744
717.758	2710
718.078	2674
718.399	2639
718.719	2609
719.040	2582
719.360	2562
719.681	2548
720.001	2538
720.321	2533
720.642	2531
720.962	2534
721.282	2540
721.602	2548
721.922	2557
722.242	2570
722.562	2587
722.882	2607
723.202	2625
723.521	2643
723.841	2660
724.161	2678
724.481	2696
724.800	2715
725.120	2739
725.439	2767
725.759	2800
726.078	2838
726.398	2882
726.717	2938
727.036	3001
727.355	3066
727.675	3131
727.994	3192
728.313	3251
728.632	3302
728.951	3344
729.270	3380
729.589	3414
729.908	3457
730.226	3504
730.545	3556
730.864	3613
731.182	3675
731.501	3737
731.820	3796
732.138	3847
732.457	3892
732.775	3933
733.093	3966
733.412	3986
733.730	3991
734.048	3982
734.367	3965
734.685	3941
735.003	3913
735.321	3889
735.639	3869
735.957	3854
736.275	3839
736.593	3818
736.910	3786
737.228	3740
737.546	3682
737.863	3614
738.181	3539
738.499	3461
738.816	3383
739.134	3307
739.451	3230
739.768	3153
740.086	3078
740.403	3009
740.720	2945
741.038	2884
741.355	2826
741.672	2768
741.989	2709
742.306	2648
742.623	2585
742.940	2524
743.257	2467
743.573	2417
743.890	2377
744.207	2347
744.523	2327
744.840	2313
745.157	2304
745.473	2302
745.790	2310
746.106	2328
746.422	2355
746.739	2389
747.055	2429
747.371	2476
747.687	2524
748.004	2569
748.320	2610
748.636	2645
748.952	2681
749.268	2717
749.584	2751
749.899	2782
750.215	2814
750.531	2850
750.847	2890
751.162	2931
751.478	2971
751.793	3012
752.109	3056
752.424	3103
752.740	3151
753.055	3206
753.370	3271
753.686	3348
754.001	3429
754.316	3514
754.631	3605
754.946	3702
755.261	3804
755.576	3902
755.891	3996
756.206	4090
756.521	4190
756.836	4291
757.150	4388
757.465	4473
757.780	4546
758.094	4607
758.409	4654
758.723	4683
759.038	4696
759.352	4696
759.667	4682
759.981	4658
760.295	4634
760.609	4616
760.923	4605
761.238	4598
761.552	4593
761.866	4586
762.180	4577
762.493	4551
762.807	4503
763.121	4430
763.435	4338
763.749	4238
764.062	4143
764.376	4064
764.689	4010
765.003	3981
765.316	3977
765.630	3990
765.943	4012
766.257	4038
766.570	4060
766.883	4066
767.196	4056
767.509	4029
767.822	3990
768.135	3940
768.448	3885
768.761	3828
769.074	3779
769.387	3741
769.700	3717
770.013	3703
770.325	3691
770.638	3674
770.950	3643
771.263	3594
771.575	3526
771.888	3439
772.200	3337
772.513	3227
772.825	3112
773.137	2994
773.449	2878
773.761	2765
774.074	2660
774.386	2568
774.698	2490
775.010	2426
775.321	2380
775.633	2350
775.945	2333
776.257	2323
776.568	2320
776.880	2327
777.192	2344
777.503	2369
777.815	2401
778.126	2441
778.438	2491
778.749	2544
779.060	2595
779.372	2643
779.683	2690
779.994	2732
780.305	2765
780.616	2787
780.927	2801
781.238	2806
781.549	2800
781.860	2781
782.171	2755
782.481	2726
782.792	2697
783.103	2669
783.413	2637
783.724	2604
784.034	2572
784.345	2543
784.655	2516
784.966	2489
785.276	2461
785.586	2433
785.896	2405
786.207	2376
786.517	2345
786.827	2315
787.137	2286
787.447	2258
787.757	2231
788.066	2206
788.376	2182
788.686	2158
788.996	2133
789.305	2108
789.615	2088
789.925	2078
790.234	2075
790.544	2080
790.853	2089
791.162	2100
791.472	2108
791.781	2112
792.090	2107
792.399	2094
792.708	2074
793.017	2052
793.326	2030
793.635	2009
793.944	1991
794.253	1975
794.562	1964
794.871	1957
795.179	1952
795.488	1945
795.797	1934
796.105	1917
796.414	1887
796.722	1848
797.031	1798
797.339	1739
797.647	1672
797.956	1602
798.264	1537
798.572	1483
798.880	1441
799.188	1410
799.496	1387
799.804	1371
800.112	1358
800.420	1347
800.728	1336
801.035	1322
801.343	1306
801.651	1293
801.958	1290
802.266	1296
802.573	1306
802.881	1320
803.188	1338
803.496	1357
803.803	1376
804.110	1394
804.417	1410
804.724	1424
805.032	1436
805.339	1447
805.646	1454
805.953	1458
806.259	1459
806.566	1457
806.873	1451
807.180	1443
807.486	1436
807.793	1426
808.100	1412
808.406	1388
808.713	1356
809.019	1319
809.326	1282
809.632	1246
809.938	1213
810.244	1182
810.551	1156
810.857	1135
811.163	1116
811.469	1097
811.775	1075
812.081	1053
812.387	1033
812.692	1017
812.998	1004
813.304	995
813.610	987
813.915	980
814.221	975
814.526	970
814.832	967
815.137	962
815.443	956
815.748	947
816.053	934
816.358	921
816.664	909
816.969	898
817.274	888
817.579	880
817.884	876
818.189	874
818.493	874
818.798	871
819.103	865
819.408	857
819.712	847
820.017	837
820.321	825
820.626	814
820.930	803
821.235	797
821.539	793
821.843	793
822.148	795
822.452	796
822.756	796
823.060	793
823.364	788
823.668	781
823.972	773
824.276	764
824.580	758
824.883	754
825.187	753
825.491	753
825.795	752
826.098	753
826.402	752
826.705	749
827.008	744
827.312	736
827.615	723
827.918	709
828.222	692
828.525	674
828.828	658
829.131	641
829.434	625
829.737	610
830.040	598
830.343	588
830.645	580
830.948	570
831.251	562
831.553	554
831.856	548
832.159	543
832.461	535
832.764	528
833.066	520
833.368	514
833.671	509
833.973	505
834.275	502
834.577	498
834.879	494
835.181	489
835.483	484
835.785	477
836.087	469
836.389	459
836.690	447
836.992	434
837.294	422
837.595	409
837.897	394
838.198	380
838.500	367
838.801	355
839.103	345
839.404	336
839.705	329
840.006	323
840.307	318
840.608	314
840.910	312
841.210	310
841.511	307
841.812	304
842.113	300
842.414	296
842.715	290
843.015	285
843.316	278
843.616	273
843.917	267
844.217	263
844.518	259
844.818	256
845.118	254
845.419	253
845.719	251
846.019	250
846.319	248
846.619	247
846.919	246
847.219	245
847.519	243
847.819	242
848.118	243
848.418	246
848.718	253
849.017	266
849.317	283
849.616	304
849.916	328
850.215	355
850.515	383
850.814	412
851.113	438
851.412	461
851.712	482
852.011	502
852.310	521
852.609	537
852.908	551
853.206	564
853.505	576
853.804	586
854.103	595
854.401	602
854.700	605
854.999	602
855.297	595
855.595	583
855.894	566
856.192	545
856.491	522
856.789	496
857.087	470
857.385	445
857.683	422
857.981	402
858.279	384
858.577	366
858.875	350
859.173	338
859.471	328
859.768	320
860.066	312
860.363	306
860.661	301
860.959	297
861.256	293
861.553	288
861.851	283
862.148	278
862.445	272
862.742	267
863.039	262
863.337	259
863.634	256
863.931	254
864.227	253
864.524	253
864.821	253
865.118	252
865.415	250
865.711	246
866.008	242
866.304	238
866.601	233
866.897	229
867.194	225
867.490	223
867.786	222
868.082	222
868.379	222
868.675	223
868.971	224
869.267	224
869.563	223
869.859	223
870.154	222
870.450	220
870.746	219
871.042	218
871.337	218
871.633	219
871.928	219
872.224	221
872.519	223
872.815	224
873.110	225
873.405	225
873.700	224
873.995	224
874.291	224
874.586	224
874.881	226
875.175	228
875.470	231
875.765	236
876.060	240
876.355	245
876.649	250
876.944	255
877.238	259
877.533	263
877.827	266
878.122	268
878.416	269
878.710	269
879.005	268
879.299	267
879.593	266
879.887	266
880.181	264
880.475	263
880.769	261
881.063	259
881.356	256
881.650	252
881.944	249
882.238	207
882.531	198
882.825	200
883.118	198
883.412	198
883.705	199
883.998	201
884.291	209
884.585	213
884.878	223
>>>>>>>>>> END of Data <<<<<<<<<<