Date	2021年06月15日火曜日 04時37分39秒
Spectrometers	USB2+H05879
ダーク	使用
リファレンス	使用
積分時間[msec]	10
平均回数	280
ｽﾑｰｼﾞﾝｸﾞ	10
Electrical Dark	USE
ピクセル数	2048
計測モード	吸光度
保存開始波長[nm]	190.664
保存終了波長[nm]	884.878
保存ﾋﾟｯﾁ波長[nm]	全波長

>>>>>>>>>> Data Start <<<<<<<<<<<<
190.664	0.000000
191.040	0.000000
191.415	0.000000
191.791	-2.434564
192.166	-0.713813
192.542	-0.984673
192.917	0.000000
193.293	-0.475538
193.668	-0.650055
194.044	-1.039620
194.419	0.000000
194.794	-1.391099
195.170	-1.307685
195.545	-1.215480
195.920	-1.090380
196.296	-0.972626
196.671	-0.810526
197.046	-0.660129
197.421	-0.605139
197.796	-0.594672
198.171	-0.562498
198.546	-0.523336
198.922	-0.472492
199.297	-0.449021
199.672	-0.427388
200.047	-0.406350
200.422	-0.379257
200.796	-0.367368
201.171	-0.345254
201.546	-0.341873
201.921	-0.331614
202.296	-0.311369
202.671	-0.288344
203.045	-0.268698
203.420	-0.264923
203.795	-0.250778
204.170	-0.244925
204.544	-0.239907
204.919	-0.247678
205.294	-0.249092
205.668	-0.242149
206.043	-0.229411
206.417	-0.230727
206.792	-0.229580
207.166	-0.221000
207.541	-0.221866
207.915	-0.229614
208.289	-0.217061
208.664	-0.214740
209.038	-0.214106
209.412	-0.201835
209.787	-0.187830
210.161	-0.180096
210.535	-0.186254
210.909	-0.174313
211.284	-0.172846
211.658	-0.174975
212.032	-0.171586
212.406	-0.178789
212.780	-0.171006
213.154	-0.168031
213.528	-0.162977
213.902	-0.160260
214.276	-0.152689
214.650	-0.149182
215.024	-0.150060
215.398	-0.147612
215.772	-0.133848
216.145	-0.135349
216.519	-0.132058
216.893	-0.124313
217.267	-0.124247
217.640	-0.121861
218.014	-0.113113
218.388	-0.098079
218.761	-0.106703
219.135	-0.087438
219.508	-0.083991
219.882	-0.083237
220.256	-0.077429
220.629	-0.073017
221.003	-0.078549
221.376	-0.079921
221.749	-0.085524
222.123	-0.092255
222.496	-0.098166
222.869	-0.097448
223.243	-0.093222
223.616	-0.095932
223.989	-0.099368
224.362	-0.090987
224.736	-0.100243
225.109	-0.098751
225.482	-0.099533
225.855	-0.103123
226.228	-0.115448
226.601	-0.113523
226.974	-0.113667
227.347	-0.111854
227.720	-0.115163
228.093	-0.119762
228.466	-0.117281
228.839	-0.107288
229.212	-0.109071
229.585	-0.117712
229.957	-0.115309
230.330	-0.108859
230.703	-0.098697
231.076	-0.103894
231.448	-0.105018
231.821	-0.105867
232.194	-0.110498
232.566	-0.110497
232.939	-0.115018
233.311	-0.118792
233.684	-0.118659
234.056	-0.118628
234.429	-0.122968
234.801	-0.129959
235.174	-0.126217
235.546	-0.125621
235.918	-0.128294
236.291	-0.134909
236.663	-0.136798
237.035	-0.134144
237.408	-0.116778
237.780	-0.111406
238.152	-0.116595
238.524	-0.129034
238.896	-0.123242
239.268	-0.123236
239.641	-0.125326
240.013	-0.118904
240.385	-0.112421
240.757	-0.110523
241.129	-0.108050
241.500	-0.112066
241.872	-0.106027
242.244	-0.101290
242.616	-0.102040
242.988	-0.102852
243.360	-0.094139
243.731	-0.082332
244.103	-0.078717
244.475	-0.083463
244.847	-0.075495
245.218	-0.073693
245.590	-0.069745
245.961	-0.065611
246.333	-0.056961
246.705	-0.061656
247.076	-0.061240
247.448	-0.057330
247.819	-0.057889
248.190	-0.048732
248.562	-0.045012
248.933	-0.038031
249.305	-0.028068
249.676	-0.024284
250.047	-0.024225
250.418	-0.023943
250.790	-0.024375
251.161	-0.021567
251.532	-0.025869
251.903	-0.026863
252.274	-0.012745
252.645	-0.015087
253.016	-0.019998
253.387	-0.024810
253.758	-0.026409
254.129	-0.026301
254.500	-0.016860
254.871	-0.015834
255.242	-0.011866
255.613	-0.014902
255.984	-0.024904
256.355	-0.027136
256.725	-0.030670
257.096	-0.033577
257.467	-0.032235
257.838	-0.032561
258.208	-0.031875
258.579	-0.031027
258.949	-0.037624
259.320	-0.030656
259.690	-0.027767
260.061	-0.031448
260.431	-0.023546
260.802	-0.024893
261.172	-0.018602
261.543	-0.011407
261.913	-0.009753
262.283	-0.015015
262.654	-0.016520
263.024	-0.019380
263.394	-0.018874
263.764	-0.018957
264.135	-0.018998
264.505	-0.022800
264.875	-0.026809
265.245	-0.030958
265.615	-0.033462
265.985	-0.027530
266.355	-0.018157
266.725	-0.016387
267.095	-0.016960
267.465	-0.013401
267.835	-0.014996
268.205	-0.027569
268.575	-0.025378
268.944	-0.022994
269.314	-0.027136
269.684	-0.024746
270.054	-0.031998
270.423	-0.025295
270.793	-0.024715
271.163	-0.021273
271.532	-0.017101
271.902	-0.014880
272.271	-0.006311
272.641	-0.001441
273.010	0.000782
273.380	0.005684
273.749	0.001635
274.119	0.003656
274.488	0.004852
274.857	0.005983
275.227	0.004675
275.596	0.003789
275.965	0.011176
276.335	0.014213
276.704	0.010080
277.073	0.008091
277.442	0.005478
277.811	0.013245
278.180	0.011768
278.549	0.014131
278.918	0.012485
279.287	0.010773
279.656	0.011023
280.025	0.009499
280.394	0.006205
280.763	0.009177
281.132	0.013838
281.501	0.017289
281.869	0.006310
282.238	0.006185
282.607	0.000409
282.976	0.003358
283.344	0.007178
283.713	0.011367
284.081	0.007601
284.450	0.009349
284.819	0.018187
285.187	0.023411
285.556	0.025041
285.924	0.027514
286.292	0.021380
286.661	0.014941
287.029	0.017847
287.398	0.020833
287.766	0.013066
288.134	0.014889
288.502	0.014001
288.871	0.015714
289.239	0.017543
289.607	0.024045
289.975	0.025137
290.343	0.032071
290.711	0.023776
291.079	0.020367
291.447	0.017863
291.815	0.027640
292.183	0.032741
292.551	0.029197
292.919	0.028070
293.287	0.031758
293.655	0.032982
294.022	0.037221
294.390	0.040454
294.758	0.040763
295.126	0.039536
295.493	0.046403
295.861	0.049399
296.229	0.048995
296.596	0.052241
296.964	0.049169
297.331	0.046934
297.699	0.050274
298.066	0.055368
298.434	0.063167
298.801	0.069112
299.168	0.070223
299.536	0.067940
299.903	0.065506
300.270	0.069376
300.638	0.078534
301.005	0.081990
301.372	0.085773
301.739	0.095334
302.106	0.102205
302.473	0.111068
302.840	0.120217
303.207	0.138856
303.574	0.152698
303.941	0.162567
304.308	0.169435
304.675	0.183096
305.042	0.197980
305.409	0.218674
305.776	0.229435
306.143	0.244052
306.509	0.261092
306.876	0.285425
307.243	0.306842
307.610	0.326720
307.976	0.351569
308.343	0.373223
308.709	0.402333
309.076	0.432128
309.442	0.457424
309.809	0.480441
310.175	0.506254
310.542	0.527521
310.908	0.543862
311.275	0.563276
311.641	0.586183
312.007	0.608160
312.373	0.629415
312.740	0.653344
313.106	0.668139
313.472	0.693399
313.838	0.717075
314.204	0.734202
314.570	0.747788
314.936	0.762689
315.302	0.778864
315.668	0.789664
316.034	0.803005
316.400	0.816094
316.766	0.826497
317.132	0.838119
317.498	0.852241
317.864	0.858419
318.230	0.868674
318.595	0.878403
318.961	0.886236
319.327	0.895914
319.692	0.901265
320.058	0.906954
320.424	0.910925
320.789	0.916939
321.155	0.921045
321.520	0.924177
321.886	0.931351
322.251	0.935246
322.616	0.938779
322.982	0.941587
323.347	0.944081
323.712	0.948349
324.078	0.950475
324.443	0.950890
324.808	0.951897
325.173	0.953040
325.539	0.955144
325.904	0.956618
326.269	0.958221
326.634	0.959393
326.999	0.960276
327.364	0.961491
327.729	0.962735
328.094	0.964175
328.459	0.964837
328.823	0.964561
329.188	0.965639
329.553	0.964281
329.918	0.965538
330.283	0.965585
330.647	0.966934
331.012	0.967642
331.377	0.966686
331.741	0.965953
332.106	0.966461
332.470	0.966331
332.835	0.965710
333.199	0.965418
333.564	0.965774
333.928	0.965347
334.293	0.965410
334.657	0.964819
335.021	0.964912
335.386	0.964143
335.750	0.963305
336.114	0.962709
336.478	0.962773
336.843	0.962040
337.207	0.962498
337.571	0.962478
337.935	0.962383
338.299	0.961565
338.663	0.961138
339.027	0.961180
339.391	0.961160
339.755	0.961280
340.119	0.961083
340.483	0.961199
340.846	0.961781
341.210	0.961931
341.574	0.962290
341.938	0.962576
342.301	0.963459
342.665	0.963952
343.029	0.964631
343.392	0.965169
343.756	0.965895
344.119	0.966395
344.483	0.967150
344.846	0.967334
345.210	0.967785
345.573	0.968145
345.937	0.968548
346.300	0.969325
346.663	0.969709
347.027	0.970416
347.390	0.970756
347.753	0.971335
348.116	0.971937
348.479	0.972361
348.843	0.972419
349.206	0.972439
349.569	0.972280
349.932	0.972314
350.295	0.972182
350.658	0.972490
351.021	0.972928
351.383	0.973106
351.746	0.973147
352.109	0.973426
352.472	0.973972
352.835	0.973890
353.197	0.974221
353.560	0.974723
353.923	0.974562
354.285	0.974542
354.648	0.974646
355.011	0.974974
355.373	0.975427
355.736	0.975836
356.098	0.975830
356.461	0.976254
356.823	0.976680
357.185	0.977530
357.548	0.977847
357.910	0.978364
358.272	0.978322
358.635	0.978085
358.997	0.978076
359.359	0.978559
359.721	0.978450
360.083	0.978683
360.445	0.979160
360.807	0.979501
361.169	0.979704
361.531	0.980324
361.893	0.980810
362.255	0.981189
362.617	0.981441
362.979	0.981469
363.341	0.981274
363.703	0.981604
364.064	0.981634
364.426	0.981802
364.788	0.981612
365.149	0.981917
365.511	0.982131
365.873	0.982709
366.234	0.983225
366.596	0.983787
366.957	0.983941
367.319	0.984289
367.680	0.984274
368.042	0.984082
368.403	0.984329
368.764	0.984594
369.126	0.984660
369.487	0.984856
369.848	0.984820
370.209	0.985130
370.570	0.985126
370.931	0.985509
371.293	0.985586
371.654	0.985955
372.015	0.986402
372.376	0.986600
372.737	0.986656
373.098	0.986770
373.458	0.986791
373.819	0.987164
374.180	0.987277
374.541	0.987400
374.902	0.987798
375.263	0.988012
375.623	0.988231
375.984	0.988385
376.345	0.988355
376.705	0.988473
377.066	0.988615
377.426	0.988781
377.787	0.988939
378.147	0.989288
378.508	0.989357
378.868	0.989405
379.228	0.989265
379.589	0.988899
379.949	0.989172
380.309	0.989085
380.670	0.988877
381.030	0.988682
381.390	0.988517
381.750	0.988330
382.110	0.988314
382.470	0.988239
382.830	0.988286
383.190	0.988396
383.550	0.988045
383.910	0.988182
384.270	0.988095
384.630	0.987852
384.990	0.987934
385.350	0.987645
385.709	0.987425
386.069	0.987322
386.429	0.987036
386.788	0.986929
387.148	0.986857
387.508	0.986400
387.867	0.986071
388.227	0.985772
388.586	0.985543
388.946	0.985332
389.305	0.985151
389.665	0.984907
390.024	0.984331
390.383	0.983950
390.743	0.983402
391.102	0.983094
391.461	0.982474
391.820	0.981918
392.179	0.981430
392.539	0.980663
392.898	0.980121
393.257	0.979572
393.616	0.979133
393.975	0.978640
394.334	0.978084
394.693	0.977452
395.051	0.977033
395.410	0.976547
395.769	0.976086
396.128	0.975639
396.487	0.974720
396.845	0.973766
397.204	0.972926
397.563	0.972076
397.921	0.971260
398.280	0.970287
398.638	0.969076
398.997	0.968137
399.355	0.967094
399.714	0.966025
400.072	0.964826
400.431	0.963517
400.789	0.962341
401.147	0.961070
401.506	0.959918
401.864	0.958543
402.222	0.957203
402.580	0.955762
402.938	0.954542
403.297	0.953186
403.655	0.951780
404.013	0.950439
404.371	0.949142
404.729	0.947451
405.087	0.946200
405.444	0.944693
405.802	0.943375
406.160	0.942147
406.518	0.940695
406.876	0.939178
407.233	0.937912
407.591	0.936667
407.949	0.935255
408.306	0.933935
408.664	0.932502
409.022	0.930908
409.379	0.929348
409.737	0.927794
410.094	0.926109
410.451	0.924294
410.809	0.922794
411.166	0.920960
411.523	0.919519
411.881	0.918068
412.238	0.916671
412.595	0.915034
412.952	0.913390
413.310	0.911728
413.667	0.910170
414.024	0.908615
414.381	0.907144
414.738	0.905243
415.095	0.903433
415.452	0.901756
415.809	0.899853
416.165	0.897992
416.522	0.896242
416.879	0.894569
417.236	0.892661
417.593	0.890799
417.949	0.888972
418.306	0.887021
418.663	0.885550
419.019	0.883557
419.376	0.881676
419.732	0.879767
420.089	0.878103
420.445	0.876517
420.802	0.874689
421.158	0.873100
421.514	0.871290
421.871	0.869433
422.227	0.867723
422.583	0.866052
422.939	0.864159
423.295	0.862351
423.652	0.860445
424.008	0.858547
424.364	0.856518
424.720	0.854598
425.076	0.852738
425.432	0.850621
425.788	0.848580
426.143	0.846272
426.499	0.844214
426.855	0.842016
427.211	0.839797
427.567	0.837654
427.922	0.835496
428.278	0.833388
428.634	0.831401
428.989	0.829325
429.345	0.827463
429.700	0.825602
430.056	0.823533
430.411	0.821764
430.767	0.819878
431.122	0.817915
431.478	0.815825
431.833	0.813856
432.188	0.811771
432.543	0.809630
432.899	0.807492
433.254	0.805185
433.609	0.802950
433.964	0.800682
434.319	0.798347
434.674	0.796276
435.029	0.793915
435.384	0.791574
435.739	0.789509
436.094	0.787351
436.449	0.785246
436.804	0.783047
437.158	0.780821
437.513	0.778754
437.868	0.776435
438.223	0.774213
438.577	0.771912
438.932	0.769911
439.287	0.767698
439.641	0.765704
439.996	0.763532
440.350	0.761573
440.704	0.759673
441.059	0.757717
441.413	0.755535
441.768	0.753491
442.122	0.751445
442.476	0.749364
442.830	0.747372
443.185	0.745357
443.539	0.743279
443.893	0.741284
444.247	0.739272
444.601	0.737319
444.955	0.735172
445.309	0.733087
445.663	0.730876
446.017	0.728842
446.371	0.726573
446.724	0.724445
447.078	0.722248
447.432	0.720086
447.786	0.717847
448.139	0.715524
448.493	0.713316
448.847	0.711124
449.200	0.708954
449.554	0.706765
449.907	0.704756
450.261	0.702556
450.614	0.700374
450.968	0.698187
451.321	0.695912
451.674	0.693697
452.027	0.691359
452.381	0.689215
452.734	0.687071
453.087	0.684957
453.440	0.682749
453.793	0.680693
454.146	0.678508
454.499	0.676319
454.852	0.674174
455.205	0.672060
455.558	0.670032
455.911	0.667995
456.264	0.666086
456.617	0.664136
456.970	0.662213
457.322	0.660310
457.675	0.658532
458.028	0.656786
458.380	0.655013
458.733	0.653371
459.086	0.651657
459.438	0.650065
459.791	0.648311
460.143	0.646393
460.496	0.644631
460.848	0.642868
461.200	0.641031
461.553	0.639341
461.905	0.637624
462.257	0.635806
462.609	0.634171
462.961	0.632560
463.314	0.631031
463.666	0.629479
464.018	0.627794
464.370	0.626314
464.722	0.624852
465.074	0.623276
465.426	0.621766
465.777	0.620399
466.129	0.618941
466.481	0.617550
466.833	0.616139
467.184	0.614759
467.536	0.613374
467.888	0.611893
468.239	0.610347
468.591	0.608641
468.943	0.606831
469.294	0.605106
469.646	0.603522
469.997	0.601713
470.348	0.600070
470.700	0.598253
471.051	0.596541
471.402	0.595083
471.754	0.593482
472.105	0.591915
472.456	0.590557
472.807	0.589161
473.158	0.587850
473.509	0.586613
473.860	0.585350
474.211	0.584132
474.562	0.582840
474.913	0.581587
475.264	0.580321
475.615	0.579030
475.966	0.577909
476.316	0.576639
476.667	0.575350
477.018	0.574150
477.368	0.572914
477.719	0.571640
478.070	0.570445
478.420	0.569273
478.771	0.568008
479.121	0.566758
479.472	0.565548
479.822	0.564293
480.172	0.563158
480.523	0.561758
480.873	0.560226
481.223	0.558483
481.573	0.556669
481.924	0.554980
482.274	0.553419
482.624	0.551956
482.974	0.550769
483.324	0.549873
483.674	0.549171
484.024	0.548432
484.374	0.547641
484.724	0.546916
485.073	0.546185
485.423	0.545459
485.773	0.544695
486.123	0.543941
486.472	0.543172
486.822	0.542372
487.172	0.541614
487.521	0.540772
487.871	0.540030
488.220	0.539290
488.570	0.538591
488.919	0.537701
489.268	0.536638
489.618	0.535429
489.967	0.534109
490.316	0.532463
490.666	0.530521
491.015	0.528696
491.364	0.527030
491.713	0.525531
492.062	0.524144
492.411	0.522810
492.760	0.521495
493.109	0.520230
493.458	0.519020
493.807	0.517880
494.156	0.516665
494.505	0.515412
494.853	0.514191
495.202	0.512946
495.551	0.511744
495.900	0.510412
496.248	0.509178
496.597	0.507933
496.945	0.506752
497.294	0.505580
497.642	0.504421
497.991	0.503229
498.339	0.501978
498.688	0.500812
499.036	0.499724
499.384	0.498611
499.732	0.497449
500.081	0.496308
500.429	0.495127
500.777	0.493990
501.125	0.492879
501.473	0.491821
501.821	0.490729
502.169	0.489662
502.517	0.488668
502.865	0.487619
503.213	0.486596
503.561	0.485602
503.908	0.484609
504.256	0.483512
504.604	0.482406
504.952	0.481357
505.299	0.480326
505.647	0.479250
505.994	0.478164
506.342	0.477028
506.689	0.475881
507.037	0.474847
507.384	0.473840
507.732	0.472849
508.079	0.471855
508.426	0.470794
508.774	0.469747
509.121	0.468785
509.468	0.467911
509.815	0.466861
510.162	0.465935
510.509	0.464976
510.856	0.464024
511.203	0.463098
511.550	0.462233
511.897	0.461287
512.244	0.460361
512.591	0.459411
512.938	0.458457
513.284	0.457561
513.631	0.456634
513.978	0.455687
514.324	0.454754
514.671	0.453775
515.018	0.452811
515.364	0.451802
515.711	0.450899
516.057	0.449945
516.403	0.448964
516.750	0.447969
517.096	0.447064
517.443	0.446148
517.789	0.445266
518.135	0.444331
518.481	0.443449
518.827	0.442570
519.173	0.441704
519.519	0.440795
519.865	0.439944
520.211	0.439161
520.557	0.438286
520.903	0.437352
521.249	0.436530
521.595	0.435584
521.941	0.434620
522.287	0.433650
522.632	0.432703
522.978	0.431673
523.324	0.430702
523.669	0.429766
524.015	0.428721
524.360	0.427673
524.706	0.426675
525.051	0.425664
525.397	0.424629
525.742	0.423672
526.087	0.422679
526.433	0.421786
526.778	0.420930
527.123	0.420024
527.468	0.419049
527.813	0.418156
528.158	0.417244
528.504	0.416304
528.849	0.415254
529.193	0.414330
529.538	0.413310
529.883	0.412261
530.228	0.411207
530.573	0.410269
530.918	0.409307
531.263	0.408357
531.607	0.407472
531.952	0.406537
532.296	0.405646
532.641	0.404761
532.986	0.403762
533.330	0.402798
533.675	0.401791
534.019	0.400808
534.363	0.399821
534.708	0.398798
535.052	0.397817
535.396	0.396883
535.741	0.395989
536.085	0.395091
536.429	0.394138
536.773	0.393280
537.117	0.392305
537.461	0.391286
537.805	0.390106
538.149	0.388897
538.493	0.387728
538.837	0.386614
539.181	0.385390
539.524	0.384139
539.868	0.382947
540.212	0.381773
540.556	0.380629
540.899	0.379515
541.243	0.378352
541.586	0.377179
541.930	0.376047
542.273	0.374822
542.617	0.373585
542.960	0.372251
543.304	0.370925
543.647	0.369596
543.990	0.368212
544.333	0.366899
544.677	0.365605
545.020	0.364443
545.363	0.363240
545.706	0.362048
546.049	0.360792
546.392	0.359605
546.735	0.358402
547.078	0.357148
547.421	0.355845
547.764	0.354483
548.106	0.353052
548.449	0.351638
548.792	0.350241
549.135	0.348833
549.477	0.347491
549.820	0.346219
550.162	0.344945
550.505	0.343642
550.847	0.342328
551.190	0.340925
551.532	0.339485
551.875	0.337968
552.217	0.336367
552.559	0.334853
552.901	0.333314
553.244	0.331822
553.586	0.330402
553.928	0.329049
554.270	0.327747
554.612	0.326465
554.954	0.325193
555.296	0.323848
555.638	0.322490
555.980	0.321035
556.322	0.319509
556.663	0.317873
557.005	0.316254
557.347	0.314615
557.689	0.313080
558.030	0.311541
558.372	0.310035
558.713	0.308531
559.055	0.307084
559.396	0.305578
559.738	0.304065
560.079	0.302506
560.421	0.300998
560.762	0.299498
561.103	0.297956
561.444	0.296435
561.786	0.294974
562.127	0.293502
562.468	0.292059
562.809	0.290475
563.150	0.288875
563.491	0.287230
563.832	0.285518
564.173	0.283728
564.514	0.281962
564.855	0.280078
565.195	0.278189
565.536	0.276283
565.877	0.274383
566.218	0.272498
566.558	0.270722
566.899	0.269035
567.239	0.267483
567.580	0.266098
567.920	0.264800
568.261	0.263698
568.601	0.262629
568.941	0.261640
569.282	0.260689
569.622	0.259747
569.962	0.258804
570.302	0.257897
570.643	0.257045
570.983	0.256275
571.323	0.255567
571.663	0.254890
572.003	0.254206
572.343	0.253495
572.683	0.252701
573.022	0.251851
573.362	0.250982
573.702	0.250123
574.042	0.249291
574.381	0.248534
574.721	0.247737
575.061	0.247001
575.400	0.246332
575.740	0.245643
576.079	0.244926
576.419	0.244107
576.758	0.243256
577.097	0.242378
577.437	0.241446
577.776	0.240483
578.115	0.239538
578.454	0.238628
578.794	0.237849
579.133	0.237171
579.472	0.236572
579.811	0.236031
580.150	0.235496
580.489	0.234932
580.828	0.234291
581.167	0.233617
581.505	0.232934
581.844	0.232273
582.183	0.231568
582.522	0.230844
582.860	0.230161
583.199	0.229511
583.538	0.228941
583.876	0.228387
584.215	0.227865
584.553	0.227358
584.891	0.226883
585.230	0.226395
585.568	0.225846
585.906	0.225195
586.245	0.224542
586.583	0.223878
586.921	0.223276
587.259	0.222776
587.597	0.222303
587.935	0.221817
588.273	0.221268
588.611	0.220574
588.949	0.219848
589.287	0.219127
589.625	0.218384
589.963	0.217698
590.300	0.217063
590.638	0.216498
590.976	0.215957
591.313	0.215372
591.651	0.214779
591.989	0.214168
592.326	0.213573
592.664	0.213062
593.001	0.212577
593.338	0.212107
593.676	0.211700
594.013	0.211282
594.350	0.210874
594.687	0.210499
595.025	0.210174
595.362	0.209833
595.699	0.209496
596.036	0.209138
596.373	0.208757
596.710	0.208374
597.047	0.207961
597.384	0.207537
597.720	0.207104
598.057	0.206662
598.394	0.206222
598.731	0.205774
599.067	0.205326
599.404	0.204862
599.741	0.204376
600.077	0.203910
600.414	0.203515
600.750	0.203179
601.087	0.202871
601.423	0.202544
601.759	0.202192
602.096	0.201819
602.432	0.201489
602.768	0.201131
603.104	0.200789
603.440	0.200451
603.776	0.200133
604.112	0.199844
604.448	0.199566
604.784	0.199297
605.120	0.198999
605.456	0.198760
605.792	0.198532
606.128	0.198278
606.463	0.198034
606.799	0.197784
607.135	0.197542
607.470	0.197261
607.806	0.196939
608.142	0.196647
608.477	0.196372
608.812	0.196110
609.148	0.195870
609.483	0.195603
609.819	0.195360
610.154	0.195083
610.489	0.194809
610.824	0.194526
611.159	0.194218
611.494	0.193944
611.830	0.193716
612.165	0.193564
612.500	0.193381
612.834	0.193194
613.169	0.193016
613.504	0.192795
613.839	0.192577
614.174	0.192352
614.509	0.192123
614.843	0.191890
615.178	0.191676
615.512	0.191486
615.847	0.191300
616.182	0.191148
616.516	0.191020
616.850	0.190892
617.185	0.190729
617.519	0.190571
617.853	0.190390
618.188	0.190162
618.522	0.189859
618.856	0.189538
619.190	0.189182
619.524	0.188895
619.858	0.188625
620.192	0.188405
620.526	0.188189
620.860	0.188029
621.194	0.187837
621.528	0.187670
621.862	0.187507
622.195	0.187359
622.529	0.187076
622.863	0.186831
623.196	0.186593
623.530	0.186380
623.864	0.186140
624.197	0.185961
624.530	0.185747
624.864	0.185611
625.197	0.185523
625.531	0.185397
625.864	0.185222
626.197	0.185089
626.530	0.184933
626.863	0.184693
627.196	0.184461
627.529	0.184286
627.862	0.183998
628.195	0.183765
628.528	0.183487
628.861	0.183200
629.194	0.182920
629.527	0.182728
629.860	0.182561
630.192	0.182294
630.525	0.181991
630.858	0.181742
631.190	0.181446
631.523	0.181156
631.855	0.180704
632.188	0.180317
632.520	0.180018
632.852	0.179781
633.185	0.179536
633.517	0.179239
633.849	0.179081
634.182	0.178881
634.514	0.178701
634.846	0.178639
635.178	0.178512
635.510	0.178411
635.842	0.178249
636.174	0.178058
636.506	0.177910
636.837	0.177773
637.169	0.177664
637.501	0.177479
637.833	0.177362
638.164	0.177257
638.496	0.177081
638.828	0.176891
639.159	0.176653
639.491	0.176436
639.822	0.176094
640.154	0.175752
640.485	0.175402
640.816	0.174988
641.147	0.174620
641.479	0.174174
641.810	0.173794
642.141	0.173419
642.472	0.173093
642.803	0.172783
643.134	0.172430
643.465	0.172111
643.796	0.171739
644.127	0.171462
644.458	0.171298
644.789	0.171097
645.119	0.171052
645.450	0.171119
645.781	0.171326
646.111	0.171548
646.442	0.171763
646.773	0.171932
647.103	0.172030
647.433	0.172138
647.764	0.172229
648.094	0.172276
648.425	0.172379
648.755	0.172449
649.085	0.172433
649.415	0.172475
649.745	0.172588
650.075	0.172730
650.405	0.172770
650.735	0.171510
651.065	0.163415
651.395	0.156304
651.725	0.143002
652.055	0.103541
652.385	0.076882
652.715	0.060034
653.044	0.048431
653.374	0.039972
653.704	0.033554
654.033	0.045714
654.363	0.052952
654.692	0.057170
655.022	0.059659
655.351	0.061177
655.680	0.062073
656.010	0.062555
656.339	0.062759
656.668	0.062806
656.997	0.062761
657.326	0.062658
657.655	0.062498
657.984	0.061518
658.313	0.057128
658.642	0.051198
658.971	0.056507
659.300	0.066172
659.629	0.079063
659.958	0.097106
660.286	0.124202
660.615	0.169570
660.944	0.168510
661.272	0.167027
661.601	0.166367
661.929	0.166505
662.258	0.167191
662.586	0.167878
662.915	0.168397
663.243	0.168620
663.571	0.168490
663.899	0.168360
664.228	0.168243
664.556	0.168060
664.884	0.167899
665.212	0.167824
665.540	0.167813
665.868	0.167723
666.196	0.167744
666.524	0.167658
666.852	0.167602
667.179	0.167543
667.507	0.167494
667.835	0.167640
668.162	0.167632
668.490	0.167520
668.818	0.167599
669.145	0.167694
669.473	0.168007
669.800	0.168218
670.127	0.168365
670.455	0.168530
670.782	0.168740
671.109	0.168805
671.436	0.168977
671.764	0.169143
672.091	0.169182
672.418	0.169251
672.745	0.169272
673.072	0.169247
673.399	0.169266
673.726	0.169322
674.053	0.169371
674.379	0.169460
674.706	0.169408
675.033	0.169413
675.359	0.169520
675.686	0.169556
676.013	0.169512
676.339	0.169403
676.666	0.169256
676.992	0.169237
677.318	0.169259
677.645	0.169261
677.971	0.169282
678.297	0.169322
678.624	0.169358
678.950	0.169305
679.276	0.169322
679.602	0.169156
679.928	0.169118
680.254	0.168960
680.580	0.168935
680.906	0.168940
681.232	0.168998
681.558	0.169210
681.883	0.169431
682.209	0.169582
682.535	0.169739
682.860	0.169900
683.186	0.169994
683.511	0.170041
683.837	0.169991
684.162	0.170008
684.488	0.169993
684.813	0.170021
685.138	0.169953
685.464	0.169883
685.789	0.169868
686.114	0.169810
686.439	0.169892
686.764	0.169900
687.089	0.169984
687.414	0.169965
687.739	0.170044
688.064	0.170091
688.389	0.170077
688.714	0.169939
689.039	0.169835
689.363	0.169712
689.688	0.169651
690.013	0.169539
690.337	0.169527
690.662	0.169525
690.986	0.169540
691.311	0.169529
691.635	0.169454
691.959	0.169461
692.284	0.169317
692.608	0.169222
692.932	0.169158
693.256	0.169143
693.580	0.169208
693.904	0.169282
694.228	0.169408
694.552	0.169489
694.876	0.169508
695.200	0.169459
695.524	0.169399
695.848	0.169292
696.172	0.169142
696.495	0.168899
696.819	0.168789
697.143	0.168590
697.466	0.168478
697.790	0.168155
698.113	0.167958
698.437	0.167756
698.760	0.167573
699.083	0.167561
699.407	0.167537
699.730	0.167514
700.053	0.167524
700.376	0.167427
700.699	0.167225
701.022	0.166909
701.345	0.166459
701.668	0.165974
701.991	0.165507
702.314	0.164977
702.637	0.164496
702.960	0.164086
703.283	0.163741
703.605	0.163341
703.928	0.163304
704.251	0.163276
704.573	0.163246
704.896	0.163164
705.218	0.163204
705.540	0.163099
705.863	0.162903
706.185	0.162586
706.507	0.162191
706.830	0.161709
707.152	0.161178
707.474	0.160774
707.796	0.160371
708.118	0.160010
708.440	0.159805
708.762	0.159602
709.084	0.159491
709.406	0.159353
709.728	0.159253
710.049	0.159123
710.371	0.159001
710.693	0.158662
711.014	0.158334
711.336	0.158139
711.658	0.157944
711.979	0.157753
712.301	0.157517
712.622	0.157379
712.943	0.157217
713.265	0.157128
713.586	0.157000
713.907	0.157012
714.228	0.157045
714.549	0.157086
714.870	0.157165
715.191	0.157228
715.512	0.157254
715.833	0.157245
716.154	0.157178
716.475	0.157030
716.796	0.156859
717.117	0.156619
717.437	0.156375
717.758	0.155991
718.078	0.155629
718.399	0.155336
718.719	0.154912
719.040	0.154670
719.360	0.154347
719.681	0.154102
720.001	0.153812
720.321	0.153676
720.642	0.153535
720.962	0.153274
721.282	0.153079
721.602	0.152902
721.922	0.152661
722.242	0.152438
722.562	0.152334
722.882	0.152273
723.202	0.152240
723.521	0.152193
723.841	0.152244
724.161	0.152165
724.481	0.152143
724.800	0.152085
725.120	0.151881
725.439	0.151803
725.759	0.151761
726.078	0.151796
726.398	0.151797
726.717	0.151916
727.036	0.151932
727.355	0.151983
727.675	0.152095
727.994	0.152258
728.313	0.152413
728.632	0.152486
728.951	0.152526
729.270	0.152442
729.589	0.152345
729.908	0.152130
730.226	0.151919
730.545	0.151688
730.864	0.151511
731.182	0.151363
731.501	0.151245
731.820	0.151215
732.138	0.151175
732.457	0.150948
732.775	0.150804
733.093	0.150698
733.412	0.150566
733.730	0.150445
734.048	0.150212
734.367	0.149910
734.685	0.149624
735.003	0.149247
735.321	0.148922
735.639	0.148594
735.957	0.148320
736.275	0.148039
736.593	0.147932
736.910	0.147770
737.228	0.147640
737.546	0.147527
737.863	0.147356
738.181	0.147001
738.499	0.146674
738.816	0.146363
739.134	0.146166
739.451	0.145908
739.768	0.145694
740.086	0.145384
740.403	0.145042
740.720	0.144793
741.038	0.144520
741.355	0.144098
741.672	0.143635
741.989	0.143219
742.306	0.142848
742.623	0.142390
742.940	0.141871
743.257	0.141254
743.573	0.140736
743.890	0.140189
744.207	0.139603
744.523	0.139166
744.840	0.138836
745.157	0.138499
745.473	0.138025
745.790	0.137702
746.106	0.137299
746.422	0.136982
746.739	0.136734
747.055	0.136473
747.371	0.136176
747.687	0.136121
748.004	0.136066
748.320	0.136172
748.636	0.136167
748.952	0.136126
749.268	0.136131
749.584	0.136140
749.899	0.136143
750.215	0.136111
750.531	0.136024
750.847	0.136028
751.162	0.136009
751.478	0.136029
751.793	0.135916
752.109	0.135773
752.424	0.135636
752.740	0.135562
753.055	0.135432
753.370	0.135372
753.686	0.135485
754.001	0.135692
754.316	0.135835
754.631	0.136011
754.946	0.136013
755.261	0.136098
755.576	0.136130
755.891	0.136077
756.206	0.135957
756.521	0.135838
756.836	0.135701
757.150	0.135632
757.465	0.135570
757.780	0.135533
758.094	0.135553
758.409	0.135588
758.723	0.135647
759.038	0.135622
759.352	0.135600
759.667	0.135552
759.981	0.135400
760.295	0.135121
760.609	0.134767
760.923	0.134510
761.238	0.134145
761.552	0.133898
761.866	0.133626
762.180	0.133404
762.493	0.133275
762.807	0.133164
763.121	0.133043
763.435	0.132908
763.749	0.132636
764.062	0.132358
764.376	0.132024
764.689	0.131636
765.003	0.131298
765.316	0.131097
765.630	0.130987
765.943	0.130772
766.257	0.130563
766.570	0.130369
766.883	0.130124
767.196	0.129882
767.509	0.129409
767.822	0.129079
768.135	0.128712
768.448	0.128296
768.761	0.127875
769.074	0.127535
769.387	0.127211
769.700	0.126888
770.013	0.126616
770.325	0.126406
770.638	0.126248
770.950	0.126027
771.263	0.125861
771.575	0.125587
771.888	0.125155
772.200	0.124708
772.513	0.124248
772.825	0.123760
773.137	0.123342
773.449	0.122970
773.761	0.122591
774.074	0.122282
774.386	0.121952
774.698	0.121597
775.010	0.121146
775.321	0.120809
775.633	0.120276
775.945	0.120022
776.257	0.119791
776.568	0.119549
776.880	0.119381
777.192	0.119188
777.503	0.119135
777.815	0.119077
778.126	0.119095
778.438	0.119180
778.749	0.119320
779.060	0.119480
779.372	0.119723
779.683	0.119775
779.994	0.119803
780.305	0.119843
780.616	0.119940
780.927	0.119927
781.238	0.119811
781.549	0.119936
781.860	0.119993
782.171	0.120126
782.481	0.120102
782.792	0.120040
783.103	0.120025
783.413	0.120059
783.724	0.119878
784.034	0.119690
784.345	0.119389
784.655	0.119213
784.966	0.118979
785.276	0.118742
785.586	0.118526
785.896	0.118268
786.207	0.118130
786.517	0.118139
786.827	0.118068
787.137	0.117921
787.447	0.117795
787.757	0.117866
788.066	0.117721
788.376	0.117615
788.686	0.117517
788.996	0.117476
789.305	0.117334
789.615	0.117277
789.925	0.117095
790.234	0.117165
790.544	0.117276
790.853	0.117295
791.162	0.117321
791.472	0.117448
791.781	0.117542
792.090	0.117575
792.399	0.117478
792.708	0.117348
793.017	0.117120
793.326	0.116943
793.635	0.116737
793.944	0.116438
794.253	0.116156
794.562	0.115884
794.871	0.115753
795.179	0.115559
795.488	0.115314
795.797	0.115311
796.105	0.115147
796.414	0.115131
796.722	0.114964
797.031	0.114731
797.339	0.114559
797.647	0.114178
797.956	0.113670
798.264	0.113054
798.572	0.112494
798.880	0.112184
799.188	0.111806
799.496	0.111415
799.804	0.111196
800.112	0.111057
800.420	0.111069
800.728	0.111080
801.035	0.111065
801.343	0.110724
801.651	0.110376
801.958	0.110138
802.266	0.109782
802.573	0.109786
802.881	0.109760
803.188	0.109741
803.496	0.109732
803.803	0.109930
804.110	0.110042
804.417	0.110101
804.724	0.110028
805.032	0.110021
805.339	0.109915
805.646	0.109839
805.953	0.109795
806.259	0.109688
806.566	0.109528
806.873	0.109485
807.180	0.109353
807.486	0.109367
807.793	0.109448
808.100	0.109498
808.406	0.109457
808.713	0.109468
809.019	0.109090
809.326	0.108725
809.632	0.108361
809.938	0.107829
810.244	0.107234
810.551	0.106705
810.857	0.106237
811.163	0.106146
811.469	0.105928
811.775	0.105726
812.081	0.105677
812.387	0.105633
812.692	0.105500
812.998	0.105617
813.304	0.105499
813.610	0.105726
813.915	0.105660
814.221	0.105463
814.526	0.105556
814.832	0.105696
815.137	0.105707
815.443	0.105838
815.748	0.105703
816.053	0.105621
816.358	0.105552
816.664	0.105524
816.969	0.105508
817.274	0.105708
817.579	0.105574
817.884	0.105566
818.189	0.105550
818.493	0.105578
818.798	0.105447
819.103	0.105275
819.408	0.105014
819.712	0.104879
820.017	0.104562
820.321	0.104239
820.626	0.104408
820.930	0.104119
821.235	0.103786
821.539	0.103600
821.843	0.103312
822.148	0.103324
822.452	0.103440
822.756	0.103780
823.060	0.103661
823.364	0.103917
823.668	0.103927
823.972	0.104063
824.276	0.104058
824.580	0.104023
824.883	0.104011
825.187	0.104324
825.491	0.104326
825.795	0.104296
826.098	0.104547
826.402	0.104408
826.705	0.104592
827.008	0.104327
827.312	0.104208
827.615	0.104170
827.918	0.104109
828.222	0.104066
828.525	0.103949
828.828	0.103856
829.131	0.103643
829.434	0.103423
829.737	0.102896
830.040	0.102298
830.343	0.101745
830.645	0.101619
830.948	0.101409
831.251	0.101059
831.553	0.100722
831.856	0.100808
832.159	0.101069
832.461	0.100661
832.764	0.100563
833.066	0.100313
833.368	0.100087
833.671	0.099829
833.973	0.099869
834.275	0.099639
834.577	0.099467
834.879	0.099234
835.181	0.098843
835.483	0.098468
835.785	0.098325
836.087	0.098257
836.389	0.098124
836.690	0.097750
836.992	0.096721
837.294	0.095919
837.595	0.095144
837.897	0.093891
838.198	0.093034
838.500	0.092249
838.801	0.091774
839.103	0.090996
839.404	0.090480
839.705	0.090000
840.006	0.089879
840.307	0.089545
840.608	0.089354
840.910	0.089335
841.210	0.089871
841.511	0.089827
841.812	0.089644
842.113	0.089760
842.414	0.089107
842.715	0.088717
843.015	0.088156
843.316	0.087882
843.616	0.087003
843.917	0.086252
844.217	0.086752
844.518	0.086332
844.818	0.085238
845.118	0.085200
845.419	0.085724
845.719	0.085740
846.019	0.085085
846.319	0.085377
846.619	0.084496
846.919	0.084381
847.219	0.084508
847.519	0.084002
847.819	0.084128
848.118	0.083732
848.418	0.083928
848.718	0.083625
849.017	0.084001
849.317	0.084664
849.616	0.085544
849.916	0.086788
850.215	0.087910
850.515	0.088518
850.814	0.089187
851.113	0.090143
851.412	0.090354
851.712	0.090287
852.011	0.090371
852.310	0.091124
852.609	0.091229
852.908	0.091831
853.206	0.091827
853.505	0.092197
853.804	0.092165
854.103	0.092476
854.401	0.092653
854.700	0.092617
854.999	0.092655
855.297	0.092762
855.595	0.092834
855.894	0.092612
856.192	0.092560
856.491	0.092447
856.789	0.092086
857.087	0.091757
857.385	0.091278
857.683	0.091124
857.981	0.090961
858.279	0.090630
858.577	0.089594
858.875	0.088950
859.173	0.088195
859.471	0.088205
859.768	0.087548
860.066	0.087345
860.363	0.086718
860.661	0.086751
860.959	0.086899
861.256	0.087390
861.553	0.087204
861.851	0.086488
862.148	0.086394
862.445	0.086092
862.742	0.085500
863.039	0.084952
863.337	0.084735
863.634	0.083692
863.931	0.083258
864.227	0.083370
864.524	0.083147
864.821	0.083604
865.118	0.083423
865.415	0.083202
865.711	0.082355
866.008	0.081514
866.304	0.081132
866.601	0.080612
866.897	0.079922
867.194	0.079030
867.490	0.079004
867.786	0.078805
868.082	0.079052
868.379	0.078760
868.675	0.078279
868.971	0.078400
869.267	0.078883
869.563	0.079400
869.859	0.080372
870.154	0.080311
870.450	0.080152
870.746	0.079531
871.042	0.079296
871.337	0.079166
871.633	0.079579
871.928	0.079942
872.224	0.079614
872.519	0.078930
872.815	0.079059
873.110	0.079239
873.405	0.079014
873.700	0.078873
873.995	0.078663
874.291	0.078175
874.586	0.078668
874.881	0.078719
875.175	0.078912
875.470	0.078404
875.765	0.078106
876.060	0.078681
876.355	0.078950
876.649	0.078599
876.944	0.079516
877.238	0.079661
877.533	0.079778
877.827	0.080359
878.122	0.081265
878.416	0.081891
878.710	0.082993
879.005	0.082776
879.299	0.082537
879.593	0.083155
879.887	0.082958
880.181	0.082890
880.475	0.083425
880.769	0.083472
881.063	0.083863
881.356	0.083682
881.650	0.083559
881.944	0.082989
882.238	0.074081
882.531	0.094534
882.825	0.078049
883.118	0.073641
883.412	0.081848
883.705	0.081194
883.998	0.081860
884.291	0.078139
884.585	0.070795
884.878	0.070242
>>>>>>>>>> END of Data <<<<<<<<<<
>>>>>>>>>> Raw Data Start <<<<<<<<
190.664	-398
191.040	6
191.415	6
191.791	5
192.166	11
192.542	12
192.917	5
193.293	8
193.668	9
194.044	8
194.419	-10
194.794	10
195.170	10
195.545	10
195.920	11
196.296	11
196.671	11
197.046	12
197.421	12
197.796	13
198.171	13
198.546	14
198.922	14
199.297	14
199.672	15
200.047	15
200.422	16
200.796	16
201.171	16
201.546	16
201.921	15
202.296	15
202.671	16
203.045	16
203.420	17
203.795	17
204.170	17
204.544	17
204.919	17
205.294	17
205.668	17
206.043	17
206.417	17
206.792	17
207.166	16
207.541	16
207.915	16
208.289	16
208.664	16
209.038	16
209.412	16
209.787	16
210.161	17
210.535	17
210.909	17
211.284	17
211.658	16
212.032	16
212.406	16
212.780	16
213.154	16
213.528	15
213.902	15
214.276	16
214.650	15
215.024	16
215.398	16
215.772	15
216.145	15
216.519	16
216.893	15
217.267	15
217.640	15
218.014	15
218.388	15
218.761	15
219.135	15
219.508	15
219.882	15
220.256	15
220.629	15
221.003	15
221.376	15
221.749	16
222.123	16
222.496	16
222.869	16
223.243	16
223.616	16
223.989	16
224.362	16
224.736	17
225.109	17
225.482	17
225.855	17
226.228	17
226.601	17
226.974	17
227.347	17
227.720	17
228.093	17
228.466	17
228.839	17
229.212	17
229.585	16
229.957	16
230.330	16
230.703	16
231.076	17
231.448	17
231.821	16
232.194	16
232.566	16
232.939	16
233.311	16
233.684	16
234.056	16
234.429	17
234.801	17
235.174	17
235.546	17
235.918	17
236.291	18
236.663	18
237.035	18
237.408	18
237.780	18
238.152	19
238.524	19
238.896	19
239.268	19
239.641	19
240.013	19
240.385	19
240.757	19
241.129	20
241.500	19
241.872	19
242.244	19
242.616	19
242.988	19
243.360	19
243.731	19
244.103	19
244.475	19
244.847	19
245.218	19
245.590	19
245.961	19
246.333	18
246.705	18
247.076	18
247.448	19
247.819	19
248.190	19
248.562	19
248.933	19
249.305	18
249.676	19
250.047	18
250.418	18
250.790	18
251.161	18
251.532	18
251.903	18
252.274	17
252.645	18
253.016	18
253.387	18
253.758	18
254.129	18
254.500	18
254.871	18
255.242	18
255.613	18
255.984	18
256.355	18
256.725	18
257.096	18
257.467	18
257.838	18
258.208	18
258.579	18
258.949	19
259.320	19
259.690	19
260.061	19
260.431	19
260.802	19
261.172	19
261.543	19
261.913	19
262.283	19
262.654	19
263.024	19
263.394	19
263.764	19
264.135	20
264.505	20
264.875	20
265.245	20
265.615	20
265.985	20
266.355	20
266.725	20
267.095	20
267.465	20
267.835	19
268.205	20
268.575	20
268.944	20
269.314	20
269.684	19
270.054	19
270.423	19
270.793	19
271.163	19
271.532	19
271.902	19
272.271	18
272.641	18
273.010	18
273.380	18
273.749	18
274.119	19
274.488	19
274.857	18
275.227	19
275.596	19
275.965	19
276.335	19
276.704	19
277.073	19
277.442	20
277.811	20
278.180	20
278.549	20
278.918	20
279.287	20
279.656	20
280.025	20
280.394	21
280.763	21
281.132	21
281.501	21
281.869	21
282.238	20
282.607	21
282.976	20
283.344	20
283.713	20
284.081	20
284.450	20
284.819	20
285.187	20
285.556	19
285.924	19
286.292	20
286.661	20
287.029	19
287.398	19
287.766	20
288.134	20
288.502	20
288.871	20
289.239	20
289.607	20
289.975	20
290.343	20
290.711	20
291.079	20
291.447	21
291.815	20
292.183	20
292.551	20
292.919	20
293.287	20
293.655	20
294.022	20
294.390	20
294.758	20
295.126	20
295.493	20
295.861	19
296.229	19
296.596	19
296.964	19
297.331	20
297.699	20
298.066	20
298.434	20
298.801	20
299.168	19
299.536	20
299.903	20
300.270	20
300.638	20
301.005	20
301.372	20
301.739	20
302.106	20
302.473	20
302.840	21
303.207	20
303.574	20
303.941	21
304.308	21
304.675	21
305.042	21
305.409	21
305.776	21
306.143	22
306.509	22
306.876	22
307.243	22
307.610	23
307.976	23
308.343	23
308.709	23
309.076	23
309.442	23
309.809	24
310.175	24
310.542	24
310.908	25
311.275	26
311.641	26
312.007	27
312.373	27
312.740	28
313.106	29
313.472	29
313.838	30
314.204	30
314.570	32
314.936	33
315.302	33
315.668	35
316.034	36
316.400	37
316.766	38
317.132	39
317.498	40
317.864	42
318.230	43
318.595	45
318.961	46
319.327	47
319.692	49
320.058	51
320.424	53
320.789	55
321.155	58
321.520	60
321.886	62
322.251	65
322.616	68
322.982	71
323.347	74
323.712	77
324.078	80
324.443	84
324.808	88
325.173	91
325.539	95
325.904	98
326.269	102
326.634	106
326.999	110
327.364	113
327.729	117
328.094	121
328.459	125
328.823	129
329.188	132
329.553	137
329.918	141
330.283	145
330.647	148
331.012	152
331.377	156
331.741	161
332.106	165
332.470	169
332.835	173
333.199	178
333.564	182
333.928	186
334.293	191
334.657	195
335.021	200
335.386	205
335.750	209
336.114	214
336.478	219
336.843	224
337.207	228
337.571	233
337.935	237
338.299	242
338.663	247
339.027	252
339.391	256
339.755	261
340.119	265
340.483	270
340.846	274
341.210	278
341.574	282
341.938	286
342.301	290
342.665	294
343.029	298
343.392	302
343.756	306
344.119	310
344.483	313
344.846	317
345.210	321
345.573	325
345.937	328
346.300	331
346.663	335
347.027	338
347.390	341
347.753	345
348.116	348
348.479	351
348.843	355
349.206	358
349.569	362
349.932	365
350.295	368
350.658	371
351.021	374
351.383	377
351.746	380
352.109	382
352.472	385
352.835	388
353.197	390
353.560	393
353.923	396
354.285	398
354.648	401
355.011	404
355.373	406
355.736	408
356.098	410
356.461	413
356.823	415
357.185	416
357.548	418
357.910	420
358.272	423
358.635	426
358.997	428
359.359	430
359.721	432
360.083	434
360.445	436
360.807	438
361.169	440
361.531	442
361.893	443
362.255	445
362.617	447
362.979	450
363.341	452
363.703	454
364.064	457
364.426	459
364.788	462
365.149	464
365.511	466
365.873	467
366.234	469
366.596	470
366.957	471
367.319	472
367.680	474
368.042	475
368.403	477
368.764	477
369.126	478
369.487	479
369.848	480
370.209	481
370.570	482
370.931	482
371.293	482
371.654	483
372.015	483
372.376	483
372.737	484
373.098	485
373.458	486
373.819	487
374.180	488
374.541	490
374.902	492
375.263	493
375.623	496
375.984	498
376.345	500
376.705	502
377.066	504
377.426	506
377.787	508
378.147	509
378.508	511
378.868	513
379.228	515
379.589	517
379.949	518
380.309	520
380.670	522
381.030	524
381.390	525
381.750	526
382.110	528
382.470	529
382.830	529
383.190	530
383.550	532
383.910	533
384.270	535
384.630	537
384.990	540
385.350	542
385.709	544
386.069	546
386.429	548
386.788	550
387.148	551
387.508	553
387.867	555
388.227	558
388.586	561
388.946	564
389.305	568
389.665	572
390.024	576
390.383	580
390.743	584
391.102	587
391.461	590
391.820	592
392.179	593
392.539	595
392.898	597
393.257	600
393.616	603
393.975	607
394.334	611
394.693	617
395.051	622
395.410	628
395.769	632
396.128	635
396.487	638
396.845	640
397.204	642
397.563	643
397.921	645
398.280	646
398.638	648
398.997	650
399.355	652
399.714	654
400.072	657
400.431	660
400.789	662
401.147	666
401.506	668
401.864	671
402.222	673
402.580	673
402.938	674
403.297	674
403.655	674
404.013	675
404.371	676
404.729	677
405.087	679
405.444	681
405.802	684
406.160	686
406.518	689
406.876	691
407.233	693
407.591	696
407.949	697
408.306	699
408.664	701
409.022	703
409.379	705
409.737	708
410.094	711
410.451	714
410.809	718
411.166	722
411.523	726
411.881	729
412.238	732
412.595	736
412.952	738
413.310	741
413.667	743
414.024	747
414.381	749
414.738	753
415.095	756
415.452	760
415.809	763
416.165	767
416.522	770
416.879	775
417.236	780
417.593	787
417.949	795
418.306	804
418.663	814
419.019	824
419.376	835
419.732	845
420.089	854
420.445	863
420.802	873
421.158	881
421.514	888
421.871	895
422.227	902
422.583	908
422.939	913
423.295	919
423.652	925
424.008	930
424.364	935
424.720	939
425.076	942
425.432	945
425.788	948
426.143	953
426.499	958
426.855	964
427.211	970
427.567	977
427.922	983
428.278	986
428.634	989
428.989	993
429.345	997
429.700	1002
430.056	1009
430.411	1015
430.767	1023
431.122	1030
431.478	1036
431.833	1042
432.188	1047
432.543	1052
432.899	1056
433.254	1059
433.609	1061
433.964	1062
434.319	1063
434.674	1064
435.029	1067
435.384	1070
435.739	1075
436.094	1083
436.449	1091
436.804	1101
437.158	1111
437.513	1122
437.868	1136
438.223	1149
438.577	1164
438.932	1179
439.287	1195
439.641	1211
439.996	1227
440.350	1242
440.704	1258
441.059	1273
441.413	1289
441.768	1304
442.122	1319
442.476	1333
442.830	1347
443.185	1362
443.539	1375
443.893	1388
444.247	1398
444.601	1407
444.955	1414
445.309	1418
445.663	1422
446.017	1424
446.371	1426
446.724	1427
447.078	1428
447.432	1427
447.786	1426
448.139	1425
448.493	1423
448.847	1419
449.200	1416
449.554	1412
449.907	1409
450.261	1405
450.614	1402
450.968	1399
451.321	1396
451.674	1394
452.027	1391
452.381	1390
452.734	1390
453.087	1388
453.440	1389
453.793	1390
454.146	1393
454.499	1400
454.852	1408
455.205	1417
455.558	1427
455.911	1437
456.264	1446
456.617	1456
456.970	1465
457.322	1473
457.675	1481
458.028	1487
458.380	1492
458.733	1496
459.086	1501
459.438	1508
459.791	1515
460.143	1524
460.496	1537
460.848	1550
461.200	1566
461.553	1582
461.905	1597
462.257	1609
462.609	1621
462.961	1631
463.314	1639
463.666	1647
464.018	1653
464.370	1658
464.722	1666
465.074	1674
465.426	1679
465.777	1686
466.129	1690
466.481	1692
466.833	1693
467.184	1692
467.536	1688
467.888	1682
468.239	1676
468.591	1670
468.943	1665
469.294	1660
469.646	1659
469.997	1661
470.348	1665
470.700	1674
471.051	1686
471.402	1701
471.754	1720
472.105	1739
472.456	1760
472.807	1785
473.158	1811
473.509	1840
473.860	1873
474.211	1905
474.562	1940
474.913	1976
475.264	2015
475.615	2052
475.966	2089
476.316	2125
476.667	2162
477.018	2199
477.368	2237
477.719	2275
478.070	2311
478.420	2344
478.771	2378
479.121	2411
479.472	2443
479.822	2477
480.172	2514
480.523	2558
480.873	2620
481.223	2724
481.573	2881
481.924	3077
482.274	3299
482.624	3532
482.974	3766
483.324	3969
483.674	4121
484.024	4224
484.374	4292
484.724	4333
485.073	4361
485.423	4383
485.773	4404
486.123	4424
486.472	4443
486.822	4461
487.172	4476
487.521	4486
487.871	4487
488.220	4469
488.570	4407
488.919	4292
489.268	4136
489.618	3954
489.967	3758
490.316	3562
490.666	3391
491.015	3268
491.364	3192
491.713	3151
492.062	3135
492.411	3132
492.760	3136
493.109	3141
493.458	3147
493.807	3151
494.156	3153
494.505	3156
494.853	3160
495.202	3166
495.551	3177
495.900	3189
496.248	3201
496.597	3214
496.945	3225
497.294	3236
497.642	3249
497.991	3263
498.339	3283
498.688	3304
499.036	3323
499.384	3340
499.732	3356
500.081	3366
500.429	3376
500.777	3384
501.125	3391
501.473	3398
501.821	3407
502.169	3414
502.517	3420
502.865	3421
503.213	3420
503.561	3417
503.908	3413
504.256	3409
504.604	3403
504.952	3395
505.299	3385
505.647	3373
505.994	3358
506.342	3343
506.689	3328
507.037	3313
507.384	3301
507.732	3292
508.079	3283
508.426	3275
508.774	3268
509.121	3258
509.468	3248
509.815	3238
510.162	3227
510.509	3218
510.856	3206
511.203	3194
511.550	3182
511.897	3172
512.244	3161
512.591	3151
512.938	3140
513.284	3130
513.631	3119
513.978	3107
514.324	3094
514.671	3080
515.018	3066
515.364	3055
515.711	3043
516.057	3031
516.403	3020
516.750	3008
517.096	2994
517.443	2979
517.789	2964
518.135	2949
518.481	2937
518.827	2924
519.173	2910
519.519	2898
519.865	2886
520.211	2875
520.557	2865
520.903	2856
521.249	2847
521.595	2839
521.941	2831
522.287	2823
522.632	2815
522.978	2808
523.324	2802
523.669	2797
524.015	2795
524.360	2797
524.706	2802
525.051	2810
525.397	2821
525.742	2832
526.087	2844
526.433	2856
526.778	2866
527.123	2872
527.468	2878
527.813	2882
528.158	2886
528.504	2892
528.849	2904
529.193	2919
529.538	2938
529.883	2963
530.228	2991
530.573	3023
530.918	3056
531.263	3089
531.607	3119
531.952	3146
532.296	3167
532.641	3183
532.986	3195
533.330	3206
533.675	3218
534.019	3235
534.363	3258
534.708	3286
535.052	3319
535.396	3354
535.741	3388
536.085	3416
536.429	3441
536.773	3461
537.117	3475
537.461	3486
537.805	3497
538.149	3508
538.493	3520
538.837	3534
539.181	3552
539.524	3577
539.868	3606
540.212	3639
540.556	3674
540.899	3711
541.243	3744
541.586	3770
541.930	3788
542.273	3800
542.617	3807
542.960	3814
543.304	3828
543.647	3846
543.990	3873
544.333	3904
544.677	3936
545.020	3965
545.363	3987
545.706	4003
546.049	4012
546.392	4012
546.735	4006
547.078	3997
547.421	3988
547.764	3982
548.106	3978
548.449	3977
548.792	3984
549.135	3999
549.477	4018
549.820	4038
550.162	4052
550.505	4062
550.847	4065
551.190	4062
551.532	4056
551.875	4050
552.217	4047
552.559	4047
552.901	4054
553.244	4065
553.586	4079
553.928	4094
554.270	4106
554.612	4113
554.954	4116
555.296	4116
555.638	4116
555.980	4115
556.322	4118
556.663	4129
557.005	4148
557.347	4178
557.689	4209
558.030	4241
558.372	4268
558.713	4292
559.055	4313
559.396	4334
559.738	4356
560.079	4381
560.421	4412
560.762	4449
561.103	4493
561.444	4543
561.786	4595
562.127	4652
562.468	4714
562.809	4783
563.150	4861
563.491	4946
563.832	5040
564.173	5149
564.514	5274
564.855	5428
565.195	5619
565.536	5852
565.877	6124
566.218	6436
566.558	6788
566.899	7175
567.239	7592
567.580	8029
567.920	8479
568.261	8930
568.601	9392
568.941	9868
569.282	10358
569.622	10865
569.962	11392
570.302	11952
570.643	12529
570.983	13108
571.323	13664
571.663	14197
572.003	14699
572.343	15165
572.683	15597
573.022	16034
573.362	16491
573.702	16961
574.042	17429
574.381	17872
574.721	18292
575.061	18691
575.400	19049
575.740	19362
576.079	19634
576.419	19904
576.758	20214
577.097	20584
577.437	20990
577.776	21424
578.115	21879
578.454	22342
578.794	22764
579.133	23082
579.472	23288
579.811	23390
580.150	23394
580.489	23323
580.828	23217
581.167	23115
581.505	23031
581.844	22957
582.183	22885
582.522	22831
582.860	22791
583.199	22753
583.538	22683
583.876	22543
584.215	22309
584.553	21970
584.891	21534
585.230	21009
585.568	20435
585.906	19856
586.245	19332
586.583	18880
586.921	18505
587.259	18164
587.597	17823
587.935	17471
588.273	17110
588.611	16773
588.949	16470
589.287	16211
589.625	16003
589.963	15834
590.300	15694
590.638	15565
590.976	15424
591.313	15264
591.651	15111
591.989	14977
592.326	14866
592.664	14768
593.001	14686
593.338	14630
593.676	14595
594.013	14588
594.350	14627
594.687	14704
595.025	14792
595.362	14870
595.699	14920
596.036	14946
596.373	14940
596.710	14894
597.047	14823
597.384	14740
597.720	14649
598.057	14573
598.394	14514
598.731	14475
599.067	14460
599.404	14471
599.741	14517
600.077	14588
600.414	14669
600.750	14754
601.087	14816
601.423	14840
601.759	14831
602.096	14795
602.432	14740
602.768	14664
603.104	14561
603.440	14437
603.776	14306
604.112	14165
604.448	14022
604.784	13873
605.120	13716
605.456	13562
605.792	13402
606.128	13235
606.463	13065
606.799	12893
607.135	12735
607.470	12580
607.806	12427
608.142	12278
608.477	12135
608.812	11996
609.148	11856
609.483	11710
609.819	11562
610.154	11419
610.489	11288
610.824	11172
611.159	11075
611.494	10976
611.830	10889
612.165	10803
612.500	10708
612.834	10600
613.169	10477
613.504	10342
613.839	10194
614.174	10026
614.509	9857
614.843	9689
615.178	9530
615.512	9372
615.847	9218
616.182	9064
616.516	8909
616.850	8745
617.185	8577
617.519	8405
617.853	8222
618.188	8032
618.522	7858
618.856	7711
619.190	7582
619.524	7468
619.858	7376
620.192	7303
620.526	7238
620.860	7174
621.194	7113
621.528	7052
621.862	6991
622.195	6919
622.529	6843
622.863	6765
623.196	6686
623.530	6606
623.864	6527
624.197	6446
624.530	6368
624.864	6297
625.197	6223
625.531	6140
625.864	6041
626.197	5934
626.530	5820
626.863	5692
627.196	5554
627.529	5413
627.862	5275
628.195	5138
628.528	5003
628.861	4873
629.194	4757
629.527	4646
629.860	4536
630.192	4428
630.525	4327
630.858	4233
631.190	4144
631.523	4058
631.855	3978
632.188	3908
632.520	3842
632.852	3780
633.185	3716
633.517	3655
633.849	3599
634.182	3548
634.514	3500
634.846	3456
635.178	3418
635.510	3383
635.842	3352
636.174	3322
636.506	3292
636.837	3262
637.169	3233
637.501	3202
637.833	3168
638.164	3129
638.496	3087
638.828	3040
639.159	2987
639.491	2929
639.822	2870
640.154	2810
640.485	2751
640.816	2693
641.147	2635
641.479	2579
641.810	2525
642.141	2472
642.472	2421
642.803	2369
643.134	2321
643.465	2279
643.796	2246
644.127	2222
644.458	2209
644.789	2208
645.119	2220
645.450	2240
645.781	2262
646.111	2284
646.442	2303
646.773	2319
647.103	2330
647.433	2340
647.764	2350
648.094	2365
648.425	2383
648.755	2405
649.085	2431
649.415	2458
649.745	2487
650.075	2516
650.405	2549
650.735	2621
651.065	3143
651.395	4769
651.725	7469
652.055	10965
652.385	14615
652.715	18264
653.044	21915
653.374	25571
653.704	29232
654.033	31621
654.363	33270
654.692	34365
655.022	35080
655.351	35550
655.680	35841
656.010	36000
656.339	36072
656.668	36091
656.997	36082
657.326	36053
657.655	35974
657.984	35434
658.313	33781
658.642	31045
658.971	27504
659.300	23805
659.629	20105
659.958	16407
660.286	12709
660.615	9012
660.944	6594
661.272	4920
661.601	3800
661.929	3059
662.258	2558
662.586	2231
662.915	2030
663.243	1914
663.571	1848
663.899	1808
664.228	1783
664.556	1766
664.884	1755
665.212	1746
665.540	1739
665.868	1736
666.196	1734
666.524	1733
666.852	1734
667.179	1741
667.507	1754
667.835	1773
668.162	1798
668.490	1830
668.818	1867
669.145	1907
669.473	1944
669.800	1980
670.127	2012
670.455	2039
670.782	2060
671.109	2080
671.436	2096
671.764	2109
672.091	2120
672.418	2129
672.745	2137
673.072	2145
673.399	2154
673.726	2163
674.053	2171
674.379	2173
674.706	2171
675.033	2169
675.359	2165
675.686	2160
676.013	2157
676.339	2158
676.666	2164
676.992	2179
677.318	2201
677.645	2226
677.971	2249
678.297	2269
678.624	2290
678.950	2309
679.276	2327
679.602	2345
679.928	2363
680.254	2386
680.580	2415
680.906	2452
681.232	2498
681.558	2546
681.883	2594
682.209	2638
682.535	2679
682.860	2716
683.186	2748
683.511	2773
683.837	2788
684.162	2800
684.488	2809
684.813	2819
685.138	2829
685.464	2836
685.789	2843
686.114	2850
686.439	2858
686.764	2868
687.089	2874
687.414	2875
687.739	2865
688.064	2848
688.389	2825
688.714	2799
689.039	2770
689.363	2740
689.688	2707
690.013	2675
690.337	2646
690.662	2623
690.986	2602
691.311	2580
691.635	2559
691.959	2539
692.284	2525
692.608	2521
692.932	2525
693.256	2533
693.580	2543
693.904	2556
694.228	2572
694.552	2586
694.876	2593
695.200	2590
695.524	2579
695.848	2562
696.172	2541
696.495	2519
696.819	2496
697.143	2472
697.466	2447
697.790	2427
698.113	2412
698.437	2405
698.760	2404
699.083	2402
699.407	2395
699.730	2382
700.053	2362
700.376	2334
700.699	2296
701.022	2249
701.345	2197
701.668	2149
701.991	2108
702.314	2080
702.637	2066
702.960	2070
703.283	2092
703.605	2129
703.928	2180
704.251	2237
704.573	2295
704.896	2348
705.218	2389
705.540	2423
705.863	2450
706.185	2472
706.507	2491
706.830	2509
707.152	2528
707.474	2548
707.796	2571
708.118	2595
708.440	2618
708.762	2638
709.084	2654
709.406	2663
709.728	2664
710.049	2659
710.371	2647
710.693	2630
711.014	2610
711.336	2591
711.658	2573
711.979	2558
712.301	2544
712.622	2529
712.943	2511
713.265	2490
713.586	2467
713.907	2446
714.228	2427
714.549	2411
714.870	2401
715.191	2395
715.512	2394
715.833	2391
716.154	2384
716.475	2374
716.796	2359
717.117	2336
717.437	2310
717.758	2281
718.078	2251
718.399	2221
718.719	2195
719.040	2172
719.360	2155
719.681	2142
720.001	2135
720.321	2130
720.642	2127
720.962	2129
721.282	2135
721.602	2141
721.922	2149
722.242	2160
722.562	2173
722.882	2189
723.202	2204
723.521	2218
723.841	2232
724.161	2248
724.481	2263
724.800	2278
725.120	2299
725.439	2323
725.759	2350
726.078	2381
726.398	2418
726.717	2464
727.036	2517
727.355	2572
727.675	2627
727.994	2678
728.313	2727
728.632	2770
728.951	2805
729.270	2836
729.589	2865
729.908	2900
730.226	2940
730.545	2984
730.864	3031
731.182	3082
731.501	3134
731.820	3183
732.138	3226
732.457	3264
732.775	3299
733.093	3327
733.412	3344
733.730	3348
734.048	3341
734.367	3326
734.685	3306
735.003	3283
735.321	3263
735.639	3246
735.957	3233
736.275	3221
736.593	3204
736.910	3177
737.228	3139
737.546	3091
737.863	3035
738.181	2973
738.499	2908
738.816	2843
739.134	2779
739.451	2715
739.768	2650
740.086	2588
740.403	2530
740.720	2476
741.038	2425
741.355	2377
741.672	2329
741.989	2280
742.306	2229
742.623	2176
742.940	2125
743.257	2078
743.573	2036
743.890	2002
744.207	1977
744.523	1959
744.840	1947
745.157	1940
745.473	1940
745.790	1947
746.106	1962
746.422	1985
746.739	2013
747.055	2048
747.371	2087
747.687	2128
748.004	2167
748.320	2200
748.636	2230
748.952	2261
749.268	2291
749.584	2321
749.899	2347
750.215	2375
750.531	2406
750.847	2440
751.162	2475
751.478	2508
751.793	2543
752.109	2581
752.424	2621
752.740	2662
753.055	2709
753.370	2765
753.686	2829
754.001	2899
754.316	2972
754.631	3049
754.946	3131
755.261	3218
755.576	3301
755.891	3382
756.206	3462
756.521	3547
756.836	3633
757.150	3717
757.465	3789
757.780	3852
758.094	3904
758.409	3945
758.723	3971
759.038	3982
759.352	3983
759.667	3971
759.981	3952
760.295	3933
760.609	3919
760.923	3909
761.238	3905
761.552	3901
761.866	3896
762.180	3889
762.493	3869
762.807	3829
763.121	3767
763.435	3690
763.749	3605
764.062	3526
764.376	3460
764.689	3414
765.003	3390
765.316	3387
765.630	3398
765.943	3418
766.257	3442
766.570	3462
766.883	3468
767.196	3459
767.509	3438
767.822	3406
768.135	3364
768.448	3319
768.761	3271
769.074	3230
769.387	3198
769.700	3178
770.013	3167
770.325	3157
770.638	3143
770.950	3118
771.263	3076
771.575	3019
771.888	2945
772.200	2859
772.513	2766
772.825	2668
773.137	2568
773.449	2469
773.761	2373
774.074	2284
774.386	2204
774.698	2138
775.010	2084
775.321	2045
775.633	2020
775.945	2006
776.257	1998
776.568	1996
776.880	2003
777.192	2018
777.503	2039
777.815	2067
778.126	2102
778.438	2145
778.749	2190
779.060	2235
779.372	2276
779.683	2316
779.994	2353
780.305	2382
780.616	2401
780.927	2415
781.238	2419
781.549	2414
781.860	2398
782.171	2376
782.481	2351
782.792	2327
783.103	2302
783.413	2276
783.724	2248
784.034	2221
784.345	2197
784.655	2174
784.966	2152
785.276	2128
785.586	2104
785.896	2081
786.207	2056
786.517	2029
786.827	2003
787.137	1979
787.447	1955
787.757	1932
788.066	1911
788.376	1890
788.686	1870
788.996	1848
789.305	1828
789.615	1811
789.925	1802
790.234	1799
790.544	1803
790.853	1812
791.162	1822
791.472	1830
791.781	1834
792.090	1830
792.399	1819
792.708	1802
793.017	1783
793.326	1765
793.635	1748
793.944	1732
794.253	1719
794.562	1709
794.871	1703
795.179	1699
795.488	1693
795.797	1684
796.105	1669
796.414	1644
796.722	1610
797.031	1567
797.339	1515
797.647	1458
797.956	1397
798.264	1340
798.572	1294
798.880	1257
799.188	1231
799.496	1211
799.804	1197
800.112	1185
800.420	1176
800.728	1166
801.035	1154
801.343	1140
801.651	1129
801.958	1126
802.266	1131
802.573	1140
802.881	1153
803.188	1168
803.496	1185
803.803	1202
804.110	1218
804.417	1231
804.724	1244
805.032	1255
805.339	1265
805.646	1271
805.953	1274
806.259	1275
806.566	1273
806.873	1268
807.180	1262
807.486	1255
807.793	1247
808.100	1235
808.406	1214
808.713	1186
809.019	1154
809.326	1122
809.632	1091
809.938	1061
810.244	1035
810.551	1013
810.857	994
811.163	977
811.469	960
811.775	941
812.081	922
812.387	905
812.692	891
812.998	880
813.304	871
813.610	864
813.915	859
814.221	854
814.526	850
814.832	846
815.137	843
815.443	837
815.748	829
816.053	818
816.358	807
816.664	796
816.969	787
817.274	778
817.579	772
817.884	767
818.189	766
818.493	766
818.798	764
819.103	759
819.408	752
819.712	743
820.017	733
820.321	724
820.626	713
820.930	704
821.235	698
821.539	695
821.843	695
822.148	697
822.452	698
822.756	697
823.060	695
823.364	690
823.668	684
823.972	677
824.276	669
824.580	664
824.883	661
825.187	659
825.491	659
825.795	659
826.098	659
826.402	658
826.705	655
827.008	651
827.312	644
827.615	634
827.918	620
828.222	605
828.525	590
828.828	576
829.131	561
829.434	547
829.737	533
830.040	523
830.343	514
830.645	506
830.948	498
831.251	491
831.553	484
831.856	478
832.159	473
832.461	467
832.764	460
833.066	454
833.368	449
833.671	444
833.973	441
834.275	438
834.577	436
834.879	432
835.181	428
835.483	423
835.785	417
836.087	409
836.389	401
836.690	390
836.992	380
837.294	369
837.595	357
837.897	345
838.198	333
838.500	321
838.801	310
839.103	301
839.404	294
839.705	287
840.006	282
840.307	277
840.608	274
840.910	272
841.210	270
841.511	268
841.812	265
842.113	262
842.414	259
842.715	254
843.015	249
843.316	243
843.616	238
843.917	234
844.217	230
844.518	226
844.818	224
845.118	222
845.419	221
845.719	219
846.019	218
846.319	217
846.619	217
846.919	216
847.219	215
847.519	213
847.819	212
848.118	212
848.418	215
848.718	221
849.017	231
849.317	246
849.616	264
849.916	285
850.215	308
850.515	332
850.814	357
851.113	379
851.412	399
851.712	418
852.011	435
852.310	451
852.609	465
852.908	477
853.206	488
853.505	498
853.804	507
854.103	515
854.401	520
854.700	522
854.999	521
855.297	514
855.595	503
855.894	489
856.192	471
856.491	451
856.789	428
857.087	406
857.385	384
857.683	365
857.981	347
858.279	331
858.577	316
858.875	303
859.173	292
859.471	283
859.768	276
860.066	269
860.363	264
860.661	259
860.959	255
861.256	252
861.553	248
861.851	243
862.148	238
862.445	233
862.742	229
863.039	225
863.337	222
863.634	220
863.931	218
864.227	217
864.524	216
864.821	216
865.118	215
865.415	213
865.711	210
866.008	207
866.304	203
866.601	199
866.897	196
867.194	193
867.490	191
867.786	190
868.082	190
868.379	190
868.675	191
868.971	191
869.267	191
869.563	191
869.859	190
870.154	189
870.450	188
870.746	187
871.042	187
871.337	187
871.633	187
871.928	187
872.224	189
872.519	191
872.815	192
873.110	192
873.405	192
873.700	191
873.995	191
874.291	191
874.586	192
874.881	193
875.175	195
875.470	198
875.765	202
876.060	205
876.355	209
876.649	213
876.944	217
877.238	221
877.533	224
877.827	226
878.122	228
878.416	229
878.710	228
879.005	228
879.299	227
879.593	226
879.887	225
880.181	223
880.475	222
880.769	220
881.063	218
881.356	216
881.650	213
881.944	210
882.238	175
882.531	161
882.825	164
883.118	168
883.412	168
883.705	165
883.998	171
884.291	177
884.585	181
884.878	189
>>>>>>>>>> END of Data <<<<<<<<<<