Date	2021年06月15日火曜日 04時50分25秒
Spectrometers	USB2+H05879
ダーク	使用
リファレンス	使用
積分時間[msec]	10
平均回数	280
ｽﾑｰｼﾞﾝｸﾞ	10
Electrical Dark	USE
ピクセル数	2048
計測モード	吸光度
保存開始波長[nm]	190.664
保存終了波長[nm]	884.878
保存ﾋﾟｯﾁ波長[nm]	全波長

>>>>>>>>>> Data Start <<<<<<<<<<<<
190.664	0.000000
191.040	0.000000
191.415	0.000000
191.791	-2.351098
192.166	-0.585786
192.542	-0.946643
192.917	0.000000
193.293	-0.353185
193.668	-0.117599
194.044	-0.994533
194.419	0.000000
194.794	-1.346078
195.170	-1.263947
195.545	-1.181395
195.920	-1.055398
196.296	-0.944610
196.671	-0.791623
197.046	-0.639895
197.421	-0.585776
197.796	-0.588276
198.171	-0.555389
198.546	-0.509280
198.922	-0.462056
199.297	-0.436111
199.672	-0.411780
200.047	-0.395449
200.422	-0.362919
200.796	-0.359425
201.171	-0.338911
201.546	-0.336554
201.921	-0.324302
202.296	-0.309115
202.671	-0.282850
203.045	-0.258355
203.420	-0.241216
203.795	-0.224359
204.170	-0.207102
204.544	-0.192830
204.919	-0.193731
205.294	-0.200376
205.668	-0.183396
206.043	-0.167681
206.417	-0.181440
206.792	-0.176636
207.166	-0.174503
207.541	-0.175427
207.915	-0.174282
208.289	-0.161623
208.664	-0.147285
209.038	-0.152789
209.412	-0.130175
209.787	-0.110677
210.161	-0.097466
210.535	-0.112487
210.909	-0.109183
211.284	-0.104163
211.658	-0.108612
212.032	-0.120738
212.406	-0.134666
212.780	-0.132355
213.154	-0.122403
213.528	-0.125496
213.902	-0.124404
214.276	-0.098962
214.650	-0.101970
215.024	-0.104674
215.398	-0.100145
215.772	-0.091316
216.145	-0.093504
216.519	-0.087276
216.893	-0.083405
217.267	-0.096500
217.640	-0.105550
218.014	-0.096672
218.388	-0.086030
218.761	-0.087789
219.135	-0.080840
219.508	-0.087228
219.882	-0.085090
220.256	-0.076250
220.629	-0.077894
221.003	-0.081675
221.376	-0.080860
221.749	-0.082192
222.123	-0.086993
222.496	-0.086715
222.869	-0.080951
223.243	-0.075158
223.616	-0.074782
223.989	-0.079637
224.362	-0.084927
224.736	-0.082761
225.109	-0.076743
225.482	-0.078278
225.855	-0.087360
226.228	-0.084653
226.601	-0.085340
226.974	-0.081857
227.347	-0.061135
227.720	-0.058678
228.093	-0.059634
228.466	-0.058384
228.839	-0.060242
229.212	-0.058094
229.585	-0.067581
229.957	-0.069684
230.330	-0.064538
230.703	-0.055524
231.076	-0.060227
231.448	-0.062849
231.821	-0.065531
232.194	-0.060945
232.566	-0.063486
232.939	-0.066439
233.311	-0.067049
233.684	-0.069445
234.056	-0.067281
234.429	-0.062517
234.801	-0.067864
235.174	-0.072662
235.546	-0.073574
235.918	-0.069448
236.291	-0.068034
236.663	-0.052548
237.035	-0.058302
237.408	-0.044546
237.780	-0.034036
238.152	-0.033103
238.524	-0.046204
238.896	-0.043747
239.268	-0.040332
239.641	-0.042471
240.013	-0.034931
240.385	-0.022804
240.757	-0.020809
241.129	-0.017344
241.500	-0.009437
241.872	-0.009763
242.244	-0.008046
242.616	-0.012367
242.988	-0.016178
243.360	-0.010362
243.731	-0.008699
244.103	-0.008438
244.475	-0.017829
244.847	-0.010878
245.218	-0.013248
245.590	-0.015647
245.961	-0.009049
246.333	-0.002102
246.705	-0.003880
247.076	0.003324
247.448	0.010396
247.819	0.012373
248.190	0.013931
248.562	0.008860
248.933	0.008065
249.305	0.005401
249.676	0.007347
250.047	0.000538
250.418	0.000214
250.790	0.004283
251.161	0.003303
251.532	-0.000258
251.903	-0.000824
252.274	0.007230
252.645	0.011174
253.016	0.007150
253.387	0.006720
253.758	0.004955
254.129	-0.001953
254.500	0.001999
254.871	-0.001471
255.242	-0.005898
255.613	-0.010159
255.984	-0.020310
256.355	-0.019116
256.725	-0.011742
257.096	-0.008146
257.467	-0.007594
257.838	-0.002486
258.208	0.005037
258.579	0.002459
258.949	0.003537
259.320	0.017195
259.690	0.020364
260.061	0.021534
260.431	0.027093
260.802	0.031076
261.172	0.032117
261.543	0.032605
261.913	0.035632
262.283	0.035137
262.654	0.034456
263.024	0.033631
263.394	0.035981
263.764	0.040245
264.135	0.045547
264.505	0.038243
264.875	0.046244
265.245	0.041940
265.615	0.042452
265.985	0.045643
266.355	0.050049
266.725	0.049969
267.095	0.045946
267.465	0.048368
267.835	0.041907
268.205	0.034985
268.575	0.036954
268.944	0.041049
269.314	0.037948
269.684	0.046601
270.054	0.037995
270.423	0.036547
270.793	0.048482
271.163	0.050284
271.532	0.055327
271.902	0.059302
272.271	0.068130
272.641	0.068248
273.010	0.065346
273.380	0.060633
273.749	0.055063
274.119	0.062552
274.488	0.074407
274.857	0.076452
275.227	0.071721
275.596	0.067912
275.965	0.074174
276.335	0.076527
276.704	0.071577
277.073	0.071001
277.442	0.070304
277.811	0.077114
278.180	0.088675
278.549	0.084853
278.918	0.075977
279.287	0.073203
279.656	0.070031
280.025	0.070091
280.394	0.062036
280.763	0.069498
281.132	0.079193
281.501	0.076749
281.869	0.072234
282.238	0.062745
282.607	0.054419
282.976	0.065596
283.344	0.072877
283.713	0.072334
284.081	0.075396
284.450	0.086385
284.819	0.089527
285.187	0.095369
285.556	0.097889
285.924	0.094215
286.292	0.088796
286.661	0.095658
287.029	0.100707
287.398	0.109278
287.766	0.106740
288.134	0.111182
288.502	0.104206
288.871	0.100204
289.239	0.113426
289.607	0.117480
289.975	0.122064
290.343	0.128729
290.711	0.117400
291.079	0.116782
291.447	0.116486
291.815	0.110642
292.183	0.107105
292.551	0.110174
292.919	0.106691
293.287	0.106729
293.655	0.102313
294.022	0.101046
294.390	0.106301
294.758	0.103804
295.126	0.094906
295.493	0.102151
295.861	0.103041
296.229	0.104901
296.596	0.112588
296.964	0.106525
297.331	0.103200
297.699	0.104490
298.066	0.099663
298.434	0.105674
298.801	0.112079
299.168	0.113366
299.536	0.119461
299.903	0.113762
300.270	0.115295
300.638	0.123054
301.005	0.137552
301.372	0.151282
301.739	0.166685
302.106	0.165999
302.473	0.173219
302.840	0.187620
303.207	0.199392
303.574	0.217686
303.941	0.237658
304.308	0.242842
304.675	0.257308
305.042	0.274063
305.409	0.288522
305.776	0.310460
306.143	0.330360
306.509	0.344041
306.876	0.372214
307.243	0.395437
307.610	0.423249
307.976	0.444963
308.343	0.469676
308.709	0.494288
309.076	0.522101
309.442	0.546160
309.809	0.579238
310.175	0.615759
310.542	0.645435
310.908	0.669185
311.275	0.695190
311.641	0.723614
312.007	0.759593
312.373	0.794997
312.740	0.827143
313.106	0.863478
313.472	0.901841
313.838	0.938881
314.204	0.971522
314.570	0.991159
314.936	1.018126
315.302	1.043925
315.668	1.072020
316.034	1.101923
316.400	1.131681
316.766	1.150426
317.132	1.183271
317.498	1.207998
317.864	1.221351
318.230	1.239572
318.595	1.266269
318.961	1.289478
319.327	1.316041
319.692	1.332363
320.058	1.343486
320.424	1.360533
320.789	1.376139
321.155	1.392810
321.520	1.407514
321.886	1.433846
322.251	1.457264
322.616	1.475608
322.982	1.495517
323.347	1.511914
323.712	1.531496
324.078	1.545937
324.443	1.562333
324.808	1.574373
325.173	1.592499
325.539	1.611145
325.904	1.623181
326.269	1.636008
326.634	1.645637
326.999	1.650625
327.364	1.662194
327.729	1.680041
328.094	1.690470
328.459	1.699363
328.823	1.714467
329.188	1.724821
329.553	1.728106
329.918	1.739454
330.283	1.751702
330.647	1.765339
331.012	1.776419
331.377	1.777763
331.741	1.784030
332.106	1.793306
332.470	1.800162
332.835	1.805850
333.199	1.813381
333.564	1.824528
333.928	1.831217
334.293	1.840323
334.657	1.847796
335.021	1.858582
335.386	1.862407
335.750	1.864332
336.114	1.871998
336.478	1.875864
336.843	1.881317
337.207	1.888389
337.571	1.894892
337.935	1.896703
338.299	1.897590
338.663	1.898160
339.027	1.908125
339.391	1.910840
339.755	1.912536
340.119	1.917087
340.483	1.917433
340.846	1.921726
341.210	1.925347
341.574	1.926569
341.938	1.924888
342.301	1.929582
342.665	1.929347
343.029	1.930603
343.392	1.935417
343.756	1.937411
344.119	1.937119
344.483	1.940126
344.846	1.940289
345.210	1.943812
345.573	1.946166
345.937	1.948307
346.300	1.952978
346.663	1.954161
347.027	1.958643
347.390	1.962803
347.753	1.961640
348.116	1.966484
348.479	1.970066
348.843	1.969481
349.206	1.968478
349.569	1.968990
349.932	1.971165
350.295	1.973819
350.658	1.977810
351.021	1.983723
351.383	1.984664
351.746	1.985302
352.109	1.987987
352.472	1.991842
352.835	1.992164
353.197	1.993466
353.560	1.998396
353.923	1.997143
354.285	1.996460
354.648	1.996760
355.011	1.998280
355.373	2.002353
355.736	2.002884
356.098	2.001675
356.461	2.005136
356.823	2.007007
357.185	2.014343
357.548	2.014889
357.910	2.016019
358.272	2.014582
358.635	2.009550
358.997	2.010035
359.359	2.013575
359.721	2.013421
360.083	2.016276
360.445	2.016488
360.807	2.017314
361.169	2.013371
361.531	2.018412
361.893	2.019726
362.255	2.021414
362.617	2.021361
362.979	2.022810
363.341	2.021650
363.703	2.025390
364.064	2.026890
364.426	2.030322
364.788	2.028154
365.149	2.030673
365.511	2.031910
365.873	2.035556
366.234	2.039879
366.596	2.042848
366.957	2.042041
367.319	2.041299
367.680	2.038730
368.042	2.036869
368.403	2.038746
368.764	2.044908
369.126	2.043643
369.487	2.046990
369.848	2.047049
370.209	2.049607
370.570	2.048194
370.931	2.049577
371.293	2.045503
371.654	2.045433
372.015	2.047404
372.376	2.050168
372.737	2.049195
373.098	2.050219
373.458	2.052036
373.819	2.055898
374.180	2.058655
374.541	2.062120
374.902	2.064329
375.263	2.066195
375.623	2.067523
375.984	2.071286
376.345	2.068199
376.705	2.072937
377.066	2.073660
377.426	2.074647
377.787	2.075197
378.147	2.078935
378.508	2.080672
378.868	2.086285
379.228	2.086792
379.589	2.086390
379.949	2.084115
380.309	2.086042
380.670	2.085595
381.030	2.081937
381.390	2.080285
381.750	2.077708
382.110	2.076073
382.470	2.077863
382.830	2.078423
383.190	2.079783
383.550	2.077248
383.910	2.083624
384.270	2.084636
384.630	2.087144
384.990	2.086828
385.350	2.087584
385.709	2.086494
386.069	2.087415
386.429	2.085313
386.788	2.089177
387.148	2.091887
387.508	2.097029
387.867	2.098207
388.227	2.099580
388.586	2.105201
388.946	2.108067
389.305	2.110122
389.665	2.111470
390.024	2.112418
390.383	2.116455
390.743	2.117798
391.102	2.117742
391.461	2.114317
391.820	2.113062
392.179	2.110349
392.539	2.115470
392.898	2.118248
393.257	2.120050
393.616	2.125813
393.975	2.127014
394.334	2.129380
394.693	2.129248
395.051	2.128423
395.410	2.130961
395.769	2.134512
396.128	2.134219
396.487	2.132443
396.845	2.133579
397.204	2.134234
397.563	2.132354
397.921	2.129962
398.280	2.130114
398.638	2.129662
398.997	2.130304
399.355	2.127966
399.714	2.129167
400.072	2.126502
400.431	2.123329
400.789	2.123254
401.147	2.118036
401.506	2.117064
401.864	2.114199
402.222	2.112553
402.580	2.109101
402.938	2.107268
403.297	2.103595
403.655	2.101223
404.013	2.102236
404.371	2.102133
404.729	2.100815
405.087	2.100689
405.444	2.099846
405.802	2.097340
406.160	2.099466
406.518	2.098942
406.876	2.098369
407.233	2.098472
407.591	2.097884
407.949	2.097553
408.306	2.096221
408.664	2.096976
409.022	2.099802
409.379	2.096731
409.737	2.095896
410.094	2.094957
410.451	2.093190
410.809	2.092648
411.166	2.090949
411.523	2.090803
411.881	2.089644
412.238	2.088743
412.595	2.088956
412.952	2.087644
413.310	2.086883
413.667	2.084782
414.024	2.084713
414.381	2.084363
414.738	2.080526
415.095	2.077375
415.452	2.076671
415.809	2.075580
416.165	2.074775
416.522	2.071413
416.879	2.071093
417.236	2.067783
417.593	2.065215
417.949	2.063539
418.306	2.062321
418.663	2.064530
419.019	2.061832
419.376	2.057876
419.732	2.055886
420.089	2.054998
420.445	2.054899
420.802	2.055950
421.158	2.052919
421.514	2.048914
421.871	2.045824
422.227	2.043742
422.583	2.042498
422.939	2.038147
423.295	2.035456
423.652	2.031754
424.008	2.026809
424.364	2.023620
424.720	2.023334
425.076	2.022988
425.432	2.020295
425.788	2.018422
426.143	2.013907
426.499	2.009890
426.855	2.009059
427.211	2.006350
427.567	2.002533
427.922	1.999160
428.278	1.990665
428.634	1.987587
428.989	1.983648
429.345	1.980751
429.700	1.977718
430.056	1.975740
430.411	1.974719
430.767	1.971131
431.122	1.967122
431.478	1.964280
431.833	1.960396
432.188	1.954899
432.543	1.952818
432.899	1.948144
433.254	1.941644
433.609	1.935976
433.964	1.931892
434.319	1.925235
434.674	1.919705
435.029	1.914694
435.384	1.908321
435.739	1.905505
436.094	1.902213
436.449	1.899133
436.804	1.895266
437.158	1.890335
437.513	1.885534
437.868	1.880195
438.223	1.876233
438.577	1.871131
438.932	1.867811
439.287	1.863275
439.641	1.859944
439.996	1.854253
440.350	1.849982
440.704	1.846383
441.059	1.842308
441.413	1.836936
441.768	1.831428
442.122	1.828097
442.476	1.822647
442.830	1.817439
443.185	1.813342
443.539	1.807552
443.893	1.801952
444.247	1.796693
444.601	1.792286
444.955	1.785070
445.309	1.779157
445.663	1.772450
446.017	1.766340
446.371	1.759708
446.724	1.753412
447.078	1.747064
447.432	1.740022
447.786	1.733363
448.139	1.726277
448.493	1.719237
448.847	1.713038
449.200	1.707916
449.554	1.701389
449.907	1.695669
450.261	1.689562
450.614	1.683449
450.968	1.677318
451.321	1.670887
451.674	1.664232
452.027	1.657494
452.381	1.651775
452.734	1.645142
453.087	1.639580
453.440	1.633558
453.793	1.627007
454.146	1.620728
454.499	1.613859
454.852	1.607701
455.205	1.601096
455.558	1.595630
455.911	1.590017
456.264	1.583512
456.617	1.577343
456.970	1.571644
457.322	1.565896
457.675	1.560988
458.028	1.554796
458.380	1.549353
458.733	1.544227
459.086	1.539320
459.438	1.533824
459.791	1.528149
460.143	1.523480
460.496	1.517925
460.848	1.512888
461.200	1.507519
461.553	1.502093
461.905	1.497837
462.257	1.492715
462.609	1.488179
462.961	1.483071
463.314	1.478463
463.666	1.474052
464.018	1.469319
464.370	1.464322
464.722	1.459642
465.074	1.454755
465.426	1.450875
465.777	1.446728
466.129	1.441943
466.481	1.437600
466.833	1.433570
467.184	1.430071
467.536	1.425175
467.888	1.420643
468.239	1.416094
468.591	1.411373
468.943	1.406256
469.294	1.400705
469.646	1.395608
469.997	1.390363
470.348	1.385530
470.700	1.380714
471.051	1.376196
471.402	1.372033
471.754	1.367790
472.105	1.364028
472.456	1.359928
472.807	1.356067
473.158	1.352102
473.509	1.348898
473.860	1.345110
474.211	1.341479
474.562	1.337983
474.913	1.334581
475.264	1.331210
475.615	1.327641
475.966	1.324215
476.316	1.320862
476.667	1.317420
477.018	1.314156
477.368	1.310646
477.719	1.307196
478.070	1.303525
478.420	1.300166
478.771	1.296442
479.121	1.292926
479.472	1.289511
479.822	1.286402
480.172	1.282873
480.523	1.279481
480.873	1.275730
481.223	1.271403
481.573	1.267213
481.924	1.262922
482.274	1.258957
482.624	1.255318
482.974	1.252263
483.324	1.249558
483.674	1.247213
484.024	1.244906
484.374	1.242729
484.724	1.240594
485.073	1.238324
485.423	1.236287
485.773	1.234099
486.123	1.232014
486.472	1.229649
486.822	1.227300
487.172	1.225032
487.521	1.222670
487.871	1.220281
488.220	1.217812
488.570	1.215341
488.919	1.212179
489.268	1.208563
489.618	1.204513
489.967	1.199817
490.316	1.194457
490.666	1.188920
491.015	1.183705
491.364	1.178814
491.713	1.174365
492.062	1.170387
492.411	1.166578
492.760	1.162878
493.109	1.159075
493.458	1.155455
493.807	1.152200
494.156	1.148423
494.505	1.144693
494.853	1.141144
495.202	1.137458
495.551	1.133810
495.900	1.130329
496.248	1.126808
496.597	1.123200
496.945	1.119805
497.294	1.116514
497.642	1.112979
497.991	1.109597
498.339	1.106138
498.688	1.102894
499.036	1.099614
499.384	1.096319
499.732	1.093116
500.081	1.089666
500.429	1.086301
500.777	1.082939
501.125	1.079592
501.473	1.076489
501.821	1.073471
502.169	1.070424
502.517	1.067514
502.865	1.064588
503.213	1.061266
503.561	1.058253
503.908	1.055386
504.256	1.052212
504.604	1.049144
504.952	1.046135
505.299	1.043058
505.647	1.040028
505.994	1.036988
506.342	1.033824
506.689	1.030680
507.037	1.027705
507.384	1.024760
507.732	1.021839
508.079	1.019007
508.426	1.016239
508.774	1.013265
509.121	1.010372
509.468	1.007785
509.815	1.005027
510.162	1.002200
510.509	0.999521
510.856	0.996702
511.203	0.993950
511.550	0.991313
511.897	0.988598
512.244	0.986094
512.591	0.983436
512.938	0.980827
513.284	0.978116
513.631	0.975646
513.978	0.973096
514.324	0.970403
514.671	0.967745
515.018	0.965179
515.364	0.962471
515.711	0.959775
516.057	0.957225
516.403	0.954607
516.750	0.951858
517.096	0.949259
517.443	0.946726
517.789	0.944389
518.135	0.942045
518.481	0.939591
518.827	0.937148
519.173	0.934625
519.519	0.932144
519.865	0.929651
520.211	0.927096
520.557	0.924614
520.903	0.922015
521.249	0.919483
521.595	0.916894
521.941	0.914264
522.287	0.911594
522.632	0.908889
522.978	0.906310
523.324	0.903832
523.669	0.901147
524.015	0.898552
524.360	0.895864
524.706	0.893258
525.051	0.890568
525.397	0.887917
525.742	0.885220
526.087	0.882798
526.433	0.880369
526.778	0.878113
527.123	0.875738
527.468	0.873198
527.813	0.870952
528.158	0.868433
528.504	0.865798
528.849	0.863119
529.193	0.860580
529.538	0.857925
529.883	0.855279
530.228	0.852445
530.573	0.849616
530.918	0.846959
531.263	0.844195
531.607	0.841488
531.952	0.838822
532.296	0.836189
532.641	0.833575
532.986	0.830959
533.330	0.828148
533.675	0.825385
534.019	0.822358
534.363	0.819443
534.708	0.816705
535.052	0.813701
535.396	0.811035
535.741	0.808371
536.085	0.805664
536.429	0.802708
536.773	0.799762
537.117	0.796770
537.461	0.793707
537.805	0.790502
538.149	0.787285
538.493	0.783953
538.837	0.780789
539.181	0.777442
539.524	0.774047
539.868	0.770714
540.212	0.767403
540.556	0.764189
540.899	0.760955
541.243	0.757764
541.586	0.754612
541.930	0.751356
542.273	0.748062
542.617	0.744593
542.960	0.741054
543.304	0.737416
543.647	0.733792
543.990	0.730128
544.333	0.726441
544.677	0.722807
545.020	0.719189
545.363	0.715471
545.706	0.711954
546.049	0.708284
546.392	0.704777
546.735	0.701190
547.078	0.697419
547.421	0.693643
547.764	0.689724
548.106	0.685754
548.449	0.681615
548.792	0.677472
549.135	0.673345
549.477	0.669229
549.820	0.665255
550.162	0.661353
550.505	0.657406
550.847	0.653362
551.190	0.649133
551.532	0.644894
551.875	0.640420
552.217	0.635931
552.559	0.631445
552.901	0.626988
553.244	0.622736
553.586	0.618473
553.928	0.614376
554.270	0.610416
554.612	0.606454
554.954	0.602457
555.296	0.598368
555.638	0.594219
555.980	0.589852
556.322	0.585308
556.663	0.580566
557.005	0.575752
557.347	0.570985
557.689	0.566375
558.030	0.561849
558.372	0.557295
558.713	0.552705
559.055	0.548206
559.396	0.543663
559.738	0.539175
560.079	0.534514
560.421	0.529874
560.762	0.525375
561.103	0.520918
561.444	0.516613
561.786	0.512323
562.127	0.508148
562.468	0.503854
562.809	0.499521
563.150	0.495048
563.491	0.490498
563.832	0.485799
564.173	0.480941
564.514	0.475977
564.855	0.470826
565.195	0.465577
565.536	0.460465
565.877	0.455390
566.218	0.450419
566.558	0.445588
566.899	0.440970
567.239	0.436540
567.580	0.432451
567.920	0.428632
568.261	0.425099
568.601	0.421706
568.941	0.418513
569.282	0.415415
569.622	0.412393
569.962	0.409410
570.302	0.406443
570.643	0.403547
570.983	0.400812
571.323	0.398154
571.663	0.395576
572.003	0.393046
572.343	0.390526
572.683	0.387851
573.022	0.385078
573.362	0.382187
573.702	0.379260
574.042	0.376351
574.381	0.373518
574.721	0.370783
575.061	0.368131
575.400	0.365626
575.740	0.363200
576.079	0.360824
576.419	0.358353
576.758	0.355753
577.097	0.353075
577.437	0.350276
577.776	0.347431
578.115	0.344660
578.454	0.342027
578.794	0.339658
579.133	0.337521
579.472	0.335556
579.811	0.333744
580.150	0.331959
580.489	0.330136
580.828	0.328191
581.167	0.326144
581.505	0.324110
581.844	0.322055
582.183	0.320000
582.522	0.318017
582.860	0.316086
583.199	0.314213
583.538	0.312454
583.876	0.310760
584.215	0.309053
584.553	0.307375
584.891	0.305737
585.230	0.303998
585.568	0.302219
585.906	0.300338
586.245	0.298471
586.583	0.296697
586.921	0.295078
587.259	0.293590
587.597	0.292193
587.935	0.290737
588.273	0.289229
588.611	0.287498
588.949	0.285654
589.287	0.283782
589.625	0.281839
589.963	0.279982
590.300	0.278229
590.638	0.276581
590.976	0.274976
591.313	0.273363
591.651	0.271732
591.989	0.270108
592.326	0.268595
592.664	0.267192
593.001	0.265854
593.338	0.264605
593.676	0.263474
594.013	0.262324
594.350	0.261218
594.687	0.260148
595.025	0.259177
595.362	0.258177
595.699	0.257159
596.036	0.256112
596.373	0.255038
596.710	0.253962
597.047	0.252861
597.384	0.251742
597.720	0.250581
598.057	0.249442
598.394	0.248304
598.731	0.247193
599.067	0.246068
599.404	0.244938
599.741	0.243849
600.077	0.242796
600.414	0.241854
600.750	0.240954
601.087	0.240149
601.423	0.239300
601.759	0.238451
602.096	0.237576
602.432	0.236728
602.768	0.235886
603.104	0.235035
603.440	0.234158
603.776	0.233352
604.112	0.232532
604.448	0.231775
604.784	0.231021
605.120	0.230286
605.456	0.229557
605.792	0.228854
606.128	0.228159
606.463	0.227468
606.799	0.226724
607.135	0.226018
607.470	0.225298
607.806	0.224540
608.142	0.223794
608.477	0.223078
608.812	0.222366
609.148	0.221697
609.483	0.220999
609.819	0.220298
610.154	0.219583
610.489	0.218903
610.824	0.218176
611.159	0.217455
611.494	0.216711
611.830	0.216101
612.165	0.215536
612.500	0.215003
612.834	0.214464
613.169	0.213949
613.504	0.213360
613.839	0.212793
614.174	0.212176
614.509	0.211539
614.843	0.210940
615.178	0.210357
615.512	0.209854
615.847	0.209333
616.182	0.208801
616.516	0.208325
616.850	0.207856
617.185	0.207402
617.519	0.206942
617.853	0.206448
618.188	0.205910
618.522	0.205309
618.856	0.204619
619.190	0.203892
619.524	0.203216
619.858	0.202527
620.192	0.201885
620.526	0.201336
620.860	0.200824
621.194	0.200322
621.528	0.199824
621.862	0.199338
622.195	0.198860
622.529	0.198281
622.863	0.197753
623.196	0.197260
623.530	0.196785
623.864	0.196288
624.197	0.195776
624.530	0.195259
624.864	0.194795
625.197	0.194395
625.531	0.193956
625.864	0.193517
626.197	0.193064
626.530	0.192651
626.863	0.192196
627.196	0.191650
627.529	0.191105
627.862	0.190557
628.195	0.189978
628.528	0.189433
628.861	0.188862
629.194	0.188351
629.527	0.187867
629.860	0.187358
630.192	0.186806
630.525	0.186220
630.858	0.185683
631.190	0.185159
631.523	0.184561
631.855	0.183851
632.188	0.183173
632.520	0.182576
632.852	0.181971
633.185	0.181421
633.517	0.180791
633.849	0.180258
634.182	0.179801
634.514	0.179428
634.846	0.179047
635.178	0.178695
635.510	0.178342
635.842	0.177955
636.174	0.177530
636.506	0.177173
636.837	0.176766
637.169	0.176388
637.501	0.175979
637.833	0.175666
638.164	0.175296
638.496	0.174873
638.828	0.174460
639.159	0.174057
639.491	0.173592
639.822	0.173084
640.154	0.172514
640.485	0.171873
640.816	0.171243
641.147	0.170639
641.479	0.169942
641.810	0.169271
642.141	0.168654
642.472	0.168014
642.803	0.167432
643.134	0.166803
643.465	0.166222
643.796	0.165679
644.127	0.165128
644.458	0.164662
644.789	0.164044
645.119	0.163706
645.450	0.163483
645.781	0.163499
646.111	0.163467
646.442	0.163459
646.773	0.163490
647.103	0.163404
647.433	0.163315
647.764	0.163137
648.094	0.162908
648.425	0.162843
648.755	0.162728
649.085	0.162501
649.415	0.162346
649.745	0.162280
650.075	0.162246
650.405	0.162110
650.735	0.160490
651.065	0.151211
651.395	0.142283
651.725	0.128583
652.055	0.088313
652.385	0.065471
652.715	0.050926
653.044	0.040866
653.374	0.033516
653.704	0.027924
654.033	0.039422
654.363	0.046461
654.692	0.050618
655.022	0.053089
655.351	0.054602
655.680	0.055493
656.010	0.055964
656.339	0.056166
656.668	0.056210
656.997	0.056162
657.326	0.056058
657.655	0.055917
657.984	0.055100
658.313	0.051236
658.642	0.046107
658.971	0.052924
659.300	0.061987
659.629	0.074056
659.958	0.090910
660.286	0.116139
660.615	0.158132
660.944	0.158038
661.272	0.156358
661.601	0.154859
661.929	0.153874
662.258	0.153164
662.586	0.152643
662.915	0.152293
663.243	0.151714
663.571	0.151081
663.899	0.150521
664.228	0.150034
664.556	0.149638
664.884	0.149241
665.212	0.148997
665.540	0.148743
665.868	0.148563
666.196	0.148416
666.524	0.148135
666.852	0.147956
667.179	0.147686
667.507	0.147417
667.835	0.147283
668.162	0.147124
668.490	0.146851
668.818	0.146684
669.145	0.146570
669.473	0.146625
669.800	0.146654
670.127	0.146807
670.455	0.146838
670.782	0.146908
671.109	0.146972
671.436	0.147030
671.764	0.147020
672.091	0.146900
672.418	0.146893
672.745	0.146880
673.072	0.146818
673.399	0.146827
673.726	0.146723
674.053	0.146690
674.379	0.146587
674.706	0.146439
675.033	0.146162
675.359	0.146102
675.686	0.146003
676.013	0.145835
676.339	0.145594
676.666	0.145324
676.992	0.145033
677.318	0.144894
677.645	0.144767
677.971	0.144575
678.297	0.144366
678.624	0.144308
678.950	0.144196
679.276	0.144043
679.602	0.143837
679.928	0.143594
680.254	0.143314
680.580	0.143021
680.906	0.142782
681.232	0.142637
681.558	0.142538
681.883	0.142620
682.209	0.142616
682.535	0.142613
682.860	0.142617
683.186	0.142576
683.511	0.142526
683.837	0.142361
684.162	0.142228
684.488	0.142081
684.813	0.141957
685.138	0.141843
685.464	0.141666
685.789	0.141444
686.114	0.141288
686.439	0.141173
686.764	0.141119
687.089	0.141065
687.414	0.141087
687.739	0.141011
688.064	0.140955
688.389	0.140831
688.714	0.140676
689.039	0.140436
689.363	0.140193
689.688	0.140004
690.013	0.139797
690.337	0.139552
690.662	0.139459
690.986	0.139335
691.311	0.139164
691.635	0.139087
691.959	0.138919
692.284	0.138614
692.608	0.138420
692.932	0.138262
693.256	0.138114
693.580	0.137990
693.904	0.137888
694.228	0.137793
694.552	0.137780
694.876	0.137746
695.200	0.137662
695.524	0.137456
695.848	0.137260
696.172	0.137057
696.495	0.136744
696.819	0.136491
697.143	0.136202
697.466	0.135866
697.790	0.135478
698.113	0.135245
698.437	0.134903
698.760	0.134543
699.083	0.134397
699.407	0.134335
699.730	0.134163
700.053	0.134010
700.376	0.133820
700.699	0.133544
701.022	0.133185
701.345	0.132616
701.668	0.131953
701.991	0.131354
702.314	0.130672
702.637	0.129911
702.960	0.129190
703.283	0.128586
703.605	0.127949
703.928	0.127640
704.251	0.127434
704.573	0.127281
704.896	0.127052
705.218	0.126884
705.540	0.126780
705.863	0.126467
706.185	0.126040
706.507	0.125532
706.830	0.124975
707.152	0.124377
707.474	0.123783
707.796	0.123253
708.118	0.122883
708.440	0.122601
708.762	0.122250
709.084	0.122031
709.406	0.121870
709.728	0.121700
710.049	0.121471
710.371	0.121273
710.693	0.120919
711.014	0.120483
711.336	0.120119
711.658	0.119797
711.979	0.119443
712.301	0.119147
712.622	0.118985
712.943	0.118730
713.265	0.118570
713.586	0.118336
713.907	0.118224
714.228	0.118167
714.549	0.118078
714.870	0.117973
715.191	0.117770
715.512	0.117671
715.833	0.117550
716.154	0.117366
716.475	0.117138
716.796	0.116864
717.117	0.116512
717.437	0.116143
717.758	0.115769
718.078	0.115231
718.399	0.114688
718.719	0.114164
719.040	0.113678
719.360	0.113191
719.681	0.112801
720.001	0.112510
720.321	0.112319
720.642	0.112010
720.962	0.111688
721.282	0.111446
721.602	0.111201
721.922	0.110945
722.242	0.110658
722.562	0.110330
722.882	0.110109
723.202	0.109920
723.521	0.109771
723.841	0.109611
724.161	0.109480
724.481	0.109272
724.800	0.109106
725.120	0.108938
725.439	0.108817
725.759	0.108628
726.078	0.108458
726.398	0.108319
726.717	0.108154
727.036	0.107998
727.355	0.107945
727.675	0.107922
727.994	0.107940
728.313	0.107942
728.632	0.107963
728.951	0.107884
729.270	0.107762
729.589	0.107527
729.908	0.107199
730.226	0.106862
730.545	0.106530
730.864	0.106160
731.182	0.105867
731.501	0.105647
731.820	0.105432
732.138	0.105256
732.457	0.104972
732.775	0.104764
733.093	0.104558
733.412	0.104360
733.730	0.104170
734.048	0.103900
734.367	0.103572
734.685	0.103152
735.003	0.102681
735.321	0.102275
735.639	0.101836
735.957	0.101442
736.275	0.101161
736.593	0.100980
736.910	0.100792
737.228	0.100661
737.546	0.100507
737.863	0.100289
738.181	0.100009
738.499	0.099695
738.816	0.099304
739.134	0.099018
739.451	0.098686
739.768	0.098337
740.086	0.097922
740.403	0.097495
740.720	0.097109
741.038	0.096714
741.355	0.096273
741.672	0.095784
741.989	0.095213
742.306	0.094766
742.623	0.094257
742.940	0.093610
743.257	0.092789
743.573	0.092126
743.890	0.091406
744.207	0.090701
744.523	0.090153
744.840	0.089545
745.157	0.089040
745.473	0.088471
745.790	0.088058
746.106	0.087569
746.422	0.087185
746.739	0.086762
747.055	0.086405
747.371	0.085998
747.687	0.085792
748.004	0.085727
748.320	0.085629
748.636	0.085543
748.952	0.085442
749.268	0.085399
749.584	0.085343
749.899	0.085285
750.215	0.085188
750.531	0.085016
750.847	0.084964
751.162	0.084835
751.478	0.084750
751.793	0.084530
752.109	0.084356
752.424	0.084147
752.740	0.083940
753.055	0.083766
753.370	0.083620
753.686	0.083532
754.001	0.083650
754.316	0.083743
754.631	0.083707
754.946	0.083758
755.261	0.083758
755.576	0.083711
755.891	0.083562
756.206	0.083402
756.521	0.083220
756.836	0.083011
757.150	0.082932
757.465	0.082796
757.780	0.082730
758.094	0.082694
758.409	0.082689
758.723	0.082731
759.038	0.082672
759.352	0.082627
759.667	0.082508
759.981	0.082355
760.295	0.082080
760.609	0.081716
760.923	0.081303
761.238	0.080875
761.552	0.080503
761.866	0.080186
762.180	0.079976
762.493	0.079864
762.807	0.079739
763.121	0.079598
763.435	0.079456
763.749	0.079145
764.062	0.078845
764.376	0.078436
764.689	0.078049
765.003	0.077692
765.316	0.077298
765.630	0.077113
765.943	0.076872
766.257	0.076685
766.570	0.076459
766.883	0.076230
767.196	0.075915
767.509	0.075564
767.822	0.075243
768.135	0.074879
768.448	0.074493
768.761	0.074007
769.074	0.073545
769.387	0.073161
769.700	0.072795
770.013	0.072488
770.325	0.072315
770.638	0.072132
770.950	0.071971
771.263	0.071797
771.575	0.071568
771.888	0.071282
772.200	0.070899
772.513	0.070447
772.825	0.070033
773.137	0.069628
773.449	0.069292
773.761	0.068932
774.074	0.068599
774.386	0.068284
774.698	0.067846
775.010	0.067365
775.321	0.066998
775.633	0.066627
775.945	0.066293
776.257	0.066117
776.568	0.065862
776.880	0.065653
777.192	0.065496
777.503	0.065338
777.815	0.065195
778.126	0.065110
778.438	0.065165
778.749	0.065274
779.060	0.065419
779.372	0.065435
779.683	0.065499
779.994	0.065510
780.305	0.065603
780.616	0.065655
780.927	0.065718
781.238	0.065749
781.549	0.065821
781.860	0.065764
782.171	0.065796
782.481	0.065815
782.792	0.065721
783.103	0.065739
783.413	0.065656
783.724	0.065487
784.034	0.065425
784.345	0.065233
784.655	0.065030
784.966	0.064820
785.276	0.064545
785.586	0.064384
785.896	0.064193
786.207	0.064118
786.517	0.064113
786.827	0.064005
787.137	0.063944
787.447	0.063876
787.757	0.063961
788.066	0.063921
788.376	0.064005
788.686	0.063958
788.996	0.063923
789.305	0.063871
789.615	0.063725
789.925	0.063598
790.234	0.063579
790.544	0.063575
790.853	0.063578
791.162	0.063614
791.472	0.063741
791.781	0.063830
792.090	0.063884
792.399	0.063899
792.708	0.063730
793.017	0.063583
793.326	0.063447
793.635	0.063244
793.944	0.062947
794.253	0.062573
794.562	0.062386
794.871	0.062213
795.179	0.062023
795.488	0.061866
795.797	0.061920
796.105	0.061829
796.414	0.061854
796.722	0.061767
797.031	0.061578
797.339	0.061431
797.647	0.061216
797.956	0.060738
798.264	0.060385
798.572	0.059907
798.880	0.059504
799.188	0.059278
799.496	0.058937
799.804	0.058767
800.112	0.058660
800.420	0.058700
800.728	0.058809
801.035	0.058672
801.343	0.058376
801.651	0.058090
801.958	0.057833
802.266	0.057625
802.573	0.057640
802.881	0.057607
803.188	0.057532
803.496	0.057704
803.803	0.057911
804.110	0.058009
804.417	0.058018
804.724	0.057906
805.032	0.057907
805.339	0.057803
805.646	0.057732
805.953	0.057599
806.259	0.057499
806.566	0.057388
806.873	0.057381
807.180	0.057269
807.486	0.057330
807.793	0.057499
808.100	0.057625
808.406	0.057597
808.713	0.057521
809.019	0.057158
809.326	0.056940
809.632	0.056730
809.938	0.056075
810.244	0.055498
810.551	0.055108
810.857	0.054803
811.163	0.054652
811.469	0.054478
811.775	0.054459
812.081	0.054415
812.387	0.054463
812.692	0.054370
812.998	0.054432
813.304	0.054371
813.610	0.054520
813.915	0.054523
814.221	0.054510
814.526	0.054570
814.832	0.054774
815.137	0.054785
815.443	0.055004
815.748	0.054984
816.053	0.055030
816.358	0.055031
816.664	0.055182
816.969	0.055082
817.274	0.055203
817.579	0.055206
817.884	0.055017
818.189	0.055162
818.493	0.055159
818.798	0.055121
819.103	0.055130
819.408	0.054880
819.712	0.054699
820.017	0.054445
820.321	0.054400
820.626	0.054288
820.930	0.053919
821.235	0.053622
821.539	0.053327
821.843	0.053122
822.148	0.053006
822.452	0.053170
822.756	0.053585
823.060	0.053512
823.364	0.053842
823.668	0.053857
823.972	0.053742
824.276	0.053933
824.580	0.053739
824.883	0.053685
825.187	0.053797
825.491	0.053970
825.795	0.054219
826.098	0.054504
826.402	0.054380
826.705	0.054423
827.008	0.054283
827.312	0.054318
827.615	0.054233
827.918	0.054138
828.222	0.053891
828.525	0.053696
828.828	0.053517
829.131	0.053210
829.434	0.052915
829.737	0.052464
830.040	0.052025
830.343	0.051650
830.645	0.051332
830.948	0.051100
831.251	0.050906
831.553	0.050503
831.856	0.050017
832.159	0.049935
832.461	0.049638
832.764	0.049626
833.066	0.049066
833.368	0.049016
833.671	0.048846
833.973	0.048633
834.275	0.048692
834.577	0.048640
834.879	0.048422
835.181	0.047993
835.483	0.047653
835.785	0.047616
836.087	0.047623
836.389	0.047702
836.690	0.047268
836.992	0.046412
837.294	0.045833
837.595	0.045029
837.897	0.044181
838.198	0.043339
838.500	0.042564
838.801	0.041453
839.103	0.041087
839.404	0.040983
839.705	0.040117
840.006	0.040063
840.307	0.040126
840.608	0.039744
840.910	0.039692
841.210	0.040380
841.511	0.040472
841.812	0.040829
842.113	0.041274
842.414	0.040623
842.715	0.039932
843.015	0.039517
843.316	0.039489
843.616	0.038812
843.917	0.038394
844.217	0.038604
844.518	0.039036
844.818	0.038641
845.118	0.039161
845.419	0.038899
845.719	0.038758
846.019	0.038748
846.319	0.038669
846.619	0.038196
846.919	0.038913
847.219	0.039034
847.519	0.038480
847.819	0.038576
848.118	0.037986
848.418	0.037272
848.718	0.036809
849.017	0.037008
849.317	0.037442
849.616	0.037782
849.916	0.038530
850.215	0.039331
850.515	0.039790
850.814	0.039998
851.113	0.040272
851.412	0.040697
851.712	0.040900
852.011	0.040845
852.310	0.041324
852.609	0.041547
852.908	0.041859
853.206	0.041738
853.505	0.041931
853.804	0.042029
854.103	0.042185
854.401	0.042307
854.700	0.042190
854.999	0.042277
855.297	0.042354
855.595	0.042423
855.894	0.042575
856.192	0.042456
856.491	0.042281
856.789	0.041974
857.087	0.041406
857.385	0.040902
857.683	0.040214
857.981	0.039677
858.279	0.039269
858.577	0.038507
858.875	0.037628
859.173	0.036912
859.471	0.036626
859.768	0.036468
860.066	0.035828
860.363	0.035231
860.661	0.034710
860.959	0.035062
861.256	0.034975
861.553	0.034894
861.851	0.034397
862.148	0.033481
862.445	0.032878
862.742	0.032334
863.039	0.031736
863.337	0.031980
863.634	0.031533
863.931	0.031165
864.227	0.030879
864.524	0.030832
864.821	0.030975
865.118	0.030687
865.415	0.030644
865.711	0.029952
866.008	0.028247
866.304	0.028192
866.601	0.028466
866.897	0.028105
867.194	0.027272
867.490	0.027446
867.786	0.026896
868.082	0.026782
868.379	0.026908
868.675	0.027185
868.971	0.027214
869.267	0.027616
869.563	0.027867
869.859	0.027750
870.154	0.027884
870.450	0.027636
870.746	0.027137
871.042	0.027135
871.337	0.026906
871.633	0.026461
871.928	0.026455
872.224	0.026909
872.519	0.025958
872.815	0.025052
873.110	0.024839
873.405	0.024558
873.700	0.024247
873.995	0.024076
874.291	0.023804
874.586	0.024149
874.881	0.024005
875.175	0.023966
875.470	0.023878
875.765	0.023372
876.060	0.023706
876.355	0.023617
876.649	0.024058
876.944	0.024614
877.238	0.024272
877.533	0.024945
877.827	0.025637
878.122	0.026022
878.416	0.026450
878.710	0.027484
879.005	0.027830
879.299	0.027801
879.593	0.027539
879.887	0.027090
880.181	0.026634
880.475	0.026973
880.769	0.026731
881.063	0.026221
881.356	0.026277
881.650	0.025862
881.944	0.025492
882.238	0.016115
882.531	0.017922
882.825	0.015617
883.118	0.009696
883.412	0.025500
883.705	0.023792
883.998	0.012389
884.291	0.029120
884.585	0.016932
884.878	0.013857
>>>>>>>>>> END of Data <<<<<<<<<<
>>>>>>>>>> Raw Data Start <<<<<<<<
190.664	-405
191.040	6
191.415	6
191.791	4
192.166	8
192.542	11
192.917	5
193.293	6
193.668	3
194.044	8
194.419	-11
194.794	9
195.170	9
195.545	9
195.920	10
196.296	10
196.671	11
197.046	11
197.421	12
197.796	13
198.171	13
198.546	13
198.922	14
199.297	14
199.672	14
200.047	15
200.422	15
200.796	15
201.171	15
201.546	15
201.921	15
202.296	15
202.671	15
203.045	16
203.420	16
203.795	16
204.170	15
204.544	15
204.919	15
205.294	15
205.668	15
206.043	15
206.417	15
206.792	15
207.166	15
207.541	15
207.915	14
208.289	14
208.664	14
209.038	14
209.412	14
209.787	14
210.161	14
210.535	14
210.909	14
211.284	14
211.658	14
212.032	14
212.406	15
212.780	15
213.154	14
213.528	14
213.902	14
214.276	14
214.650	14
215.024	14
215.398	14
215.772	14
216.145	14
216.519	14
216.893	14
217.267	14
217.640	15
218.014	15
218.388	15
218.761	15
219.135	15
219.508	15
219.882	15
220.256	15
220.629	15
221.003	15
221.376	15
221.749	16
222.123	16
222.496	16
222.869	15
223.243	15
223.616	15
223.989	15
224.362	16
224.736	16
225.109	16
225.482	16
225.855	16
226.228	16
226.601	16
226.974	16
227.347	15
227.720	15
228.093	15
228.466	15
228.839	15
229.212	15
229.585	14
229.957	15
230.330	15
230.703	15
231.076	15
231.448	15
231.821	15
232.194	15
232.566	15
232.939	15
233.311	14
233.684	15
234.056	15
234.429	14
234.801	14
235.174	15
235.546	15
235.918	15
236.291	15
236.663	15
237.035	15
237.408	16
237.780	15
238.152	15
238.524	16
238.896	16
239.268	16
239.641	16
240.013	16
240.385	16
240.757	16
241.129	16
241.500	15
241.872	16
242.244	16
242.616	16
242.988	16
243.360	16
243.731	16
244.103	16
244.475	16
244.847	16
245.218	16
245.590	16
245.961	16
246.333	16
246.705	16
247.076	16
247.448	16
247.819	16
248.190	16
248.562	17
248.933	17
249.305	17
249.676	17
250.047	17
250.418	17
250.790	17
251.161	17
251.532	17
251.903	17
252.274	17
252.645	17
253.016	17
253.387	17
253.758	17
254.129	17
254.500	17
254.871	18
255.242	18
255.613	18
255.984	18
256.355	18
256.725	17
257.096	17
257.467	17
257.838	17
258.208	17
258.579	17
258.949	17
259.320	17
259.690	17
260.061	17
260.431	17
260.802	17
261.172	17
261.543	17
261.913	17
262.283	17
262.654	17
263.024	17
263.394	17
263.764	17
264.135	17
264.505	17
264.875	17
265.245	17
265.615	17
265.985	17
266.355	17
266.725	17
267.095	17
267.465	17
267.835	17
268.205	17
268.575	17
268.944	17
269.314	17
269.684	16
270.054	16
270.423	17
270.793	16
271.163	16
271.532	16
271.902	16
272.271	15
272.641	15
273.010	16
273.380	16
273.749	16
274.119	16
274.488	16
274.857	16
275.227	16
275.596	16
275.965	16
276.335	16
276.704	17
277.073	17
277.442	17
277.811	17
278.180	17
278.549	17
278.918	17
279.287	18
279.656	18
280.025	18
280.394	18
280.763	18
281.132	18
281.501	18
281.869	18
282.238	18
282.607	18
282.976	17
283.344	17
283.713	17
284.081	17
284.450	17
284.819	17
285.187	17
285.556	16
285.924	17
286.292	17
286.661	16
287.029	16
287.398	16
287.766	16
288.134	16
288.502	16
288.871	17
289.239	16
289.607	16
289.975	16
290.343	16
290.711	16
291.079	16
291.447	16
291.815	17
292.183	17
292.551	17
292.919	17
293.287	17
293.655	17
294.022	17
294.390	17
294.758	17
295.126	17
295.493	17
295.861	17
296.229	17
296.596	17
296.964	17
297.331	17
297.699	18
298.066	18
298.434	18
298.801	18
299.168	18
299.536	17
299.903	18
300.270	18
300.638	18
301.005	17
301.372	17
301.739	17
302.106	18
302.473	18
302.840	18
303.207	18
303.574	18
303.941	17
304.308	18
304.675	18
305.042	18
305.409	18
305.776	18
306.143	18
306.509	18
306.876	18
307.243	18
307.610	18
307.976	19
308.343	19
308.709	19
309.076	19
309.442	19
309.809	19
310.175	18
310.542	19
310.908	19
311.275	19
311.641	19
312.007	19
312.373	19
312.740	19
313.106	18
313.472	18
313.838	18
314.204	18
314.570	18
314.936	18
315.302	18
315.668	18
316.034	18
316.400	18
316.766	18
317.132	18
317.498	18
317.864	18
318.230	18
318.595	18
318.961	18
319.327	18
319.692	18
320.058	19
320.424	19
320.789	19
321.155	19
321.520	20
321.886	20
322.251	20
322.616	20
322.982	20
323.347	20
323.712	20
324.078	20
324.443	21
324.808	21
325.173	21
325.539	21
325.904	21
326.269	21
326.634	22
326.999	22
327.364	23
327.729	22
328.094	23
328.459	23
328.823	23
329.188	23
329.553	24
329.918	24
330.283	24
330.647	24
331.012	24
331.377	24
331.741	24
332.106	25
332.470	25
332.835	25
333.199	25
333.564	25
333.928	25
334.293	25
334.657	26
335.021	26
335.386	26
335.750	26
336.114	26
336.478	27
336.843	27
337.207	27
337.571	27
337.935	28
338.299	28
338.663	29
339.027	28
339.391	29
339.755	29
340.119	29
340.483	30
340.846	30
341.210	30
341.574	31
341.938	31
342.301	31
342.665	32
343.029	32
343.392	32
343.756	33
344.119	33
344.483	33
344.846	34
345.210	34
345.573	34
345.937	34
346.300	34
346.663	35
347.027	35
347.390	35
347.753	35
348.116	35
348.479	35
348.843	36
349.206	36
349.569	36
349.932	37
350.295	37
350.658	37
351.021	36
351.383	37
351.746	37
352.109	37
352.472	37
352.835	37
353.197	37
353.560	37
353.923	38
354.285	38
354.648	38
355.011	38
355.373	38
355.736	38
356.098	39
356.461	39
356.823	39
357.185	38
357.548	38
357.910	39
358.272	39
358.635	40
358.997	40
359.359	40
359.721	40
360.083	40
360.445	40
360.807	40
361.169	41
361.531	40
361.893	41
362.255	41
362.617	41
362.979	41
363.341	41
363.703	41
364.064	41
364.426	41
364.788	41
365.149	41
365.511	42
365.873	41
366.234	41
366.596	41
366.957	41
367.319	41
367.680	42
368.042	42
368.403	42
368.764	42
369.126	42
369.487	42
369.848	42
370.209	41
370.570	42
370.931	42
371.293	42
371.654	42
372.015	42
372.376	42
372.737	42
373.098	42
373.458	42
373.819	42
374.180	41
374.541	41
374.902	41
375.263	41
375.623	41
375.984	41
376.345	42
376.705	41
377.066	41
377.426	42
377.787	42
378.147	41
378.508	41
378.868	41
379.228	41
379.589	41
379.949	42
380.309	42
380.670	42
381.030	42
381.390	43
381.750	43
382.110	43
382.470	43
382.830	43
383.190	43
383.550	43
383.910	43
384.270	43
384.630	43
384.990	43
385.350	43
385.709	43
386.069	43
386.429	44
386.788	43
387.148	43
387.508	43
387.867	43
388.227	43
388.586	43
388.946	43
389.305	43
389.665	43
390.024	43
390.383	43
390.743	43
391.102	43
391.461	44
391.820	44
392.179	44
392.539	44
392.898	43
393.257	43
393.616	43
393.975	43
394.334	43
394.693	43
395.051	44
395.410	44
395.769	44
396.128	44
396.487	44
396.845	44
397.204	44
397.563	44
397.921	45
398.280	45
398.638	45
398.997	45
399.355	45
399.714	45
400.072	45
400.431	46
400.789	46
401.147	46
401.506	47
401.864	47
402.222	47
402.580	47
402.938	47
403.297	48
403.655	48
404.013	48
404.371	48
404.729	48
405.087	48
405.444	48
405.802	48
406.160	48
406.518	48
406.876	48
407.233	48
407.591	48
407.949	48
408.306	48
408.664	48
409.022	48
409.379	48
409.737	48
410.094	48
410.451	48
410.809	49
411.166	49
411.523	49
411.881	49
412.238	49
412.595	49
412.952	49
413.310	50
413.667	50
414.024	50
414.381	50
414.738	50
415.095	51
415.452	51
415.809	51
416.165	51
416.522	51
416.879	52
417.236	52
417.593	53
417.949	53
418.306	54
418.663	54
419.019	55
419.376	56
419.732	56
420.089	57
420.445	57
420.802	57
421.158	58
421.514	59
421.871	60
422.227	60
422.583	60
422.939	61
423.295	62
423.652	62
424.008	63
424.364	64
424.720	64
425.076	64
425.432	64
425.788	64
426.143	65
426.499	65
426.855	66
427.211	66
427.567	67
427.922	67
428.278	69
428.634	69
428.989	70
429.345	70
429.700	71
430.056	71
430.411	71
430.767	72
431.122	73
431.478	74
431.833	74
432.188	75
432.543	76
432.899	76
433.254	77
433.609	78
433.964	79
434.319	79
434.674	80
435.029	81
435.384	82
435.739	82
436.094	83
436.449	84
436.804	85
437.158	86
437.513	88
437.868	89
438.223	91
438.577	93
438.932	94
439.287	96
439.641	97
439.996	100
440.350	101
440.704	103
441.059	105
441.413	107
441.768	109
442.122	111
442.476	113
442.830	115
443.185	116
443.539	119
443.893	121
444.247	123
444.601	124
444.955	126
445.309	128
445.663	129
446.017	131
446.371	132
446.724	134
447.078	135
447.432	136
447.786	138
448.139	139
448.493	140
448.847	141
449.200	142
449.554	143
449.907	144
450.261	145
450.614	146
450.968	147
451.321	148
451.674	149
452.027	150
452.381	151
452.734	153
453.087	154
453.440	156
453.793	157
454.146	159
454.499	162
454.852	164
455.205	167
455.558	169
455.911	172
456.264	175
456.617	178
456.970	180
457.322	183
457.675	185
458.028	188
458.380	190
458.733	192
459.086	194
459.438	197
459.791	200
460.143	202
460.496	206
460.848	209
461.200	213
461.553	217
461.905	220
462.257	224
462.609	227
462.961	230
463.314	233
463.666	236
464.018	238
464.370	241
464.722	244
465.074	247
465.426	249
465.777	251
466.129	254
466.481	256
466.833	258
467.184	259
467.536	260
467.888	261
468.239	262
468.591	263
468.943	264
469.294	266
469.646	268
469.997	270
470.348	273
470.700	276
471.051	280
471.402	284
471.754	289
472.105	294
472.456	299
472.807	305
473.158	312
473.509	318
473.860	326
474.211	333
474.562	341
474.913	349
475.264	358
475.615	366
475.966	375
476.316	383
476.667	392
477.018	400
477.368	409
477.719	418
478.070	427
478.420	436
478.771	444
479.121	453
479.472	461
479.822	470
480.172	479
480.523	490
480.873	504
481.223	528
481.573	561
481.924	603
482.274	650
482.624	699
482.974	749
483.324	792
483.674	826
484.024	850
484.374	866
484.724	877
485.073	886
485.423	893
485.773	900
486.123	907
486.472	915
486.822	921
487.172	928
487.521	933
487.871	937
488.220	937
488.570	928
488.919	908
489.268	880
489.618	847
489.967	811
490.316	776
490.666	745
491.015	723
491.364	712
491.713	707
492.062	708
492.411	711
492.760	716
493.109	722
493.458	727
493.807	731
494.156	736
494.505	741
494.853	746
495.202	752
495.551	759
495.900	765
496.248	772
496.597	779
496.945	786
497.294	793
497.642	800
497.991	808
498.339	817
498.688	826
499.036	835
499.384	843
499.732	851
500.081	859
500.429	865
500.777	872
501.125	878
501.473	884
501.821	890
502.169	896
502.517	902
502.865	906
503.213	911
503.561	914
503.908	917
504.256	920
504.604	923
504.952	925
505.299	927
505.647	927
505.994	927
506.342	928
506.689	928
507.037	928
507.384	929
507.732	930
508.079	931
508.426	933
508.774	935
509.121	936
509.468	937
509.815	938
510.162	939
510.509	940
510.856	940
511.203	941
511.550	941
511.897	942
512.244	942
512.591	943
512.938	943
513.284	944
513.631	944
513.978	944
514.324	944
514.671	943
515.018	942
515.364	943
515.711	943
516.057	943
516.403	943
516.750	943
517.096	942
517.443	941
517.789	939
518.135	938
518.481	937
518.827	936
519.173	935
519.519	935
519.865	935
520.211	935
520.557	935
520.903	936
521.249	936
521.595	937
521.941	938
522.287	939
522.632	940
522.978	941
523.324	942
523.669	945
524.015	947
524.360	952
524.706	957
525.051	963
525.397	971
525.742	979
526.087	986
526.433	994
526.778	1000
527.123	1006
527.468	1011
527.813	1016
528.158	1021
528.504	1027
528.849	1035
529.193	1045
529.538	1056
529.883	1068
530.228	1083
530.573	1099
530.918	1116
531.263	1132
531.607	1148
531.952	1163
532.296	1175
532.641	1186
532.986	1195
533.330	1204
533.675	1213
534.019	1225
534.363	1240
534.708	1255
535.052	1274
535.396	1292
535.741	1311
536.085	1327
536.429	1343
536.773	1357
537.117	1369
537.461	1380
537.805	1391
538.149	1402
538.493	1414
538.837	1426
539.181	1440
539.524	1457
539.868	1476
540.212	1497
540.556	1519
540.899	1542
541.243	1563
541.586	1581
541.930	1596
542.273	1609
542.617	1620
542.960	1632
543.304	1646
543.647	1663
543.990	1683
544.333	1706
544.677	1729
545.020	1752
545.363	1772
545.706	1788
546.049	1802
546.392	1812
546.735	1819
547.078	1826
547.421	1832
547.764	1840
548.106	1849
548.449	1860
548.792	1876
549.135	1894
549.477	1916
549.820	1937
550.162	1956
550.505	1972
550.847	1986
551.190	1998
551.532	2008
551.875	2018
552.217	2030
552.559	2044
552.901	2062
553.244	2080
553.586	2101
553.928	2122
554.270	2141
554.612	2159
554.954	2174
555.296	2188
555.638	2202
555.980	2216
556.322	2233
556.663	2255
557.005	2282
557.347	2315
557.689	2349
558.030	2383
558.372	2416
558.713	2446
559.055	2476
559.396	2505
559.738	2535
560.079	2568
560.421	2604
560.762	2645
561.103	2689
561.444	2736
561.786	2786
562.127	2838
562.468	2894
562.809	2956
563.150	3024
563.491	3097
563.832	3178
564.173	3269
564.514	3374
564.855	3499
565.195	3650
565.536	3829
565.877	4037
566.218	4273
566.558	4538
566.899	4829
567.239	5144
567.580	5474
567.920	5814
568.261	6158
568.601	6511
568.941	6876
569.282	7254
569.622	7645
569.962	8053
570.302	8490
570.643	8942
570.983	9397
571.323	9840
571.663	10269
572.003	10677
572.343	11062
572.683	11426
573.022	11798
573.362	12191
573.702	12599
574.042	13008
574.381	13403
574.721	13779
575.061	14141
575.400	14474
575.740	14770
576.079	15036
576.419	15300
576.758	15601
577.097	15952
577.437	16337
577.776	16748
578.115	17176
578.454	17609
578.794	18007
579.133	18320
579.472	18542
579.811	18677
580.150	18735
580.489	18732
580.828	18703
581.167	18679
581.505	18670
581.844	18670
582.183	18669
582.522	18679
582.860	18700
583.199	18721
583.538	18715
583.876	18648
584.215	18505
584.553	18273
584.891	17959
585.230	17571
585.568	17140
585.906	16701
586.245	16306
586.583	15966
586.921	15685
587.259	15431
587.597	15174
587.935	14907
588.273	14631
588.611	14377
588.949	14154
589.287	13969
589.625	13827
589.963	13718
590.300	13632
590.638	13554
590.976	13464
591.313	13356
591.651	13254
591.989	13167
592.326	13097
592.664	13038
593.001	12990
593.338	12964
593.676	12955
594.013	12971
594.350	13026
594.687	13116
595.025	13214
595.362	13304
595.699	13369
596.036	13414
596.373	13430
596.710	13410
597.047	13367
597.384	13313
597.720	13253
598.057	13206
598.394	13174
598.731	13158
599.067	13165
599.404	13196
599.741	13256
600.077	13339
600.414	13429
600.750	13525
601.087	13598
601.423	13636
601.759	13643
602.096	13625
602.432	13591
602.768	13536
603.104	13457
603.440	13359
603.776	13253
604.112	13138
604.448	13020
604.784	12896
605.120	12762
605.456	12634
605.792	12498
606.128	12355
606.463	12209
606.799	12061
607.135	11927
607.470	11794
607.806	11662
608.142	11534
608.477	11411
608.812	11292
609.148	11172
609.483	11045
609.819	10916
610.154	10793
610.489	10679
610.824	10580
611.159	10498
611.494	10416
611.830	10342
612.165	10270
612.500	10188
612.834	10093
613.169	9984
613.504	9864
613.839	9730
614.174	9579
614.509	9426
614.843	9274
615.178	9129
615.512	8984
615.847	8843
616.182	8703
616.516	8561
616.850	8410
617.185	8254
617.519	8094
617.853	7924
618.188	7746
618.522	7584
618.856	7447
619.190	7329
619.524	7225
619.858	7144
620.192	7080
620.526	7023
620.860	6966
621.194	6911
621.528	6857
621.862	6804
622.195	6738
622.529	6669
622.863	6597
623.196	6524
623.530	6450
623.864	6376
624.197	6302
624.530	6230
624.864	6165
625.197	6097
625.531	6020
625.864	5927
626.197	5826
626.530	5718
626.863	5595
627.196	5463
627.529	5328
627.862	5196
628.195	5065
628.528	4935
628.861	4810
629.194	4698
629.527	4591
629.860	4486
630.192	4382
630.525	4285
630.858	4195
631.190	4109
631.523	4026
631.855	3949
632.188	3882
632.520	3820
632.852	3761
633.185	3700
633.517	3642
633.849	3589
634.182	3541
634.514	3494
634.846	3453
635.178	3416
635.510	3384
635.842	3355
636.174	3326
636.506	3298
636.837	3270
637.169	3242
637.501	3213
637.833	3180
638.164	3144
638.496	3103
638.828	3057
639.159	3005
639.491	2949
639.822	2890
640.154	2831
640.485	2773
640.816	2716
641.147	2659
641.479	2604
641.810	2551
642.141	2500
642.472	2449
642.803	2399
643.134	2351
643.465	2310
643.796	2278
644.127	2255
644.458	2243
644.789	2244
645.119	2258
645.450	2279
645.781	2303
646.111	2327
646.442	2348
646.773	2364
647.103	2377
647.433	2388
647.764	2400
648.094	2416
648.425	2436
648.755	2459
649.085	2487
649.415	2516
649.745	2547
650.075	2577
650.405	2612
650.735	2688
651.065	3232
651.395	4925
651.725	7721
652.055	11356
652.385	15004
652.715	18651
653.044	22300
653.374	25954
653.704	29613
654.033	32082
654.363	33771
654.692	34888
655.022	35615
655.351	36092
655.680	36389
656.010	36551
656.339	36624
656.668	36643
656.997	36634
657.326	36605
657.655	36523
657.984	35961
658.313	34243
658.642	31411
658.971	27732
659.300	24035
659.629	20339
659.958	16643
660.286	12947
660.615	9253
660.944	6755
661.272	5042
661.601	3902
661.929	3149
662.258	2642
662.586	2310
662.915	2107
663.243	1990
663.571	1924
663.899	1884
664.228	1859
664.556	1843
664.884	1832
665.212	1823
665.540	1818
665.868	1815
666.196	1813
666.524	1813
666.852	1815
667.179	1823
667.507	1837
667.835	1858
668.162	1885
668.490	1919
668.818	1959
669.145	2002
669.473	2043
669.800	2081
670.127	2115
670.455	2143
670.782	2166
671.109	2187
671.436	2204
671.764	2219
672.091	2231
672.418	2242
672.745	2250
673.072	2258
673.399	2268
673.726	2279
674.053	2287
674.379	2290
674.706	2289
675.033	2289
675.359	2285
675.686	2280
676.013	2278
676.339	2279
676.666	2287
676.992	2304
677.318	2328
677.645	2355
677.971	2380
678.297	2404
678.624	2426
678.950	2447
679.276	2467
679.602	2486
679.928	2506
680.254	2532
680.580	2564
680.906	2605
681.232	2655
681.558	2708
681.883	2759
682.209	2807
682.535	2852
682.860	2893
683.186	2927
683.511	2954
683.837	2971
684.162	2985
684.488	2996
684.813	3007
685.138	3018
685.464	3027
685.789	3035
686.114	3043
686.439	3054
686.764	3064
687.089	3072
687.414	3072
687.739	3063
688.064	3045
688.389	3022
688.714	2994
689.039	2964
689.363	2933
689.688	2898
690.013	2865
690.337	2835
690.662	2811
690.986	2789
691.311	2767
691.635	2744
691.959	2724
692.284	2710
692.608	2706
692.932	2711
693.256	2721
693.580	2733
693.904	2748
694.228	2766
694.552	2782
694.876	2789
695.200	2787
695.524	2776
695.848	2758
696.172	2736
696.495	2713
696.819	2689
697.143	2664
697.466	2638
697.790	2616
698.113	2601
698.437	2594
698.760	2593
699.083	2592
699.407	2585
699.730	2572
700.053	2551
700.376	2522
700.699	2481
701.022	2430
701.345	2375
701.668	2324
701.991	2280
702.314	2251
702.637	2238
702.960	2244
703.283	2268
703.605	2310
703.928	2366
704.251	2430
704.573	2493
704.896	2551
705.218	2598
705.540	2634
705.863	2664
706.185	2689
706.507	2710
706.830	2730
707.152	2751
707.474	2774
707.796	2800
708.118	2826
708.440	2852
708.762	2875
709.084	2893
709.406	2903
709.728	2905
710.049	2899
710.371	2887
710.693	2868
711.014	2848
711.336	2828
711.658	2809
711.979	2794
712.301	2779
712.622	2763
712.943	2744
713.265	2721
713.586	2697
713.907	2674
714.228	2654
714.549	2638
714.870	2627
715.191	2623
715.512	2622
715.833	2619
716.154	2613
716.475	2602
716.796	2586
717.117	2562
717.437	2534
717.758	2502
718.078	2470
718.399	2439
718.719	2411
719.040	2387
719.360	2369
719.681	2356
720.001	2347
720.321	2343
720.642	2341
720.962	2343
721.282	2349
721.602	2357
721.922	2366
722.242	2378
722.562	2394
722.882	2413
723.202	2430
723.521	2446
723.841	2463
724.161	2480
724.481	2497
724.800	2515
725.120	2538
725.439	2565
725.759	2596
726.078	2631
726.398	2673
726.717	2725
727.036	2785
727.355	2847
727.675	2908
727.994	2965
728.313	3021
728.632	3069
728.951	3109
729.270	3143
729.589	3176
729.908	3216
730.226	3261
730.545	3311
730.864	3365
731.182	3423
731.501	3481
731.820	3537
732.138	3586
732.457	3629
732.775	3668
733.093	3700
733.412	3719
733.730	3724
734.048	3717
734.367	3701
734.685	3679
735.003	3655
735.321	3633
735.639	3615
735.957	3601
736.275	3589
736.593	3569
736.910	3540
737.228	3498
737.546	3445
737.863	3382
738.181	3313
738.499	3240
738.816	3168
739.134	3098
739.451	3027
739.768	2955
740.086	2886
740.403	2822
740.720	2763
741.038	2707
741.355	2654
741.672	2601
741.989	2547
742.306	2490
742.623	2432
742.940	2375
743.257	2323
743.573	2277
743.890	2240
744.207	2213
744.523	2193
744.840	2181
745.157	2174
745.473	2174
745.790	2183
746.106	2200
746.422	2226
746.739	2259
747.055	2298
747.371	2343
747.687	2389
748.004	2433
748.320	2472
748.636	2506
748.952	2540
749.268	2575
749.584	2609
749.899	2639
750.215	2670
750.531	2706
750.847	2744
751.162	2784
751.478	2822
751.793	2863
752.109	2905
752.424	2951
752.740	2998
753.055	3051
753.370	3115
753.686	3189
754.001	3268
754.316	3350
754.631	3439
754.946	3532
755.261	3630
755.576	3725
755.891	3817
756.206	3908
756.521	4004
756.836	4102
757.150	4196
757.465	4279
757.780	4350
758.094	4410
758.409	4456
758.723	4485
759.038	4499
759.352	4499
759.667	4487
759.981	4466
760.295	4444
760.609	4428
760.923	4419
761.238	4414
761.552	4412
761.866	4407
762.180	4398
762.493	4375
762.807	4330
763.121	4261
763.435	4173
763.749	4078
764.062	3988
764.376	3914
764.689	3863
765.003	3836
765.316	3833
765.630	3847
765.943	3870
766.257	3897
766.570	3919
766.883	3926
767.196	3917
767.509	3892
767.822	3856
768.135	3808
768.448	3757
768.761	3703
769.074	3657
769.387	3622
769.700	3600
770.013	3587
770.325	3576
770.638	3560
770.950	3531
771.263	3484
771.575	3418
771.888	3334
772.200	3237
772.513	3131
772.825	3020
773.137	2906
773.449	2794
773.761	2685
774.074	2584
774.386	2494
774.698	2420
775.010	2359
775.321	2315
775.633	2286
775.945	2270
776.257	2261
776.568	2259
776.880	2266
777.192	2283
777.503	2308
777.815	2340
778.126	2380
778.438	2429
778.749	2481
779.060	2531
779.372	2579
779.683	2625
779.994	2666
780.305	2699
780.616	2721
780.927	2736
781.238	2740
781.549	2734
781.860	2717
782.171	2692
782.481	2664
782.792	2637
783.103	2609
783.413	2579
783.724	2548
784.034	2517
784.345	2489
784.655	2463
784.966	2437
785.276	2410
785.586	2383
785.896	2357
786.207	2328
786.517	2298
786.827	2269
787.137	2241
787.447	2214
787.757	2187
788.066	2163
788.376	2139
788.686	2115
788.996	2091
789.305	2067
789.615	2049
789.925	2038
790.234	2036
790.544	2041
790.853	2051
791.162	2062
791.472	2071
791.781	2075
792.090	2071
792.399	2058
792.708	2039
793.017	2017
793.326	1996
793.635	1977
793.944	1959
794.253	1944
794.562	1933
794.871	1926
795.179	1921
795.488	1915
795.797	1904
796.105	1887
796.414	1858
796.722	1820
797.031	1771
797.339	1713
797.647	1647
797.956	1578
798.264	1513
798.572	1460
798.880	1419
799.188	1389
799.496	1367
799.804	1350
800.112	1337
800.420	1326
800.728	1315
801.035	1302
801.343	1286
801.651	1274
801.958	1270
802.266	1275
802.573	1286
802.881	1300
803.188	1317
803.496	1336
803.803	1355
804.110	1372
804.417	1388
804.724	1402
805.032	1415
805.339	1426
805.646	1433
805.953	1437
806.259	1438
806.566	1436
806.873	1430
807.180	1423
807.486	1415
807.793	1406
808.100	1391
808.406	1368
808.713	1337
809.019	1301
809.326	1264
809.632	1228
809.938	1196
810.244	1166
810.551	1140
810.857	1119
811.163	1100
811.469	1081
811.775	1059
812.081	1038
812.387	1018
812.692	1002
812.998	990
813.304	980
813.610	972
813.915	966
814.221	961
814.526	956
814.832	952
815.137	947
815.443	941
815.748	932
816.053	919
816.358	906
816.664	894
816.969	884
817.274	874
817.579	866
817.884	862
818.189	861
818.493	860
818.798	858
819.103	852
819.408	844
819.712	834
820.017	823
820.321	812
820.626	800
820.930	790
821.235	783
821.539	780
821.843	781
822.148	782
822.452	783
822.756	782
823.060	780
823.364	775
823.668	768
823.972	760
824.276	751
824.580	745
824.883	742
825.187	740
825.491	740
825.795	740
826.098	739
826.402	739
826.705	736
827.008	731
827.312	723
827.615	711
827.918	696
828.222	679
828.525	662
828.828	646
829.131	630
829.434	614
829.737	599
830.040	587
830.343	577
830.645	568
830.948	559
831.251	551
831.553	544
831.856	538
832.159	532
832.461	525
832.764	517
833.066	510
833.368	504
833.671	500
833.973	497
834.275	493
834.577	490
834.879	486
835.181	481
835.483	475
835.785	468
836.087	460
836.389	450
836.690	438
836.992	426
837.294	414
837.595	400
837.897	386
838.198	373
838.500	360
838.801	348
839.103	338
839.404	329
839.705	322
840.006	316
840.307	311
840.608	307
840.910	305
841.210	302
841.511	300
841.812	297
842.113	293
842.414	289
842.715	284
843.015	278
843.316	272
843.616	266
843.917	261
844.217	257
844.518	252
844.818	249
845.118	247
845.419	246
845.719	245
846.019	243
846.319	242
846.619	241
846.919	240
847.219	238
847.519	237
847.819	236
848.118	236
848.418	239
848.718	246
849.017	258
849.317	275
849.616	295
849.916	318
850.215	344
850.515	372
850.814	400
851.113	425
851.412	448
851.712	468
852.011	487
852.310	505
852.609	521
852.908	535
853.206	548
853.505	559
853.804	569
854.103	578
854.401	584
854.700	587
854.999	585
855.297	577
855.595	565
855.894	549
856.192	529
856.491	506
856.789	481
857.087	455
857.385	431
857.683	410
857.981	391
858.279	373
858.577	355
858.875	341
859.173	328
859.471	319
859.768	310
860.066	303
860.363	297
860.661	292
860.959	288
861.256	284
861.553	280
861.851	274
862.148	269
862.445	264
862.742	259
863.039	254
863.337	250
863.634	248
863.931	246
864.227	244
864.524	243
864.821	244
865.118	243
865.415	240
865.711	237
866.008	234
866.304	229
866.601	224
866.897	221
867.194	218
867.490	215
867.786	214
868.082	214
868.379	214
868.675	215
868.971	215
869.267	215
869.563	215
869.859	215
870.154	214
870.450	213
870.746	211
871.042	211
871.337	210
871.633	211
871.928	212
872.224	213
872.519	215
872.815	217
873.110	218
873.405	218
873.700	217
873.995	217
874.291	217
874.586	218
874.881	219
875.175	221
875.470	224
875.765	229
876.060	233
876.355	237
876.649	242
876.944	246
877.238	251
877.533	254
877.827	257
878.122	259
878.416	260
878.710	259
879.005	258
879.299	257
879.593	256
879.887	255
880.181	254
880.475	253
880.769	251
881.063	249
881.356	246
881.650	243
881.944	239
882.238	200
882.531	192
882.825	189
883.118	195
883.412	191
883.705	189
883.998	201
884.291	198
884.585	205
884.878	215
>>>>>>>>>> END of Data <<<<<<<<<<