Date	2021年06月15日火曜日 05時25分48秒
Spectrometers	USB2+H05879
ダーク	使用
リファレンス	使用
積分時間[msec]	10
平均回数	280
ｽﾑｰｼﾞﾝｸﾞ	10
Electrical Dark	USE
ピクセル数	2048
計測モード	吸光度
保存開始波長[nm]	190.664
保存終了波長[nm]	884.878
保存ﾋﾟｯﾁ波長[nm]	全波長

>>>>>>>>>> Data Start <<<<<<<<<<<<
190.664	0.000000
191.040	0.000000
191.415	0.000000
191.791	-1.995594
192.166	-0.483021
192.542	-0.672843
192.917	0.000000
193.293	-0.342820
193.668	-0.376552
194.044	-1.003627
194.419	0.000000
194.794	-1.342045
195.170	-1.267707
195.545	-1.182996
195.920	-1.058614
196.296	-0.944816
196.671	-0.786205
197.046	-0.639330
197.421	-0.589956
197.796	-0.593313
198.171	-0.558564
198.546	-0.510153
198.922	-0.456331
199.297	-0.440047
199.672	-0.416148
200.047	-0.391580
200.422	-0.364951
200.796	-0.350119
201.171	-0.337212
201.546	-0.340522
201.921	-0.324262
202.296	-0.320036
202.671	-0.295535
203.045	-0.267140
203.420	-0.254131
203.795	-0.238904
204.170	-0.230591
204.544	-0.231630
204.919	-0.228792
205.294	-0.227626
205.668	-0.202944
206.043	-0.193425
206.417	-0.200853
206.792	-0.190952
207.166	-0.182566
207.541	-0.169930
207.915	-0.177521
208.289	-0.157936
208.664	-0.155642
209.038	-0.156698
209.412	-0.142918
209.787	-0.131083
210.161	-0.114227
210.535	-0.115189
210.909	-0.109304
211.284	-0.102086
211.658	-0.114223
212.032	-0.112651
212.406	-0.115050
212.780	-0.115056
213.154	-0.103049
213.528	-0.109349
213.902	-0.104623
214.276	-0.087577
214.650	-0.093608
215.024	-0.094537
215.398	-0.097017
215.772	-0.087203
216.145	-0.090272
216.519	-0.080952
216.893	-0.074845
217.267	-0.072210
217.640	-0.078050
218.014	-0.073967
218.388	-0.060030
218.761	-0.068389
219.135	-0.062509
219.508	-0.054800
219.882	-0.054310
220.256	-0.046187
220.629	-0.044900
221.003	-0.056670
221.376	-0.058240
221.749	-0.056853
222.123	-0.070855
222.496	-0.070949
222.869	-0.063916
223.243	-0.065457
223.616	-0.064347
223.989	-0.072771
224.362	-0.071376
224.736	-0.071730
225.109	-0.066923
225.482	-0.062364
225.855	-0.064982
226.228	-0.076313
226.601	-0.069986
226.974	-0.071295
227.347	-0.065750
227.720	-0.071248
228.093	-0.077195
228.466	-0.079262
228.839	-0.075208
229.212	-0.075809
229.585	-0.088831
229.957	-0.077574
230.330	-0.072405
230.703	-0.068989
231.076	-0.075558
231.448	-0.076046
231.821	-0.066571
232.194	-0.065034
232.566	-0.060772
232.939	-0.060584
233.311	-0.065397
233.684	-0.054878
234.056	-0.048005
234.429	-0.049749
234.801	-0.042532
235.174	-0.047397
235.546	-0.047311
235.918	-0.049051
236.291	-0.044336
236.663	-0.042151
237.035	-0.039315
237.408	-0.027528
237.780	-0.022757
238.152	-0.022481
238.524	-0.029028
238.896	-0.019074
239.268	-0.018997
239.641	-0.026097
240.013	-0.023333
240.385	-0.020264
240.757	-0.022231
241.129	-0.021174
241.500	-0.028155
241.872	-0.029200
242.244	-0.025451
242.616	-0.032870
242.988	-0.026969
243.360	-0.015190
243.731	-0.003790
244.103	-0.004824
244.475	-0.009742
244.847	0.002507
245.218	0.003700
245.590	0.006679
245.961	0.009648
246.333	0.014915
246.705	0.011298
247.076	0.011641
247.448	0.015605
247.819	0.010278
248.190	0.015614
248.562	0.011350
248.933	0.012454
249.305	0.015386
249.676	0.024522
250.047	0.017536
250.418	0.018987
250.790	0.013140
251.161	0.008533
251.532	-0.000074
251.903	-0.000107
252.274	0.015076
252.645	0.012464
253.016	0.008314
253.387	0.002162
253.758	0.000429
254.129	0.001773
254.500	0.008271
254.871	0.015099
255.242	0.022346
255.613	0.028899
255.984	0.022328
256.355	0.026029
256.725	0.024149
257.096	0.027500
257.467	0.020584
257.838	0.025392
258.208	0.024955
258.579	0.029591
258.949	0.027820
259.320	0.029547
259.690	0.030224
260.061	0.028109
260.431	0.031979
260.802	0.035832
261.172	0.039167
261.543	0.041036
261.913	0.036294
262.283	0.032862
262.654	0.022563
263.024	0.013915
263.394	0.013685
263.764	0.019084
264.135	0.020694
264.505	0.024265
264.875	0.025674
265.245	0.027945
265.615	0.028986
265.985	0.027165
266.355	0.036785
266.725	0.039505
267.095	0.047403
267.465	0.047009
267.835	0.041112
268.205	0.028046
268.575	0.029979
268.944	0.032340
269.314	0.030233
269.684	0.034475
270.054	0.032144
270.423	0.038711
270.793	0.044386
271.163	0.040637
271.532	0.036600
271.902	0.045253
272.271	0.053320
272.641	0.053298
273.010	0.041639
273.380	0.038526
273.749	0.040667
274.119	0.042979
274.488	0.044870
274.857	0.034775
275.227	0.038119
275.596	0.043506
275.965	0.054829
276.335	0.057767
276.704	0.046551
277.073	0.047634
277.442	0.047042
277.811	0.047527
278.180	0.053215
278.549	0.050273
278.918	0.049719
279.287	0.053852
279.656	0.053028
280.025	0.045213
280.394	0.040894
280.763	0.054238
281.132	0.060446
281.501	0.066233
281.869	0.056860
282.238	0.063342
282.607	0.063421
282.976	0.064678
283.344	0.061544
283.713	0.064581
284.081	0.060000
284.450	0.070720
284.819	0.077574
285.187	0.081556
285.556	0.085162
285.924	0.078263
286.292	0.077270
286.661	0.076661
287.029	0.075842
287.398	0.071793
287.766	0.071656
288.134	0.069476
288.502	0.069564
288.871	0.071283
289.239	0.069932
289.607	0.074848
289.975	0.065102
290.343	0.073639
290.711	0.072476
291.079	0.074166
291.447	0.068885
291.815	0.069300
292.183	0.072327
292.551	0.068381
292.919	0.068352
293.287	0.069079
293.655	0.070415
294.022	0.071675
294.390	0.081152
294.758	0.084113
295.126	0.086461
295.493	0.089527
295.861	0.098292
296.229	0.090011
296.596	0.093933
296.964	0.096736
297.331	0.091744
297.699	0.097020
298.066	0.101852
298.434	0.104716
298.801	0.105717
299.168	0.108752
299.536	0.118651
299.903	0.114893
300.270	0.120954
300.638	0.133231
301.005	0.138517
301.372	0.145125
301.739	0.155055
302.106	0.157851
302.473	0.166235
302.840	0.171412
303.207	0.190399
303.574	0.201899
303.941	0.219536
304.308	0.229404
304.675	0.239657
305.042	0.259611
305.409	0.276967
305.776	0.288526
306.143	0.312136
306.509	0.332196
306.876	0.353848
307.243	0.374025
307.610	0.401604
307.976	0.422307
308.343	0.443606
308.709	0.469795
309.076	0.500166
309.442	0.523562
309.809	0.546760
310.175	0.575840
310.542	0.605680
310.908	0.628060
311.275	0.650543
311.641	0.674515
312.007	0.698307
312.373	0.726023
312.740	0.752276
313.106	0.775608
313.472	0.805901
313.838	0.826607
314.204	0.849200
314.570	0.869412
314.936	0.889500
315.302	0.907085
315.668	0.927993
316.034	0.948647
316.400	0.974304
316.766	0.990681
317.132	1.013370
317.498	1.033055
317.864	1.042277
318.230	1.056344
318.595	1.067014
318.961	1.081281
319.327	1.097543
319.692	1.109105
320.058	1.116696
320.424	1.126958
320.789	1.138613
321.155	1.149885
321.520	1.160489
321.886	1.173644
322.251	1.183205
322.616	1.190342
322.982	1.197622
323.347	1.201756
323.712	1.206308
324.078	1.210954
324.443	1.215239
324.808	1.219249
325.173	1.223776
325.539	1.229500
325.904	1.231841
326.269	1.235956
326.634	1.239264
326.999	1.241542
327.364	1.242871
327.729	1.248007
328.094	1.250194
328.459	1.251448
328.823	1.250897
329.188	1.252422
329.553	1.251298
329.918	1.253493
330.283	1.256014
330.647	1.258775
331.012	1.259950
331.377	1.260860
331.741	1.259417
332.106	1.260652
332.470	1.260242
332.835	1.260242
333.199	1.259698
333.564	1.261340
333.928	1.262151
334.293	1.262937
334.657	1.262721
335.021	1.264335
335.386	1.262644
335.750	1.262005
336.114	1.262149
336.478	1.262211
336.843	1.262301
337.207	1.262429
337.571	1.261843
337.935	1.261587
338.299	1.259785
338.663	1.258741
339.027	1.259847
339.391	1.260659
339.755	1.260559
340.119	1.260263
340.483	1.260045
340.846	1.260989
341.210	1.261307
341.574	1.261460
341.938	1.261175
342.301	1.261261
342.665	1.261274
343.029	1.261505
343.392	1.262102
343.756	1.261636
344.119	1.261856
344.483	1.261227
344.846	1.261168
345.210	1.261782
345.573	1.261464
345.937	1.261935
346.300	1.262746
346.663	1.262341
347.027	1.262861
347.390	1.263221
347.753	1.263787
348.116	1.264028
348.479	1.264253
348.843	1.263291
349.206	1.262820
349.569	1.262259
349.932	1.262903
350.295	1.263140
350.658	1.263238
351.021	1.263735
351.383	1.264981
351.746	1.265062
352.109	1.265767
352.472	1.266217
352.835	1.265859
353.197	1.266022
353.560	1.266996
353.923	1.267040
354.285	1.266949
354.648	1.266623
355.011	1.266063
355.373	1.266154
355.736	1.266219
356.098	1.265871
356.461	1.266652
356.823	1.266864
357.185	1.268155
357.548	1.268337
357.910	1.268653
358.272	1.268827
358.635	1.268074
358.997	1.267922
359.359	1.269109
359.721	1.269312
360.083	1.270141
360.445	1.270707
360.807	1.270669
361.169	1.270572
361.531	1.271434
361.893	1.272321
362.255	1.272903
362.617	1.273545
362.979	1.274453
363.341	1.274545
363.703	1.275091
364.064	1.275438
364.426	1.276181
364.788	1.276033
365.149	1.276428
365.511	1.276252
365.873	1.276908
366.234	1.277755
366.596	1.278150
366.957	1.277855
367.319	1.278539
367.680	1.278134
368.042	1.278048
368.403	1.278961
368.764	1.279805
369.126	1.280097
369.487	1.280033
369.848	1.280368
370.209	1.281171
370.570	1.280956
370.931	1.281946
371.293	1.282171
371.654	1.282293
372.015	1.283479
372.376	1.284356
372.737	1.284814
373.098	1.285606
373.458	1.285969
373.819	1.287445
374.180	1.288392
374.541	1.289264
374.902	1.289497
375.263	1.290283
375.623	1.291456
375.984	1.292583
376.345	1.292865
376.705	1.293988
377.066	1.295134
377.426	1.295443
377.787	1.295530
378.147	1.296479
378.508	1.297098
378.868	1.298324
379.228	1.299085
379.589	1.298969
379.949	1.299509
380.309	1.299836
380.670	1.299828
381.030	1.300452
381.390	1.300156
381.750	1.300344
382.110	1.300100
382.470	1.301219
382.830	1.301703
383.190	1.301720
383.550	1.301375
383.910	1.301657
384.270	1.301659
384.630	1.301796
384.990	1.302611
385.350	1.302739
385.709	1.303001
386.069	1.303498
386.429	1.303029
386.788	1.303642
387.148	1.303732
387.508	1.303782
387.867	1.303906
388.227	1.304567
388.586	1.304738
388.946	1.305126
389.305	1.305137
389.665	1.305948
390.024	1.305771
390.383	1.305737
390.743	1.305805
391.102	1.306045
391.461	1.306151
391.820	1.306169
392.179	1.305612
392.539	1.305532
392.898	1.306064
393.257	1.305939
393.616	1.306005
393.975	1.305915
394.334	1.305703
394.693	1.305965
395.051	1.306000
395.410	1.306058
395.769	1.306101
396.128	1.306263
396.487	1.305775
396.845	1.304936
397.204	1.304044
397.563	1.303100
397.921	1.302714
398.280	1.302172
398.638	1.300992
398.997	1.300272
399.355	1.299199
399.714	1.298380
400.072	1.296967
400.431	1.296001
400.789	1.295100
401.147	1.293939
401.506	1.292992
401.864	1.291768
402.222	1.290219
402.580	1.288627
402.938	1.287495
403.297	1.285887
403.655	1.284173
404.013	1.283102
404.371	1.282171
404.729	1.281144
405.087	1.280217
405.444	1.278972
405.802	1.277704
406.160	1.277117
406.518	1.275835
406.876	1.274606
407.233	1.273698
407.591	1.272869
407.949	1.271636
408.306	1.270068
408.664	1.268726
409.022	1.267837
409.379	1.266531
409.737	1.265515
410.094	1.263966
410.451	1.262466
410.809	1.261258
411.166	1.259889
411.523	1.258618
411.881	1.257529
412.238	1.256051
412.595	1.254252
412.952	1.252972
413.310	1.251779
413.667	1.250396
414.024	1.249314
414.381	1.248134
414.738	1.246482
415.095	1.244858
415.452	1.243243
415.809	1.241831
416.165	1.240472
416.522	1.238611
416.879	1.236906
417.236	1.234890
417.593	1.233388
417.949	1.231805
418.306	1.230153
418.663	1.229399
419.019	1.227532
419.376	1.225821
419.732	1.224187
420.089	1.223176
420.445	1.221805
420.802	1.220331
421.158	1.218414
421.514	1.216625
421.871	1.214847
422.227	1.213295
422.583	1.211953
422.939	1.210234
423.295	1.208826
423.652	1.206863
424.008	1.205101
424.364	1.203376
424.720	1.201899
425.076	1.200533
425.432	1.198664
425.788	1.197202
426.143	1.194634
426.499	1.192582
426.855	1.190837
427.211	1.189083
427.567	1.187108
427.922	1.185264
428.278	1.182997
428.634	1.181554
428.989	1.179583
429.345	1.177998
429.700	1.176294
430.056	1.174365
430.411	1.172854
430.767	1.170692
431.122	1.168971
431.478	1.167230
431.833	1.165476
432.188	1.163424
432.543	1.161299
432.899	1.158952
433.254	1.156469
433.609	1.154545
433.964	1.152559
434.319	1.149997
434.674	1.147624
435.029	1.145391
435.384	1.142956
435.739	1.140927
436.094	1.138790
436.449	1.136928
436.804	1.134539
437.158	1.132474
437.513	1.130253
437.868	1.127750
438.223	1.125819
438.577	1.123267
438.932	1.121088
439.287	1.118742
439.641	1.116448
439.996	1.114000
440.350	1.111960
440.704	1.109757
441.059	1.107493
441.413	1.104873
441.768	1.102714
442.122	1.100558
442.476	1.098063
442.830	1.095803
443.185	1.093469
443.539	1.091101
443.893	1.088602
444.247	1.086144
444.601	1.083808
444.955	1.081341
445.309	1.078940
445.663	1.076157
446.017	1.073761
446.371	1.070881
446.724	1.068207
447.078	1.065502
447.432	1.063040
447.786	1.060407
448.139	1.057545
448.493	1.054857
448.847	1.052354
449.200	1.049373
449.554	1.046582
449.907	1.043753
450.261	1.040790
450.614	1.038077
450.968	1.035075
451.321	1.032336
451.674	1.029586
452.027	1.026423
452.381	1.023457
452.734	1.020646
453.087	1.017805
453.440	1.014688
453.793	1.011897
454.146	1.008993
454.499	1.006280
454.852	1.003323
455.205	1.000537
455.558	0.997788
455.911	0.994788
456.264	0.991964
456.617	0.989403
456.970	0.986698
457.322	0.984459
457.675	0.982241
458.028	0.979729
458.380	0.977393
458.733	0.975112
459.086	0.972697
459.438	0.970292
459.791	0.967890
460.143	0.965471
460.496	0.963138
460.848	0.960663
461.200	0.958246
461.553	0.955670
461.905	0.953323
462.257	0.950696
462.609	0.948221
462.961	0.945983
463.314	0.943920
463.666	0.941761
464.018	0.939432
464.370	0.937270
464.722	0.934946
465.074	0.932565
465.426	0.930501
465.777	0.928571
466.129	0.926333
466.481	0.924429
466.833	0.922660
467.184	0.920659
467.536	0.918338
467.888	0.916184
468.239	0.914006
468.591	0.911559
468.943	0.909159
469.294	0.906544
469.646	0.904154
469.997	0.901608
470.348	0.899091
470.700	0.896549
471.051	0.894118
471.402	0.891977
471.754	0.889747
472.105	0.887497
472.456	0.885429
472.807	0.883289
473.158	0.881184
473.509	0.879202
473.860	0.877274
474.211	0.875314
474.562	0.873455
474.913	0.871599
475.264	0.869692
475.615	0.867779
475.966	0.866018
476.316	0.864086
476.667	0.862186
477.018	0.860274
477.368	0.858321
477.719	0.856468
478.070	0.854687
478.420	0.852877
478.771	0.850982
479.121	0.849122
479.472	0.847349
479.822	0.845422
480.172	0.843644
480.523	0.841616
480.873	0.839365
481.223	0.836556
481.573	0.833818
481.924	0.831148
482.274	0.828782
482.624	0.826541
482.974	0.824701
483.324	0.823177
483.674	0.822016
484.024	0.820782
484.374	0.819623
484.724	0.818496
485.073	0.817294
485.423	0.816016
485.773	0.814793
486.123	0.813591
486.472	0.812311
486.822	0.811021
487.172	0.809867
487.521	0.808614
487.871	0.807420
488.220	0.806247
488.570	0.805103
488.919	0.803650
489.268	0.801951
489.618	0.799943
489.967	0.797648
490.316	0.795067
490.666	0.792164
491.015	0.789302
491.364	0.786672
491.713	0.784200
492.062	0.782025
492.411	0.779986
492.760	0.778108
493.109	0.776164
493.458	0.774238
493.807	0.772472
494.156	0.770646
494.505	0.768621
494.853	0.766651
495.202	0.764606
495.551	0.762645
495.900	0.760679
496.248	0.758783
496.597	0.756846
496.945	0.755080
497.294	0.753314
497.642	0.751460
497.991	0.749570
498.339	0.747634
498.688	0.745960
499.036	0.744330
499.384	0.742622
499.732	0.740896
500.081	0.739176
500.429	0.737375
500.777	0.735632
501.125	0.733924
501.473	0.732162
501.821	0.730536
502.169	0.728902
502.517	0.727389
502.865	0.725807
503.213	0.724250
503.561	0.722711
503.908	0.721202
504.256	0.719567
504.604	0.717980
504.952	0.716452
505.299	0.714864
505.647	0.713399
505.994	0.711722
506.342	0.710057
506.689	0.708364
507.037	0.706739
507.384	0.705001
507.732	0.703471
508.079	0.701959
508.426	0.700404
508.774	0.698900
509.121	0.697506
509.468	0.696146
509.815	0.694677
510.162	0.693288
510.509	0.691860
510.856	0.690445
511.203	0.689083
511.550	0.687694
511.897	0.686327
512.244	0.684933
512.591	0.683575
512.938	0.682211
513.284	0.680872
513.631	0.679564
513.978	0.678245
514.324	0.676944
514.671	0.675709
515.018	0.674404
515.364	0.673068
515.711	0.671740
516.057	0.670470
516.403	0.669081
516.750	0.667715
517.096	0.666447
517.443	0.665135
517.789	0.663958
518.135	0.662666
518.481	0.661462
518.827	0.660254
519.173	0.658999
519.519	0.657759
519.865	0.656573
520.211	0.655326
520.557	0.654092
520.903	0.652801
521.249	0.651574
521.595	0.650240
521.941	0.648839
522.287	0.647410
522.632	0.645959
522.978	0.644614
523.324	0.643220
523.669	0.641881
524.015	0.640475
524.360	0.639062
524.706	0.637732
525.051	0.636331
525.397	0.634939
525.742	0.633578
526.087	0.632174
526.433	0.630907
526.778	0.629632
527.123	0.628366
527.468	0.626934
527.813	0.625608
528.158	0.624339
528.504	0.622941
528.849	0.621475
529.193	0.620181
529.538	0.618828
529.883	0.617470
530.228	0.615971
530.573	0.614577
530.918	0.613177
531.263	0.611770
531.607	0.610411
531.952	0.609036
532.296	0.607591
532.641	0.606261
532.986	0.604770
533.330	0.603293
533.675	0.601868
534.019	0.600279
534.363	0.598655
534.708	0.597176
535.052	0.595709
535.396	0.594246
535.741	0.592845
536.085	0.591474
536.429	0.589931
536.773	0.588479
537.117	0.586865
537.461	0.585230
537.805	0.583466
538.149	0.581637
538.493	0.579834
538.837	0.578024
539.181	0.576155
539.524	0.574311
539.868	0.572459
540.212	0.570627
540.556	0.568800
540.899	0.566918
541.243	0.565179
541.586	0.563436
541.930	0.561617
542.273	0.559761
542.617	0.557766
542.960	0.555771
543.304	0.553616
543.647	0.551528
543.990	0.549395
544.333	0.547274
544.677	0.545194
545.020	0.543188
545.363	0.541159
545.706	0.539165
546.049	0.537156
546.392	0.535090
546.735	0.533057
547.078	0.530950
547.421	0.528764
547.764	0.526573
548.106	0.524259
548.449	0.521822
548.792	0.519476
549.135	0.517113
549.477	0.514768
549.820	0.512584
550.162	0.510252
550.505	0.508035
550.847	0.505746
551.190	0.503262
551.532	0.500750
551.875	0.498116
552.217	0.495398
552.559	0.492792
552.901	0.490168
553.244	0.487598
553.586	0.485162
553.928	0.482768
554.270	0.480403
554.612	0.478117
554.954	0.475739
555.296	0.473362
555.638	0.470933
555.980	0.468272
556.322	0.465532
556.663	0.462672
557.005	0.459709
557.347	0.456930
557.689	0.454111
558.030	0.451339
558.372	0.448606
558.713	0.445923
559.055	0.443301
559.396	0.440632
559.738	0.437851
560.079	0.435099
560.421	0.432333
560.762	0.429610
561.103	0.426942
561.444	0.424299
561.786	0.421714
562.127	0.419152
562.468	0.416496
562.809	0.413811
563.150	0.411074
563.491	0.408298
563.832	0.405384
564.173	0.402349
564.514	0.399201
564.855	0.396027
565.195	0.392711
565.536	0.389423
565.877	0.386198
566.218	0.382946
566.558	0.379853
566.899	0.376881
567.239	0.374068
567.580	0.371506
567.920	0.369131
568.261	0.366953
568.601	0.364866
568.941	0.362847
569.282	0.360915
569.622	0.359063
569.962	0.357176
570.302	0.355329
570.643	0.353515
570.983	0.351850
571.323	0.350247
571.663	0.348683
572.003	0.347124
572.343	0.345574
572.683	0.343890
573.022	0.342111
573.362	0.340267
573.702	0.338397
574.042	0.336563
574.381	0.334786
574.721	0.333055
575.061	0.331364
575.400	0.329780
575.740	0.328220
576.079	0.326663
576.419	0.324995
576.758	0.323231
577.097	0.321425
577.437	0.319550
577.776	0.317618
578.115	0.315714
578.454	0.313921
578.794	0.312336
579.133	0.310923
579.472	0.309624
579.811	0.308422
580.150	0.307214
580.489	0.305987
580.828	0.304632
581.167	0.303237
581.505	0.301829
581.844	0.300403
582.183	0.298968
582.522	0.297553
582.860	0.296181
583.199	0.294873
583.538	0.293679
583.876	0.292495
584.215	0.291329
584.553	0.290162
584.891	0.289036
585.230	0.287838
585.568	0.286578
585.906	0.285218
586.245	0.283824
586.583	0.282476
586.921	0.281272
587.259	0.280194
587.597	0.279153
587.935	0.278111
588.273	0.276959
588.611	0.275643
588.949	0.274231
589.287	0.272804
589.625	0.271315
589.963	0.269939
590.300	0.268634
590.638	0.267404
590.976	0.266208
591.313	0.264981
591.651	0.263741
591.989	0.262495
592.326	0.261313
592.664	0.260241
593.001	0.259183
593.338	0.258236
593.676	0.257398
594.013	0.256527
594.350	0.255668
594.687	0.254860
595.025	0.254129
595.362	0.253353
595.699	0.252528
596.036	0.251741
596.373	0.250937
596.710	0.250119
597.047	0.249242
597.384	0.248357
597.720	0.247442
598.057	0.246539
598.394	0.245636
598.731	0.244734
599.067	0.243841
599.404	0.242950
599.741	0.242067
600.077	0.241246
600.414	0.240497
600.750	0.239796
601.087	0.239168
601.423	0.238528
601.759	0.237885
602.096	0.237190
602.432	0.236558
602.768	0.235894
603.104	0.235200
603.440	0.234511
603.776	0.233856
604.112	0.233185
604.448	0.232589
604.784	0.232001
605.120	0.231450
605.456	0.230921
605.792	0.230368
606.128	0.229824
606.463	0.229298
606.799	0.228721
607.135	0.228141
607.470	0.227580
607.806	0.226952
608.142	0.226336
608.477	0.225769
608.812	0.225191
609.148	0.224651
609.483	0.224080
609.819	0.223558
610.154	0.222984
610.489	0.222399
610.824	0.221820
611.159	0.221302
611.494	0.220715
611.830	0.220204
612.165	0.219771
612.500	0.219352
612.834	0.218981
613.169	0.218604
613.504	0.218151
613.839	0.217713
614.174	0.217279
614.509	0.216784
614.843	0.216337
615.178	0.215907
615.512	0.215479
615.847	0.215054
616.182	0.214676
616.516	0.214334
616.850	0.213996
617.185	0.213649
617.519	0.213302
617.853	0.212954
618.188	0.212476
618.522	0.211972
618.856	0.211466
619.190	0.210860
619.524	0.210285
619.858	0.209720
620.192	0.209196
620.526	0.208743
620.860	0.208392
621.194	0.207970
621.528	0.207549
621.862	0.207165
622.195	0.206774
622.529	0.206351
622.863	0.205952
623.196	0.205539
623.530	0.205143
623.864	0.204708
624.197	0.204361
624.530	0.203963
624.864	0.203620
625.197	0.203307
625.531	0.203016
625.864	0.202684
626.197	0.202379
626.530	0.202085
626.863	0.201754
627.196	0.201332
627.529	0.200957
627.862	0.200469
628.195	0.200067
628.528	0.199629
628.861	0.199182
629.194	0.198820
629.527	0.198450
629.860	0.198081
630.192	0.197630
630.525	0.197152
630.858	0.196763
631.190	0.196274
631.523	0.195811
631.855	0.195203
632.188	0.194711
632.520	0.194261
632.852	0.193761
633.185	0.193271
633.517	0.192736
633.849	0.192290
634.182	0.191990
634.514	0.191675
634.846	0.191359
635.178	0.191076
635.510	0.190831
635.842	0.190520
636.174	0.190082
636.506	0.189779
636.837	0.189431
637.169	0.189156
637.501	0.188879
637.833	0.188627
638.164	0.188385
638.496	0.188075
638.828	0.187757
639.159	0.187432
639.491	0.186976
639.822	0.186552
640.154	0.186077
640.485	0.185555
640.816	0.184984
641.147	0.184408
641.479	0.183765
641.810	0.183168
642.141	0.182647
642.472	0.182082
642.803	0.181510
643.134	0.180989
643.465	0.180436
643.796	0.179965
644.127	0.179539
644.458	0.179112
644.789	0.178720
645.119	0.178458
645.450	0.178323
645.781	0.178404
646.111	0.178408
646.442	0.178506
646.773	0.178473
647.103	0.178408
647.433	0.178354
647.764	0.178214
648.094	0.178014
648.425	0.177964
648.755	0.177974
649.085	0.177779
649.415	0.177746
649.745	0.177816
650.075	0.177807
650.405	0.177694
650.735	0.175884
651.065	0.165638
651.395	0.156921
651.725	0.143278
652.055	0.103965
652.385	0.077083
652.715	0.060096
653.044	0.048409
653.374	0.039890
653.704	0.033431
654.033	0.045866
654.363	0.053293
654.692	0.057648
655.022	0.060199
655.351	0.061745
655.680	0.062651
656.010	0.063129
656.339	0.063333
656.668	0.063367
656.997	0.063318
657.326	0.063205
657.655	0.063062
657.984	0.062199
658.313	0.057946
658.642	0.052091
658.971	0.057386
659.300	0.067218
659.629	0.080338
659.958	0.098714
660.286	0.126340
660.615	0.172684
660.944	0.171405
661.272	0.169443
661.601	0.167934
661.929	0.167441
662.258	0.167494
662.586	0.167635
662.915	0.167776
663.243	0.167434
663.571	0.167037
663.899	0.166621
664.228	0.166363
664.556	0.166017
664.884	0.165627
665.212	0.165321
665.540	0.165110
665.868	0.164936
666.196	0.164769
666.524	0.164530
666.852	0.164261
667.179	0.164011
667.507	0.163726
667.835	0.163528
668.162	0.163266
668.490	0.163075
668.818	0.162944
669.145	0.162878
669.473	0.162971
669.800	0.163019
670.127	0.163147
670.455	0.163183
670.782	0.163258
671.109	0.163090
671.436	0.163099
671.764	0.163148
672.091	0.163087
672.418	0.163029
672.745	0.162943
673.072	0.162900
673.399	0.162819
673.726	0.162778
674.053	0.162724
674.379	0.162667
674.706	0.162589
675.033	0.162486
675.359	0.162415
675.686	0.162314
676.013	0.162099
676.339	0.161845
676.666	0.161476
676.992	0.161230
677.318	0.161131
677.645	0.160931
677.971	0.160873
678.297	0.160814
678.624	0.160725
678.950	0.160590
679.276	0.160399
679.602	0.160148
679.928	0.159891
680.254	0.159638
680.580	0.159369
680.906	0.159144
681.232	0.158977
681.558	0.158849
681.883	0.158866
682.209	0.158886
682.535	0.158900
682.860	0.158864
683.186	0.158824
683.511	0.158737
683.837	0.158638
684.162	0.158510
684.488	0.158398
684.813	0.158310
685.138	0.158084
685.464	0.157886
685.789	0.157706
686.114	0.157579
686.439	0.157475
686.764	0.157415
687.089	0.157338
687.414	0.157345
687.739	0.157322
688.064	0.157311
688.389	0.157235
688.714	0.157027
689.039	0.156800
689.363	0.156606
689.688	0.156476
690.013	0.156283
690.337	0.156217
690.662	0.156141
690.986	0.156033
691.311	0.155930
691.635	0.155807
691.959	0.155688
692.284	0.155460
692.608	0.155280
692.932	0.155223
693.256	0.155205
693.580	0.155129
693.904	0.155157
694.228	0.155184
694.552	0.155225
694.876	0.155187
695.200	0.155200
695.524	0.155189
695.848	0.155071
696.172	0.154808
696.495	0.154560
696.819	0.154421
697.143	0.154137
697.466	0.153794
697.790	0.153470
698.113	0.153186
698.437	0.152901
698.760	0.152721
699.083	0.152651
699.407	0.152635
699.730	0.152557
700.053	0.152460
700.376	0.152373
700.699	0.152140
701.022	0.151785
701.345	0.151345
701.668	0.150860
701.991	0.150271
702.314	0.149535
702.637	0.148892
702.960	0.148384
703.283	0.147976
703.605	0.147444
703.928	0.147255
704.251	0.147253
704.573	0.147207
704.896	0.147210
705.218	0.147241
705.540	0.147147
705.863	0.146929
706.185	0.146534
706.507	0.146151
706.830	0.145723
707.152	0.145230
707.474	0.144797
707.796	0.144395
708.118	0.144050
708.440	0.143787
708.762	0.143598
709.084	0.143492
709.406	0.143376
709.728	0.143295
710.049	0.143152
710.371	0.143040
710.693	0.142799
711.014	0.142431
711.336	0.142258
711.658	0.142049
711.979	0.141803
712.301	0.141651
712.622	0.141560
712.943	0.141533
713.265	0.141391
713.586	0.141355
713.907	0.141364
714.228	0.141430
714.549	0.141414
714.870	0.141441
715.191	0.141425
715.512	0.141472
715.833	0.141518
716.154	0.141491
716.475	0.141367
716.796	0.141188
717.117	0.141050
717.437	0.140792
717.758	0.140541
718.078	0.140161
718.399	0.139814
718.719	0.139404
719.040	0.139022
719.360	0.138806
719.681	0.138534
720.001	0.138425
720.321	0.138232
720.642	0.138068
720.962	0.137867
721.282	0.137801
721.602	0.137763
721.922	0.137619
722.242	0.137436
722.562	0.137338
722.882	0.137280
723.202	0.137305
723.521	0.137310
723.841	0.137287
724.161	0.137296
724.481	0.137377
724.800	0.137328
725.120	0.137282
725.439	0.137344
725.759	0.137347
726.078	0.137306
726.398	0.137304
726.717	0.137301
727.036	0.137351
727.355	0.137511
727.675	0.137679
727.994	0.137921
728.313	0.138060
728.632	0.138259
728.951	0.138365
729.270	0.138341
729.589	0.138255
729.908	0.138094
730.226	0.137939
730.545	0.137783
730.864	0.137653
731.182	0.137499
731.501	0.137419
731.820	0.137406
732.138	0.137375
732.457	0.137308
732.775	0.137209
733.093	0.137184
733.412	0.137129
733.730	0.137098
734.048	0.136918
734.367	0.136660
734.685	0.136338
735.003	0.135985
735.321	0.135698
735.639	0.135411
735.957	0.135230
736.275	0.135149
736.593	0.135149
736.910	0.135108
737.228	0.135127
737.546	0.135094
737.863	0.135054
738.181	0.134912
738.499	0.134657
738.816	0.134422
739.134	0.134273
739.451	0.134154
739.768	0.133985
740.086	0.133758
740.403	0.133475
740.720	0.133296
741.038	0.133087
741.355	0.132849
741.672	0.132611
741.989	0.132316
742.306	0.132028
742.623	0.131652
742.940	0.131235
743.257	0.130573
743.573	0.130102
743.890	0.129524
744.207	0.128976
744.523	0.128495
744.840	0.128123
745.157	0.127823
745.473	0.127449
745.790	0.127123
746.106	0.126761
746.422	0.126491
746.739	0.126258
747.055	0.126065
747.371	0.125903
747.687	0.125788
748.004	0.125829
748.320	0.125874
748.636	0.125870
748.952	0.125809
749.268	0.125919
749.584	0.125945
749.899	0.126061
750.215	0.126054
750.531	0.126025
750.847	0.126037
751.162	0.126056
751.478	0.126136
751.793	0.126126
752.109	0.126084
752.424	0.125961
752.740	0.125910
753.055	0.125881
753.370	0.125857
753.686	0.125999
754.001	0.126211
754.316	0.126461
754.631	0.126622
754.946	0.126701
755.261	0.126852
755.576	0.127000
755.891	0.126941
756.206	0.126889
756.521	0.126769
756.836	0.126762
757.150	0.126806
757.465	0.126828
757.780	0.126846
758.094	0.126915
758.409	0.126958
758.723	0.127066
759.038	0.127106
759.352	0.127125
759.667	0.127029
759.981	0.126945
760.295	0.126702
760.609	0.126403
760.923	0.126144
761.238	0.125889
761.552	0.125662
761.866	0.125375
762.180	0.125253
762.493	0.125204
762.807	0.125161
763.121	0.125162
763.435	0.124999
763.749	0.124759
764.062	0.124512
764.376	0.124207
764.689	0.123759
765.003	0.123454
765.316	0.123209
765.630	0.123136
765.943	0.122977
766.257	0.122897
766.570	0.122704
766.883	0.122542
767.196	0.122268
767.509	0.121899
767.822	0.121524
768.135	0.121206
768.448	0.120953
768.761	0.120484
769.074	0.120106
769.387	0.119768
769.700	0.119410
770.013	0.119168
770.325	0.118963
770.638	0.118827
770.950	0.118675
771.263	0.118585
771.575	0.118384
771.888	0.118020
772.200	0.117588
772.513	0.117205
772.825	0.116762
773.137	0.116358
773.449	0.116020
773.761	0.115654
774.074	0.115368
774.386	0.115026
774.698	0.114651
775.010	0.114161
775.321	0.113807
775.633	0.113391
775.945	0.113035
776.257	0.112833
776.568	0.112676
776.880	0.112509
777.192	0.112342
777.503	0.112154
777.815	0.111992
778.126	0.111882
778.438	0.111956
778.749	0.112095
779.060	0.112120
779.372	0.112173
779.683	0.112282
779.994	0.112293
780.305	0.112359
780.616	0.112443
780.927	0.112466
781.238	0.112448
781.549	0.112425
781.860	0.112439
782.171	0.112411
782.481	0.112378
782.792	0.112242
783.103	0.112154
783.413	0.112067
783.724	0.111854
784.034	0.111707
784.345	0.111543
784.655	0.111362
784.966	0.111133
785.276	0.110890
785.586	0.110717
785.896	0.110566
786.207	0.110409
786.517	0.110309
786.827	0.110248
787.137	0.110111
787.447	0.109953
787.757	0.109966
788.066	0.109899
788.376	0.109883
788.686	0.109867
788.996	0.109762
789.305	0.109726
789.615	0.109486
789.925	0.109283
790.234	0.109227
790.544	0.109164
790.853	0.109005
791.162	0.108955
791.472	0.109025
791.781	0.109027
792.090	0.109067
792.399	0.108928
792.708	0.108795
793.017	0.108672
793.326	0.108464
793.635	0.108298
793.944	0.108109
794.253	0.107699
794.562	0.107449
794.871	0.107200
795.179	0.106914
795.488	0.106790
795.797	0.106644
796.105	0.106505
796.414	0.106459
796.722	0.106352
797.031	0.106123
797.339	0.105962
797.647	0.105692
797.956	0.105178
798.264	0.104527
798.572	0.103872
798.880	0.103437
799.188	0.102879
799.496	0.102349
799.804	0.101937
800.112	0.101559
800.420	0.101318
800.728	0.101212
801.035	0.101008
801.343	0.100560
801.651	0.100239
801.958	0.099842
802.266	0.099461
802.573	0.099417
802.881	0.099321
803.188	0.099177
803.496	0.099290
803.803	0.099390
804.110	0.099388
804.417	0.099308
804.724	0.099219
805.032	0.099100
805.339	0.099062
805.646	0.099089
805.953	0.098942
806.259	0.099001
806.566	0.098853
806.873	0.098859
807.180	0.098741
807.486	0.098643
807.793	0.098643
808.100	0.098760
808.406	0.098691
808.713	0.098702
809.019	0.098221
809.326	0.097864
809.632	0.097470
809.938	0.096737
810.244	0.096189
810.551	0.095616
810.857	0.095063
811.163	0.094774
811.469	0.094503
811.775	0.094220
812.081	0.094006
812.387	0.093846
812.692	0.093520
812.998	0.093533
813.304	0.093316
813.610	0.093336
813.915	0.093462
814.221	0.093340
814.526	0.093068
814.832	0.093081
815.137	0.093010
815.443	0.093089
815.748	0.092886
816.053	0.092694
816.358	0.092706
816.664	0.092424
816.969	0.092314
817.274	0.092273
817.579	0.092194
817.884	0.092011
818.189	0.091999
818.493	0.091883
818.798	0.091865
819.103	0.091554
819.408	0.091128
819.712	0.090879
820.017	0.090517
820.321	0.089991
820.626	0.089940
820.930	0.089626
821.235	0.089163
821.539	0.088713
821.843	0.088586
822.148	0.088353
822.452	0.088387
822.756	0.088188
823.060	0.088035
823.364	0.088136
823.668	0.088182
823.972	0.088016
824.276	0.088016
824.580	0.087672
824.883	0.087627
825.187	0.087512
825.491	0.087686
825.795	0.087856
826.098	0.087628
826.402	0.087295
826.705	0.087482
827.008	0.087128
827.312	0.086931
827.615	0.086804
827.918	0.086531
828.222	0.086185
828.525	0.086025
828.828	0.085743
829.131	0.085773
829.434	0.085624
829.737	0.085046
830.040	0.084167
830.343	0.083495
830.645	0.083045
830.948	0.082735
831.251	0.082501
831.553	0.082038
831.856	0.081497
832.159	0.081315
832.461	0.081395
832.764	0.081462
833.066	0.081047
833.368	0.080820
833.671	0.080612
833.973	0.080333
834.275	0.080232
834.577	0.080100
834.879	0.079824
835.181	0.079464
835.483	0.078957
835.785	0.078407
836.087	0.077913
836.389	0.077938
836.690	0.077583
836.992	0.076704
837.294	0.075808
837.595	0.074440
837.897	0.073755
838.198	0.073302
838.500	0.072228
838.801	0.071374
839.103	0.070607
839.404	0.070014
839.705	0.069490
840.006	0.069310
840.307	0.069312
840.608	0.069214
840.910	0.069189
841.210	0.069242
841.511	0.069387
841.812	0.069461
842.113	0.069744
842.414	0.069692
842.715	0.069344
843.015	0.068665
843.316	0.068577
843.616	0.067603
843.917	0.067336
844.217	0.066878
844.518	0.066506
844.818	0.066472
845.118	0.066134
845.419	0.066644
845.719	0.066521
846.019	0.066208
846.319	0.066253
846.619	0.065691
846.919	0.065737
847.219	0.065652
847.519	0.065264
847.819	0.064970
848.118	0.064345
848.418	0.063618
848.718	0.062801
849.017	0.062560
849.317	0.062738
849.616	0.062781
849.916	0.063800
850.215	0.064739
850.515	0.065206
850.814	0.065798
851.113	0.066290
851.412	0.066797
851.712	0.066631
852.011	0.066740
852.310	0.067395
852.609	0.067511
852.908	0.067859
853.206	0.067911
853.505	0.068239
853.804	0.068325
854.103	0.068422
854.401	0.068532
854.700	0.068840
854.999	0.068944
855.297	0.069004
855.595	0.069285
855.894	0.069309
856.192	0.069390
856.491	0.069200
856.789	0.069028
857.087	0.068475
857.385	0.067878
857.683	0.067215
857.981	0.067012
858.279	0.066536
858.577	0.065552
858.875	0.064961
859.173	0.063897
859.471	0.063631
859.768	0.062961
860.066	0.062624
860.363	0.061977
860.661	0.061407
860.959	0.061108
861.256	0.061641
861.553	0.061502
861.851	0.060610
862.148	0.060055
862.445	0.059511
862.742	0.059068
863.039	0.058299
863.337	0.057968
863.634	0.057307
863.931	0.057027
864.227	0.056760
864.524	0.056398
864.821	0.056534
865.118	0.056075
865.415	0.056213
865.711	0.055219
866.008	0.054107
866.304	0.054478
866.601	0.054312
866.897	0.054390
867.194	0.053470
867.490	0.052475
867.786	0.052151
868.082	0.052740
868.379	0.052538
868.675	0.052332
868.971	0.052182
869.267	0.052552
869.563	0.053217
869.859	0.053586
870.154	0.053509
870.450	0.053322
870.746	0.053338
871.042	0.053505
871.337	0.053869
871.633	0.054011
871.928	0.054404
872.224	0.054748
872.519	0.053857
872.815	0.053959
873.110	0.054119
873.405	0.054301
873.700	0.054031
873.995	0.053683
874.291	0.053065
874.586	0.054365
874.881	0.054031
875.175	0.053799
875.470	0.053383
875.765	0.052951
876.060	0.052571
876.355	0.052955
876.649	0.053111
876.944	0.053499
877.238	0.052888
877.533	0.053022
877.827	0.053106
878.122	0.053760
878.416	0.054216
878.710	0.055047
879.005	0.055104
879.299	0.055188
879.593	0.055089
879.887	0.055226
880.181	0.055446
880.475	0.055939
880.769	0.054916
881.063	0.055256
881.356	0.055583
881.650	0.055614
881.944	0.055456
882.238	0.058601
882.531	0.052176
882.825	0.047196
883.118	0.048770
883.412	0.057025
883.705	0.041859
883.998	0.055000
884.291	0.059874
884.585	0.046467
884.878	0.051618
>>>>>>>>>> END of Data <<<<<<<<<<
>>>>>>>>>> Raw Data Start <<<<<<<<
190.664	-413
191.040	5
191.415	5
191.791	2
192.166	6
192.542	6
192.917	4
193.293	6
193.668	5
194.044	8
194.419	-12
194.794	9
195.170	9
195.545	9
195.920	10
196.296	10
196.671	11
197.046	11
197.421	12
197.796	13
198.171	13
198.546	13
198.922	14
199.297	14
199.672	14
200.047	15
200.422	15
200.796	15
201.171	15
201.546	16
201.921	15
202.296	16
202.671	16
203.045	16
203.420	16
203.795	16
204.170	16
204.544	16
204.919	16
205.294	16
205.668	16
206.043	16
206.417	15
206.792	15
207.166	15
207.541	14
207.915	14
208.289	14
208.664	14
209.038	14
209.412	14
209.787	14
210.161	14
210.535	14
210.909	14
211.284	14
211.658	14
212.032	14
212.406	14
212.780	14
213.154	13
213.528	14
213.902	14
214.276	13
214.650	13
215.024	14
215.398	14
215.772	14
216.145	14
216.519	14
216.893	14
217.267	13
217.640	14
218.014	14
218.388	14
218.761	14
219.135	14
219.508	14
219.882	14
220.256	14
220.629	14
221.003	15
221.376	15
221.749	15
222.123	15
222.496	15
222.869	15
223.243	15
223.616	15
223.989	15
224.362	16
224.736	16
225.109	16
225.482	16
225.855	15
226.228	15
226.601	15
226.974	15
227.347	15
227.720	16
228.093	16
228.466	15
228.839	15
229.212	15
229.585	15
229.957	15
230.330	15
230.703	15
231.076	16
231.448	15
231.821	15
232.194	15
232.566	15
232.939	14
233.311	14
233.684	14
234.056	14
234.429	14
234.801	14
235.174	14
235.546	14
235.918	14
236.291	14
236.663	15
237.035	15
237.408	15
237.780	15
238.152	15
238.524	15
238.896	15
239.268	15
239.641	15
240.013	16
240.385	16
240.757	16
241.129	16
241.500	16
241.872	16
242.244	16
242.616	17
242.988	16
243.360	16
243.731	16
244.103	16
244.475	16
244.847	16
245.218	16
245.590	16
245.961	16
246.333	16
246.705	16
247.076	16
247.448	16
247.819	16
248.190	16
248.562	16
248.933	17
249.305	17
249.676	17
250.047	17
250.418	16
250.790	17
251.161	17
251.532	17
251.903	17
252.274	16
252.645	17
253.016	17
253.387	17
253.758	17
254.129	17
254.500	17
254.871	17
255.242	17
255.613	16
255.984	16
256.355	16
256.725	16
257.096	16
257.467	16
257.838	16
258.208	16
258.579	16
258.949	16
259.320	16
259.690	16
260.061	17
260.431	17
260.802	17
261.172	17
261.543	17
261.913	17
262.283	17
262.654	17
263.024	18
263.394	18
263.764	18
264.135	18
264.505	18
264.875	18
265.245	18
265.615	17
265.985	18
266.355	17
266.725	17
267.095	17
267.465	17
267.835	17
268.205	17
268.575	17
268.944	17
269.314	17
269.684	17
270.054	17
270.423	16
270.793	16
271.163	17
271.532	17
271.902	16
272.271	16
272.641	16
273.010	17
273.380	17
273.749	17
274.119	17
274.488	17
274.857	17
275.227	17
275.596	17
275.965	17
276.335	17
276.704	18
277.073	18
277.442	18
277.811	18
278.180	18
278.549	18
278.918	18
279.287	18
279.656	18
280.025	19
280.394	19
280.763	19
281.132	19
281.501	18
281.869	18
282.238	18
282.607	18
282.976	17
283.344	18
283.713	17
284.081	17
284.450	17
284.819	17
285.187	17
285.556	17
285.924	17
286.292	17
286.661	17
287.029	17
287.398	17
287.766	17
288.134	18
288.502	17
288.871	18
289.239	18
289.607	18
289.975	18
290.343	18
290.711	18
291.079	18
291.447	18
291.815	18
292.183	18
292.551	18
292.919	18
293.287	19
293.655	19
294.022	19
294.390	18
294.758	18
295.126	18
295.493	18
295.861	17
296.229	18
296.596	18
296.964	17
297.331	18
297.699	18
298.066	18
298.434	18
298.801	18
299.168	18
299.536	17
299.903	18
300.270	17
300.638	17
301.005	17
301.372	17
301.739	17
302.106	18
302.473	18
302.840	18
303.207	18
303.574	18
303.941	18
304.308	18
304.675	19
305.042	18
305.409	18
305.776	19
306.143	18
306.509	19
306.876	19
307.243	19
307.610	19
307.976	19
308.343	20
308.709	20
309.076	20
309.442	20
309.809	20
310.175	20
310.542	20
310.908	21
311.275	21
311.641	21
312.007	22
312.373	22
312.740	22
313.106	23
313.472	22
313.838	23
314.204	23
314.570	24
314.936	24
315.302	25
315.668	25
316.034	26
316.400	26
316.766	26
317.132	26
317.498	27
317.864	28
318.230	28
318.595	29
318.961	29
319.327	30
319.692	31
320.058	32
320.424	33
320.789	33
321.155	34
321.520	35
321.886	36
322.251	37
322.616	38
322.982	39
323.347	41
323.712	42
324.078	44
324.443	46
324.808	47
325.173	49
325.539	50
325.904	52
326.269	54
326.634	56
326.999	57
327.364	59
327.729	61
328.094	62
328.459	64
328.823	67
329.188	68
329.553	71
329.918	72
330.283	74
330.647	76
331.012	78
331.377	79
331.741	82
332.106	84
332.470	86
332.835	88
333.199	90
333.564	92
333.928	94
334.293	96
334.657	98
335.021	100
335.386	103
335.750	105
336.114	108
336.478	110
336.843	112
337.207	114
337.571	117
337.935	119
338.299	122
338.663	125
339.027	126
339.391	129
339.755	131
340.119	133
340.483	136
340.846	137
341.210	140
341.574	142
341.938	144
342.301	146
342.665	148
343.029	150
343.392	152
343.756	155
344.119	157
344.483	159
344.846	161
345.210	163
345.573	165
345.937	167
346.300	169
346.663	171
347.027	172
347.390	174
347.753	176
348.116	178
348.479	179
348.843	182
349.206	183
349.569	186
349.932	187
350.295	189
350.658	190
351.021	191
351.383	192
351.746	194
352.109	195
352.472	196
352.835	198
353.197	199
353.560	200
353.923	202
354.285	203
354.648	205
355.011	206
355.373	208
355.736	209
356.098	210
356.461	211
356.823	213
357.185	213
357.548	214
357.910	215
358.272	217
358.635	218
358.997	220
359.359	220
359.721	221
360.083	222
360.445	223
360.807	224
361.169	225
361.531	226
361.893	227
362.255	228
362.617	228
362.979	229
363.341	230
363.703	231
364.064	232
364.426	233
364.788	234
365.149	235
365.511	237
365.873	237
366.234	238
366.596	238
366.957	239
367.319	240
367.680	241
368.042	242
368.403	242
368.764	242
369.126	242
369.487	243
369.848	243
370.209	243
370.570	244
370.931	244
371.293	244
371.654	244
372.015	244
372.376	244
372.737	244
373.098	244
373.458	244
373.819	244
374.180	244
374.541	245
374.902	245
375.263	246
375.623	247
375.984	247
376.345	248
376.705	249
377.066	249
377.426	250
377.787	251
378.147	251
378.508	252
378.868	252
379.228	252
379.589	253
379.949	254
380.309	254
380.670	255
381.030	255
381.390	256
381.750	257
382.110	257
382.470	257
382.830	257
383.190	258
383.550	258
383.910	259
384.270	260
384.630	261
384.990	261
385.350	262
385.709	263
386.069	264
386.429	265
386.788	265
387.148	266
387.508	266
387.867	267
388.227	268
388.586	269
388.946	270
389.305	272
389.665	273
390.024	275
390.383	277
390.743	278
391.102	279
391.461	280
391.820	280
392.179	281
392.539	282
392.898	282
393.257	283
393.616	284
393.975	286
394.334	288
394.693	289
395.051	292
395.410	294
395.769	296
396.128	297
396.487	298
396.845	299
397.204	300
397.563	300
397.921	300
398.280	301
398.638	302
398.997	302
399.355	303
399.714	304
400.072	306
400.431	307
400.789	308
401.147	309
401.506	310
401.864	311
402.222	312
402.580	313
402.938	313
403.297	313
403.655	314
404.013	314
404.371	314
404.729	314
405.087	315
405.444	316
405.802	317
406.160	317
406.518	318
406.876	319
407.233	320
407.591	321
407.949	321
408.306	322
408.664	323
409.022	324
409.379	325
409.737	325
410.094	327
410.451	328
410.809	329
411.166	331
411.523	332
411.881	334
412.238	335
412.595	337
412.952	338
413.310	339
413.667	340
414.024	341
414.381	342
414.738	343
415.095	344
415.452	346
415.809	347
416.165	348
416.522	350
416.879	352
417.236	355
417.593	358
417.949	361
418.306	365
418.663	369
419.019	373
419.376	378
419.732	382
420.089	386
420.445	390
420.802	394
421.158	398
421.514	401
421.871	404
422.227	407
422.583	409
422.939	412
423.295	414
423.652	417
424.008	419
424.364	421
424.720	422
425.076	423
425.432	424
425.788	425
426.143	427
426.499	430
426.855	432
427.211	434
427.567	437
427.922	439
428.278	441
428.634	442
428.989	443
429.345	445
429.700	447
430.056	450
430.411	452
430.767	456
431.122	459
431.478	461
431.833	464
432.188	466
432.543	468
432.899	470
433.254	472
433.609	472
433.964	472
434.319	473
434.674	474
435.029	475
435.384	477
435.739	479
436.094	482
436.449	485
436.804	490
437.158	495
437.513	500
437.868	506
438.223	511
438.577	518
438.932	525
439.287	533
439.641	540
439.996	547
440.350	554
440.704	562
441.059	569
441.413	577
441.768	584
442.122	590
442.476	597
442.830	604
443.185	611
443.539	617
443.893	624
444.247	629
444.601	634
444.955	637
445.309	640
445.663	642
446.017	644
446.371	646
446.724	647
447.078	648
447.432	648
447.786	648
448.139	648
448.493	648
448.847	647
449.200	647
449.554	646
449.907	645
450.261	645
450.614	644
450.968	644
451.321	643
451.674	643
452.027	643
452.381	644
452.734	645
453.087	645
453.440	647
453.793	648
454.146	651
454.499	655
454.852	660
455.205	665
455.558	671
455.911	677
456.264	683
456.617	688
456.970	694
457.322	698
457.675	703
458.028	707
458.380	710
458.733	713
459.086	717
459.438	721
459.791	726
460.143	731
460.496	738
460.848	746
461.200	754
461.553	764
461.905	772
462.257	779
462.609	786
462.961	792
463.314	798
463.666	802
464.018	806
464.370	810
464.722	816
465.074	821
465.426	825
465.777	829
466.129	833
466.481	835
466.833	836
467.184	836
467.536	836
467.888	835
468.239	833
468.591	831
468.943	830
469.294	829
469.646	830
469.997	832
470.348	836
470.700	842
471.051	850
471.402	859
471.754	869
472.105	881
472.456	893
472.807	907
473.158	922
473.509	938
473.860	956
474.211	974
474.562	994
474.913	1013
475.264	1035
475.615	1055
475.966	1076
476.316	1096
476.667	1117
477.018	1138
477.368	1159
477.719	1181
478.070	1201
478.420	1220
478.771	1239
479.121	1258
479.472	1277
479.822	1297
480.172	1318
480.523	1343
480.873	1378
481.223	1436
481.573	1522
481.924	1629
482.274	1750
482.624	1877
482.974	2004
483.324	2115
483.674	2199
484.024	2256
484.374	2294
484.724	2319
485.073	2336
485.423	2351
485.773	2365
486.123	2378
486.472	2391
486.822	2403
487.172	2413
487.521	2421
487.871	2424
488.220	2417
488.570	2386
488.919	2327
489.268	2245
489.618	2150
489.967	2049
490.316	1946
490.666	1857
491.015	1793
491.364	1756
491.713	1737
492.062	1731
492.411	1732
492.760	1737
493.109	1743
493.458	1749
493.807	1753
494.156	1757
494.505	1762
494.853	1767
495.202	1774
495.551	1783
495.900	1792
496.248	1802
496.597	1812
496.945	1821
497.294	1829
497.642	1839
497.991	1851
498.339	1864
498.688	1879
499.036	1892
499.384	1904
499.732	1916
500.081	1924
500.429	1933
500.777	1940
501.125	1947
501.473	1954
501.821	1961
502.169	1968
502.517	1974
502.865	1977
503.213	1978
503.561	1980
503.908	1980
504.256	1979
504.604	1978
504.952	1976
505.299	1973
505.647	1967
505.994	1961
506.342	1955
506.689	1948
507.037	1942
507.384	1939
507.732	1936
508.079	1933
508.426	1930
508.774	1928
509.121	1924
509.468	1920
509.815	1916
510.162	1912
510.509	1908
510.856	1904
511.203	1898
511.550	1893
511.897	1889
512.244	1885
512.591	1880
512.938	1876
513.284	1872
513.631	1866
513.978	1861
514.324	1855
514.671	1848
515.018	1841
515.364	1835
515.711	1830
516.057	1824
516.403	1819
516.750	1814
517.096	1807
517.443	1799
517.789	1791
518.135	1784
518.481	1778
518.827	1772
519.173	1765
519.519	1759
519.865	1753
520.211	1748
520.557	1743
520.903	1739
521.249	1735
521.595	1732
521.941	1729
522.287	1726
522.632	1723
522.978	1719
523.324	1717
523.669	1716
524.015	1716
524.360	1719
524.706	1724
525.051	1730
525.397	1738
525.742	1747
526.087	1756
526.433	1765
526.778	1772
527.123	1778
527.468	1783
527.813	1787
528.158	1791
528.504	1797
528.849	1806
529.193	1817
529.538	1831
529.883	1847
530.228	1867
530.573	1888
530.918	1911
531.263	1934
531.607	1955
531.952	1973
532.296	1989
532.641	2001
532.986	2011
533.330	2021
533.675	2030
534.019	2043
534.363	2061
534.708	2081
535.052	2104
535.396	2129
535.741	2153
536.085	2173
536.429	2192
536.773	2208
537.117	2220
537.461	2231
537.805	2240
538.149	2251
538.493	2262
538.837	2274
539.181	2289
539.524	2308
539.868	2331
540.212	2356
540.556	2382
540.899	2410
541.243	2435
541.586	2455
541.930	2471
542.273	2482
542.617	2491
542.960	2500
543.304	2513
543.647	2530
543.990	2552
544.333	2577
544.677	2603
545.020	2627
545.363	2647
545.706	2662
546.049	2673
546.392	2679
546.735	2679
547.078	2678
547.421	2678
547.764	2679
548.106	2682
548.449	2688
548.792	2698
549.135	2714
549.477	2734
549.820	2753
550.162	2770
550.505	2782
550.847	2790
551.190	2795
551.532	2798
551.875	2801
552.217	2806
552.559	2813
552.901	2825
553.244	2840
553.586	2856
553.928	2873
554.270	2889
554.612	2901
554.954	2910
555.296	2917
555.638	2924
555.980	2932
556.322	2942
556.663	2958
557.005	2981
557.347	3010
557.689	3042
558.030	3074
558.372	3102
558.713	3128
559.055	3152
559.396	3175
559.738	3201
560.079	3228
560.421	3260
560.762	3298
561.103	3338
561.444	3384
561.786	3432
562.127	3483
562.468	3539
562.809	3601
563.150	3669
563.491	3742
563.832	3824
564.173	3918
564.514	4026
564.855	4156
565.195	4317
565.536	4510
565.877	4734
566.218	4991
566.558	5280
566.899	5597
567.239	5940
567.580	6299
567.920	6668
568.261	7040
568.601	7422
568.941	7817
569.282	8223
569.622	8644
569.962	9083
570.302	9550
570.643	10033
570.983	10519
571.323	10988
571.663	11439
572.003	11868
572.343	12268
572.683	12643
573.022	13025
573.362	13426
573.702	13842
574.042	14256
574.381	14653
574.721	15029
575.061	15391
575.400	15719
575.740	16009
576.079	16266
576.419	16522
576.758	16814
577.097	17158
577.437	17535
577.776	17938
578.115	18359
578.454	18786
578.794	19176
579.133	19477
579.472	19682
579.811	19799
580.150	19833
580.489	19803
580.828	19746
581.167	19691
581.505	19653
581.844	19624
582.183	19595
582.522	19580
582.860	19577
583.199	19574
583.538	19541
583.876	19449
584.215	19276
584.553	19012
584.891	18663
585.230	18237
585.568	17768
585.906	17293
586.245	16865
586.583	16497
586.921	16192
587.259	15914
587.597	15636
587.935	15347
588.273	15051
588.611	14775
588.949	14532
589.287	14327
589.625	14167
589.963	14039
590.300	13937
590.638	13843
590.976	13739
591.313	13616
591.651	13500
591.989	13399
592.326	13318
592.664	13248
593.001	13191
593.338	13156
593.676	13138
594.013	13145
594.350	13194
594.687	13276
595.025	13368
595.362	13453
595.699	13513
596.036	13549
596.373	13557
596.710	13529
597.047	13479
597.384	13418
597.720	13350
598.057	13295
598.394	13255
598.731	13233
599.067	13233
599.404	13256
599.741	13311
600.077	13387
600.414	13471
600.750	13561
601.087	13628
601.423	13660
601.759	13661
602.096	13637
602.432	13597
602.768	13536
603.104	13452
603.440	13348
603.776	13237
604.112	13118
604.448	12996
604.784	12867
605.120	12728
605.456	12594
605.792	12455
606.128	12308
606.463	12158
606.799	12006
607.135	11869
607.470	11732
607.806	11598
608.142	11467
608.477	11340
608.812	11219
609.148	11096
609.483	10967
609.819	10835
610.154	10709
610.489	10593
610.824	10492
611.159	10406
611.494	10320
611.830	10245
612.165	10170
612.500	10086
612.834	9989
613.169	9877
613.504	9756
613.839	9620
614.174	9467
614.509	9313
614.843	9159
615.178	9013
615.512	8868
615.847	8727
616.182	8586
616.516	8443
616.850	8292
617.185	8136
617.519	7977
617.853	7806
618.188	7629
618.522	7468
618.856	7331
619.190	7213
619.524	7109
619.858	7027
620.192	6962
620.526	6904
620.860	6846
621.194	6791
621.528	6736
621.862	6682
622.195	6617
622.529	6546
622.863	6473
623.196	6400
623.530	6327
623.864	6254
624.197	6179
624.530	6107
624.864	6041
625.197	5973
625.531	5896
625.864	5803
626.197	5703
626.530	5595
626.863	5473
627.196	5342
627.529	5209
627.862	5079
628.195	4948
628.528	4820
628.861	4697
629.194	4586
629.527	4481
629.860	4377
630.192	4274
630.525	4179
630.858	4089
631.190	4005
631.523	3923
631.855	3847
632.188	3781
632.520	3718
632.852	3660
633.185	3600
633.517	3543
633.849	3491
634.182	3443
634.514	3397
634.846	3357
635.178	3320
635.510	3288
635.842	3259
636.174	3232
636.506	3203
636.837	3176
637.169	3148
637.501	3119
637.833	3087
638.164	3050
638.496	3010
638.828	2965
639.159	2914
639.491	2859
639.822	2802
640.154	2744
640.485	2687
640.816	2631
641.147	2576
641.479	2523
641.810	2471
642.141	2420
642.472	2371
642.803	2322
643.134	2276
643.465	2236
643.796	2204
644.127	2181
644.458	2170
644.789	2170
645.119	2182
645.450	2203
645.781	2225
646.111	2248
646.442	2268
646.773	2284
647.103	2296
647.433	2307
647.764	2318
648.094	2333
648.425	2352
648.755	2374
649.085	2401
649.415	2429
649.745	2457
650.075	2487
650.405	2520
650.735	2594
651.065	3127
651.395	4762
651.725	7464
652.055	10954
652.385	14608
652.715	18262
653.044	21916
653.374	25576
653.704	29240
654.033	31610
654.363	33244
654.692	34328
655.022	35037
655.351	35504
655.680	35794
656.010	35953
656.339	36024
656.668	36044
656.997	36036
657.326	36008
657.655	35927
657.984	35378
658.313	33718
658.642	30981
658.971	27449
659.300	23747
659.629	20047
659.958	16347
660.286	12647
660.615	8948
660.944	6551
661.272	4892
661.601	3786
661.929	3052
662.258	2556
662.586	2232
662.915	2033
663.243	1919
663.571	1854
663.899	1816
664.228	1791
664.556	1774
664.884	1764
665.212	1756
665.540	1750
665.868	1748
666.196	1746
666.524	1746
666.852	1748
667.179	1755
667.507	1769
667.835	1790
668.162	1816
668.490	1849
668.818	1887
669.145	1928
669.473	1967
669.800	2004
670.127	2037
670.455	2064
670.782	2086
671.109	2107
671.436	2124
671.764	2138
672.091	2150
672.418	2160
672.745	2168
673.072	2176
673.399	2186
673.726	2196
674.053	2204
674.379	2207
674.706	2206
675.033	2204
675.359	2201
675.686	2196
676.013	2194
676.339	2196
676.666	2203
676.992	2220
677.318	2242
677.645	2269
677.971	2292
678.297	2314
678.624	2336
678.950	2356
679.276	2375
679.602	2394
679.928	2414
680.254	2438
680.580	2469
680.906	2508
681.232	2557
681.558	2608
681.883	2658
682.209	2704
682.535	2747
682.860	2786
683.186	2820
683.511	2846
683.837	2862
684.162	2875
684.488	2885
684.813	2896
685.138	2907
685.464	2916
685.789	2924
686.114	2931
686.439	2941
686.764	2952
687.089	2959
687.414	2960
687.739	2950
688.064	2933
688.389	2910
688.714	2883
689.039	2854
689.363	2824
689.688	2791
690.013	2758
690.337	2729
690.662	2705
690.986	2684
691.311	2662
691.635	2641
691.959	2621
692.284	2607
692.608	2603
692.932	2608
693.256	2616
693.580	2627
693.904	2641
694.228	2657
694.552	2672
694.876	2680
695.200	2677
695.524	2665
695.848	2647
696.172	2626
696.495	2604
696.819	2580
697.143	2556
697.466	2531
697.790	2510
698.113	2496
698.437	2489
698.760	2487
699.083	2485
699.407	2478
699.730	2465
700.053	2445
700.376	2416
700.699	2377
701.022	2328
701.345	2275
701.668	2225
701.991	2183
702.314	2155
702.637	2142
702.960	2147
703.283	2169
703.605	2209
703.928	2262
704.251	2321
704.573	2382
704.896	2435
705.218	2479
705.540	2514
705.863	2541
706.185	2565
706.507	2585
706.830	2603
707.152	2622
707.474	2643
707.796	2667
708.118	2692
708.440	2716
708.762	2737
709.084	2754
709.406	2763
709.728	2764
710.049	2758
710.371	2746
710.693	2728
711.014	2707
711.336	2687
711.658	2669
711.979	2653
712.301	2638
712.622	2623
712.943	2603
713.265	2581
713.586	2558
713.907	2535
714.228	2515
714.549	2500
714.870	2489
715.191	2484
715.512	2483
715.833	2479
716.154	2472
716.475	2461
716.796	2445
717.117	2422
717.437	2394
717.758	2364
718.078	2332
718.399	2302
718.719	2275
719.040	2252
719.360	2233
719.681	2220
720.001	2211
720.321	2207
720.642	2205
720.962	2206
721.282	2211
721.602	2217
721.922	2225
722.242	2236
722.562	2249
722.882	2266
723.202	2282
723.521	2296
723.841	2311
724.161	2326
724.481	2341
724.800	2357
725.120	2377
725.439	2401
725.759	2429
726.078	2462
726.398	2500
726.717	2548
727.036	2603
727.355	2659
727.675	2715
727.994	2768
728.313	2819
728.632	2862
728.951	2898
729.270	2930
729.589	2959
729.908	2995
730.226	3036
730.545	3081
730.864	3130
731.182	3182
731.501	3236
731.820	3286
732.138	3330
732.457	3368
732.775	3404
733.093	3432
733.412	3449
733.730	3452
734.048	3445
734.367	3429
734.685	3409
735.003	3385
735.321	3363
735.639	3346
735.957	3332
736.275	3318
736.593	3299
736.910	3271
737.228	3231
737.546	3181
737.863	3122
738.181	3057
738.499	2989
738.816	2922
739.134	2856
739.451	2789
739.768	2722
740.086	2658
740.403	2598
740.720	2542
741.038	2490
741.355	2439
741.672	2389
741.989	2338
742.306	2285
742.623	2231
742.940	2178
743.257	2129
743.573	2086
743.890	2052
744.207	2026
744.523	2008
744.840	1996
745.157	1988
745.473	1987
745.790	1995
746.106	2010
746.422	2034
746.739	2063
747.055	2097
747.371	2137
747.687	2179
748.004	2218
748.320	2253
748.636	2284
748.952	2315
749.268	2346
749.584	2376
749.899	2402
750.215	2430
750.531	2462
750.847	2497
751.162	2532
751.478	2566
751.793	2601
752.109	2639
752.424	2680
752.740	2722
753.055	2769
753.370	2826
753.686	2892
754.001	2963
754.316	3037
754.631	3115
754.946	3199
755.261	3287
755.576	3372
755.891	3454
756.206	3536
756.521	3622
756.836	3709
757.150	3793
757.465	3867
757.780	3930
758.094	3983
758.409	4024
758.723	4050
759.038	4061
759.352	4061
759.667	4050
759.981	4030
760.295	4010
760.609	3995
760.923	3985
761.238	3980
761.552	3976
761.866	3971
762.180	3963
762.493	3941
762.807	3900
763.121	3836
763.435	3758
763.749	3671
764.062	3590
764.376	3523
764.689	3477
765.003	3452
765.316	3449
765.630	3460
765.943	3480
766.257	3503
766.570	3523
766.883	3529
767.196	3521
767.509	3498
767.822	3466
768.135	3423
768.448	3376
768.761	3328
769.074	3285
769.387	3253
769.700	3233
770.013	3221
770.325	3212
770.638	3198
770.950	3171
771.263	3128
771.575	3069
771.888	2994
772.200	2907
772.513	2811
772.825	2712
773.137	2609
773.449	2509
773.761	2411
774.074	2321
774.386	2240
774.698	2173
775.010	2118
775.321	2078
775.633	2053
775.945	2039
776.257	2030
776.568	2028
776.880	2034
777.192	2050
777.503	2072
777.815	2101
778.126	2137
778.438	2181
778.749	2227
779.060	2273
779.372	2315
779.683	2357
779.994	2394
780.305	2423
780.616	2443
780.927	2456
781.238	2461
781.549	2456
781.860	2440
782.171	2418
782.481	2394
782.792	2369
783.103	2345
783.413	2318
783.724	2290
784.034	2262
784.345	2237
784.655	2214
784.966	2191
785.276	2166
785.586	2142
785.896	2118
786.207	2093
786.517	2066
786.827	2039
787.137	2015
787.447	1991
787.757	1968
788.066	1946
788.376	1924
788.686	1903
788.996	1882
789.305	1860
789.615	1844
789.925	1835
790.234	1833
790.544	1837
790.853	1847
791.162	1857
791.472	1866
791.781	1870
792.090	1866
792.399	1855
792.708	1838
793.017	1818
793.326	1800
793.635	1782
793.944	1766
794.253	1752
794.562	1742
794.871	1737
795.179	1733
795.488	1727
795.797	1718
796.105	1702
796.414	1677
796.722	1642
797.031	1599
797.339	1546
797.647	1486
797.956	1424
798.264	1367
798.572	1320
798.880	1283
799.188	1256
799.496	1237
799.804	1223
800.112	1212
800.420	1202
800.728	1193
801.035	1181
801.343	1167
801.651	1156
801.958	1153
802.266	1158
802.573	1168
802.881	1181
803.188	1197
803.496	1214
803.803	1231
804.110	1248
804.417	1262
804.724	1275
805.032	1287
805.339	1297
805.646	1303
805.953	1306
806.259	1307
806.566	1305
806.873	1300
807.180	1293
807.486	1287
807.793	1279
808.100	1266
808.406	1245
808.713	1216
809.019	1183
809.326	1150
809.632	1118
809.938	1089
810.244	1062
810.551	1039
810.857	1020
811.163	1003
811.469	986
811.775	967
812.081	947
812.387	929
812.692	915
812.998	905
813.304	896
813.610	889
813.915	883
814.221	878
814.526	875
814.832	871
815.137	868
815.443	862
815.748	854
816.053	843
816.358	831
816.664	821
816.969	811
817.274	803
817.579	796
817.884	792
818.189	791
818.493	790
818.798	788
819.103	783
819.408	776
819.712	767
820.017	758
820.321	748
820.626	737
820.930	728
821.235	722
821.539	719
821.843	719
822.148	721
822.452	722
822.756	722
823.060	720
823.364	716
823.668	709
823.972	702
824.276	695
824.580	689
824.883	686
825.187	685
825.491	685
825.795	684
826.098	685
826.402	685
826.705	682
827.008	677
827.312	671
827.615	659
827.918	646
828.222	630
828.525	615
828.828	600
829.131	585
829.434	570
829.737	556
830.040	545
830.343	536
830.645	528
830.948	520
831.251	512
831.553	505
831.856	500
832.159	495
832.461	488
832.764	481
833.066	474
833.368	469
833.671	465
833.973	462
834.275	458
834.577	455
834.879	452
835.181	447
835.483	442
835.785	436
836.087	429
836.389	420
836.690	409
836.992	398
837.294	386
837.595	374
837.897	361
838.198	348
838.500	336
838.801	325
839.103	316
839.404	308
839.705	301
840.006	295
840.307	291
840.608	287
840.910	285
841.210	283
841.511	281
841.812	278
842.113	275
842.414	271
842.715	266
843.015	260
843.316	254
843.616	249
843.917	245
844.217	240
844.518	237
844.818	234
845.118	232
845.419	231
845.719	229
846.019	228
846.319	227
846.619	226
846.919	225
847.219	224
847.519	223
847.819	222
848.118	222
848.418	225
848.718	232
849.017	243
849.317	259
849.616	278
849.916	300
850.215	324
850.515	351
850.814	377
851.113	401
851.412	422
851.712	441
852.011	459
852.310	476
852.609	491
852.908	504
853.206	516
853.505	526
853.804	536
854.103	544
854.401	550
854.700	552
854.999	550
855.297	543
855.595	531
855.894	516
856.192	497
856.491	476
856.789	452
857.087	428
857.385	405
857.683	385
857.981	367
858.279	350
858.577	334
858.875	320
859.173	309
859.471	299
859.768	292
860.066	285
860.363	279
860.661	274
860.959	271
861.256	267
861.553	263
861.851	258
862.148	253
862.445	248
862.742	243
863.039	239
863.337	236
863.634	233
863.931	231
864.227	230
864.524	230
864.821	230
865.118	229
865.415	227
865.711	224
866.008	220
866.304	216
866.601	212
866.897	208
867.194	205
867.490	203
867.786	202
868.082	202
868.379	202
868.675	203
868.971	203
869.267	203
869.563	203
869.859	202
870.154	201
870.450	200
870.746	199
871.042	198
871.337	198
871.633	198
871.928	199
872.224	200
872.519	202
872.815	203
873.110	204
873.405	203
873.700	203
873.995	202
874.291	203
874.586	203
874.881	204
875.175	206
875.470	210
875.765	214
876.060	218
876.355	222
876.649	226
876.944	230
877.238	235
877.533	238
877.827	241
878.122	243
878.416	244
878.710	243
879.005	243
879.299	242
879.593	241
879.887	239
880.181	238
880.475	236
880.769	235
881.063	233
881.356	230
881.650	227
881.944	223
882.238	182
882.531	177
882.825	176
883.118	178
883.412	177
883.705	181
883.998	182
884.291	185
884.585	191
884.878	197
>>>>>>>>>> END of Data <<<<<<<<<<