Sept. 29, 2020   18:34:34
A.C. Impedance
File: c:\users\als\desktop\katayama\2020\tokubuchi\20200904 peis\same sample diff t_650_15.txt
Data Source:  Experiment
Instrument Model:  CHI660A
Header: 
Note: 

Init E (V) = -0.171
High Frequency (Hz) = 1e+4
Low Frequency (Hz) = 0.001
Imp FT
Amplitude (V) = 0.005
Quiet Time (sec) = 2
Cycles (.1-1Hz) = 5
Cycles (.01-.1Hz) = 2
Cycles (.001-.01Hz) = 1

Freq/Hz, Z'/ohm, Z"/ohm, Z/ohm, Phase/deg

9.6680e+3, 1.2900e+1, -7.6381e+0, 1.4991e+1, -30.6
8.1055e+3, 1.3126e+1, -8.0312e+0, 1.5388e+1, -31.5
6.6406e+3, 1.2991e+1, -8.7546e+0, 1.5665e+1, -34.0
5.4687e+3, 1.3198e+1, -9.7218e+0, 1.6392e+1, -36.4
4.5898e+3, 1.3465e+1, -1.1191e+1, 1.7508e+1, -39.7
3.7109e+3, 1.3659e+1, -1.3247e+1, 1.9027e+1, -44.1
3.1250e+3, 1.3850e+1, -1.5735e+1, 2.0962e+1, -48.6
2.5391e+3, 1.4207e+1, -1.8920e+1, 2.3660e+1, -53.1
2.1484e+3, 1.4260e+1, -2.2651e+1, 2.6766e+1, -57.8
1.7578e+3, 1.4033e+1, -2.7107e+1, 3.0524e+1, -62.6
1.4648e+3, 1.4909e+1, -3.2626e+1, 3.5871e+1, -65.4
1.1719e+3, 1.6331e+1, -3.9259e+1, 4.2520e+1, -67.4
9.6680e+2, 1.7485e+1, -4.6988e+1, 5.0136e+1, -69.6
8.1055e+2, 1.8843e+1, -5.6149e+1, 5.9226e+1, -71.4
6.6406e+2, 1.9665e+1, -6.8902e+1, 7.1653e+1, -74.1
5.4688e+2, 1.9986e+1, -8.4169e+1, 8.6510e+1, -76.6
4.5898e+2, 2.1341e+1, -1.0222e+2, 1.0442e+2, -78.2
3.7109e+2, 2.3246e+1, -1.2251e+2, 1.2469e+2, -79.3
3.1250e+2, 2.7396e+1, -1.4554e+2, 1.4809e+2, -79.3
2.5391e+2, 2.4884e+1, -1.7301e+2, 1.7479e+2, -81.8
2.1484e+2, 2.5300e+1, -2.1089e+2, 2.1240e+2, -83.2
1.7578e+2, 2.0901e+1, -2.6491e+2, 2.6573e+2, -85.5
1.4648e+2, 2.5681e+1, -3.2459e+2, 3.2560e+2, -85.5
1.1719e+2, 4.2757e+1, -3.7866e+2, 3.8107e+2, -83.6
9.7656e+1, 6.5027e+1, -4.3923e+2, 4.4401e+2, -81.6
8.1380e+1, 9.4157e+1, -5.1446e+2, 5.2300e+2, -79.6
6.9754e+1, 1.1589e+2, -5.9197e+2, 6.0321e+2, -78.9
5.7445e+1, 1.6292e+2, -6.8817e+2, 7.0720e+2, -76.7
4.6503e+1, 2.3692e+2, -8.1523e+2, 8.4896e+2, -73.8
3.7560e+1, 3.3273e+2, -9.4958e+2, 1.0062e+3, -70.7
3.1502e+1, 4.4123e+2, -1.0941e+3, 1.1798e+3, -68.0
2.5699e+1, 5.5934e+2, -1.2584e+3, 1.3771e+3, -66.0
2.1230e+1, 7.0665e+2, -1.4340e+3, 1.5986e+3, -63.8
1.7439e+1, 8.8562e+2, -1.6251e+3, 1.8507e+3, -61.4
1.4361e+1, 1.0892e+3, -1.8334e+3, 2.1325e+3, -59.3
1.1909e+1, 1.2015e+3, -2.0447e+3, 2.3716e+3, -59.6
9.7656e+0, 1.3543e+3, -2.2107e+3, 2.5925e+3, -58.5
8.0708e+0, 1.6943e+3, -2.3314e+3, 2.8820e+3, -54.0
6.6433e+0, 2.0382e+3, -2.4458e+3, 3.1837e+3, -50.2
5.4863e+0, 2.3453e+3, -2.5939e+3, 3.4970e+3, -47.9
4.5422e+0, 2.7024e+3, -2.8071e+3, 3.8965e+3, -46.1
3.7416e+0, 3.0498e+3, -3.0513e+3, 4.3141e+3, -45.0
3.0904e+0, 3.3309e+3, -3.2867e+3, 4.6794e+3, -44.6
2.5498e+0, 3.5961e+3, -3.5494e+3, 5.0527e+3, -44.6
2.1047e+0, 3.8926e+3, -3.8563e+3, 5.4794e+3, -44.7
1.7377e+0, 4.2190e+3, -4.2093e+3, 5.9597e+3, -44.9
1.4340e+0, 4.5126e+3, -4.6504e+3, 6.4800e+3, -45.9
1.1837e+0, 4.8166e+3, -5.1753e+3, 7.0699e+3, -47.1
9.7656e-1, 5.1592e+3, -5.8310e+3, 7.7857e+3, -48.5
8.0708e-1, 5.5486e+3, -6.6319e+3, 8.6469e+3, -50.1
6.6433e-1, 6.0610e+3, -7.5257e+3, 9.6630e+3, -51.2
5.4863e-1, 6.5814e+3, -8.6164e+3, 1.0842e+4, -52.6
4.5422e-1, 7.0446e+3, -9.9152e+3, 1.2163e+4, -54.6
3.7416e-1, 7.5519e+3, -1.1531e+4, 1.3784e+4, -56.8
3.0904e-1, 8.1402e+3, -1.3553e+4, 1.5810e+4, -59.0
2.5498e-1, 9.1534e+3, -1.5909e+4, 1.8354e+4, -60.1
2.1047e-1, 1.0496e+4, -1.9039e+4, 2.1740e+4, -61.1
1.7377e-1, 1.2114e+4, -2.3078e+4, 2.6064e+4, -62.3
1.4340e-1, 1.4343e+4, -2.7838e+4, 3.1316e+4, -62.7
1.1837e-1, 1.7049e+4, -3.3352e+4, 3.7456e+4, -62.9
9.7656e-2, 2.0506e+4, -3.9318e+4, 4.4344e+4, -62.5
8.0708e-2, 2.5557e+4, -4.5960e+4, 5.2588e+4, -60.9
6.6433e-2, 3.1714e+4, -5.3414e+4, 6.2119e+4, -59.3
5.4863e-2, 3.7749e+4, -6.1263e+4, 7.1959e+4, -58.4
4.5422e-2, 4.6368e+4, -6.9872e+4, 8.3857e+4, -56.4
3.7416e-2, 5.8557e+4, -7.7378e+4, 9.7038e+4, -52.9
3.0904e-2, 7.1989e+4, -8.2704e+4, 1.0965e+5, -49.0
2.5498e-2, 8.7155e+4, -8.6344e+4, 1.2268e+5, -44.7
2.1047e-2, 1.0420e+5, -9.0019e+4, 1.3770e+5, -40.8
1.7377e-2, 1.2085e+5, -9.3269e+4, 1.5266e+5, -37.7
1.4340e-2, 1.3730e+5, -9.1273e+4, 1.6487e+5, -33.6
1.1837e-2, 1.5399e+5, -8.8016e+4, 1.7737e+5, -29.8
9.7656e-3, 1.6974e+5, -8.4279e+4, 1.8951e+5, -26.4
8.0708e-3, 1.8182e+5, -7.7030e+4, 1.9746e+5, -23.0
6.6433e-3, 1.9321e+5, -7.1955e+4, 2.0617e+5, -20.4
5.4863e-3, 2.1487e+5, -7.2213e+4, 2.2668e+5, -18.6
4.5422e-3, 2.3391e+5, -6.3500e+4, 2.4238e+5, -15.2
3.7416e-3, 2.3540e+5, -4.7271e+4, 2.4010e+5, -11.4
3.0904e-3, 2.2596e+5, -3.4096e+4, 2.2852e+5, -8.6
2.5498e-3, 2.0711e+5, -2.1538e+4, 2.0823e+5, -5.9
