Sept. 4, 2020   17:30:15
A.C. Impedance
File: c:\users\als\desktop\katayama\2020\tokubuchi\20200904 peis\same sample diff t_650_13.txt
Data Source:  Experiment
Instrument Model:  CHI660A
Header: 
Note: 

Init E (V) = -0.171
High Frequency (Hz) = 1e+4
Low Frequency (Hz) = 0.001
Imp FT
Amplitude (V) = 0.005
Quiet Time (sec) = 2
Cycles (.1-1Hz) = 5
Cycles (.01-.1Hz) = 2
Cycles (.001-.01Hz) = 1

Freq/Hz, Z'/ohm, Z"/ohm, Z/ohm, Phase/deg

9.6680e+3, 1.4215e+1, -8.3455e+0, 1.6484e+1, -30.4
8.1055e+3, 1.4739e+1, -8.8469e+0, 1.7190e+1, -31.0
6.6406e+3, 1.4740e+1, -9.9165e+0, 1.7766e+1, -33.9
5.4687e+3, 1.5325e+1, -1.0801e+1, 1.8749e+1, -35.2
4.5898e+3, 1.5657e+1, -1.2149e+1, 1.9818e+1, -37.8
3.7109e+3, 1.6039e+1, -1.3798e+1, 2.1157e+1, -40.7
3.1250e+3, 1.6440e+1, -1.6090e+1, 2.3003e+1, -44.4
2.5391e+3, 1.6959e+1, -1.8974e+1, 2.5449e+1, -48.2
2.1484e+3, 1.7417e+1, -2.2330e+1, 2.8319e+1, -52.0
1.7578e+3, 1.7828e+1, -2.6008e+1, 3.1532e+1, -55.6
1.4648e+3, 1.8517e+1, -3.0767e+1, 3.5909e+1, -59.0
1.1719e+3, 1.9768e+1, -3.7404e+1, 4.2306e+1, -62.1
9.6680e+2, 2.1588e+1, -4.5370e+1, 5.0245e+1, -64.6
8.1055e+2, 2.3681e+1, -5.4460e+1, 5.9386e+1, -66.5
6.6406e+2, 2.6546e+1, -6.4680e+1, 6.9915e+1, -67.7
5.4688e+2, 3.0922e+1, -7.6898e+1, 8.2882e+1, -68.1
4.5898e+2, 3.5055e+1, -9.1068e+1, 9.7582e+1, -68.9
3.7109e+2, 4.1365e+1, -1.0616e+2, 1.1394e+2, -68.7
3.1250e+2, 5.0007e+1, -1.2427e+2, 1.3395e+2, -68.1
2.5391e+2, 5.9300e+1, -1.4490e+2, 1.5656e+2, -67.7
2.1484e+2, 7.8274e+1, -1.6843e+2, 1.8573e+2, -65.1
1.7578e+2, 9.5975e+1, -2.0589e+2, 2.2716e+2, -65.0
1.4648e+2, 1.0959e+2, -2.3497e+2, 2.5927e+2, -65.0
1.1719e+2, 1.3632e+2, -2.5694e+2, 2.9087e+2, -62.1
9.7656e+1, 1.7483e+2, -2.8910e+2, 3.3785e+2, -58.8
8.1380e+1, 2.0914e+2, -3.1639e+2, 3.7926e+2, -56.5
6.9754e+1, 2.4915e+2, -3.3833e+2, 4.2017e+2, -53.6
5.7445e+1, 2.9945e+2, -3.6046e+2, 4.6861e+2, -50.3
4.6503e+1, 3.5105e+2, -3.8625e+2, 5.2194e+2, -47.7
3.7560e+1, 4.1960e+2, -4.2842e+2, 5.9967e+2, -45.6
3.1502e+1, 4.7715e+2, -4.6358e+2, 6.6527e+2, -44.2
2.5699e+1, 5.1778e+2, -4.7889e+2, 7.0529e+2, -42.8
2.1230e+1, 5.5959e+2, -4.9506e+2, 7.4714e+2, -41.5
1.7439e+1, 5.9591e+2, -5.0640e+2, 7.8201e+2, -40.4
1.4361e+1, 6.3987e+2, -5.2452e+2, 8.2738e+2, -39.3
1.1909e+1, 6.8654e+2, -5.5560e+2, 8.8319e+2, -39.0
9.7656e+0, 7.3424e+2, -6.1109e+2, 9.5527e+2, -39.8
8.0708e+0, 7.8279e+2, -6.9537e+2, 1.0470e+3, -41.6
6.6433e+0, 8.2733e+2, -7.9185e+2, 1.1452e+3, -43.7
5.4863e+0, 8.7437e+2, -8.9557e+2, 1.2516e+3, -45.7
4.5422e+0, 9.2651e+2, -1.0148e+3, 1.3741e+3, -47.6
3.7416e+0, 9.8296e+2, -1.1531e+3, 1.5152e+3, -49.6
3.0904e+0, 1.0440e+3, -1.3561e+3, 1.7114e+3, -52.4
2.5498e+0, 1.1104e+3, -1.5828e+3, 1.9335e+3, -54.9
2.1047e+0, 1.1902e+3, -1.8099e+3, 2.1662e+3, -56.7
1.7377e+0, 1.2916e+3, -2.0891e+3, 2.4561e+3, -58.3
1.4340e+0, 1.4066e+3, -2.4314e+3, 2.8090e+3, -60.0
1.1837e+0, 1.4988e+3, -2.8930e+3, 3.2582e+3, -62.6
9.7656e-1, 1.6566e+3, -3.4338e+3, 3.8125e+3, -64.2
8.0708e-1, 1.8690e+3, -4.0190e+3, 4.4323e+3, -65.1
6.6433e-1, 2.2029e+3, -4.6419e+3, 5.1381e+3, -64.6
5.4863e-1, 2.6833e+3, -5.4401e+3, 6.0659e+3, -63.7
4.5422e-1, 3.2225e+3, -6.3898e+3, 7.1564e+3, -63.2
3.7416e-1, 3.8897e+3, -7.4062e+3, 8.3655e+3, -62.3
3.0904e-1, 4.8249e+3, -8.6811e+3, 9.9318e+3, -60.9
2.5498e-1, 6.0814e+3, -1.0210e+4, 1.1884e+4, -59.2
2.1047e-1, 7.7764e+3, -1.1927e+4, 1.4238e+4, -56.9
1.7377e-1, 9.8963e+3, -1.3661e+4, 1.6869e+4, -54.1
1.4340e-1, 1.2452e+4, -1.5516e+4, 1.9894e+4, -51.3
1.1837e-1, 1.5091e+4, -1.7126e+4, 2.2826e+4, -48.6
9.7656e-2, 1.8456e+4, -1.8430e+4, 2.6082e+4, -45.0
8.0708e-2, 2.1830e+4, -1.8971e+4, 2.8921e+4, -41.0
6.6433e-2, 2.6113e+4, -1.9488e+4, 3.2584e+4, -36.7
5.4863e-2, 3.0316e+4, -2.0157e+4, 3.6406e+4, -33.6
4.5422e-2, 3.2695e+4, -2.0505e+4, 3.8593e+4, -32.1
3.7416e-2, 3.5644e+4, -2.0100e+4, 4.0920e+4, -29.4
3.0904e-2, 3.8724e+4, -1.8983e+4, 4.3127e+4, -26.1
2.5498e-2, 4.0776e+4, -1.7273e+4, 4.4284e+4, -23.0
2.1047e-2, 4.3748e+4, -1.4807e+4, 4.6186e+4, -18.7
1.7377e-2, 4.8851e+4, -1.2303e+4, 5.0376e+4, -14.1
