Oct. 2, 2020   14:36:28
A.C. Impedance
File: c:\users\als\desktop\katayama\2020\tokubuchi\20200904 peis\same sample diff t_700_15.txt
Data Source:  Experiment
Instrument Model:  CHI660A
Header: 
Note: 

Init E (V) = -0.171
High Frequency (Hz) = 1e+4
Low Frequency (Hz) = 0.001
Imp FT
Amplitude (V) = 0.005
Quiet Time (sec) = 2
Cycles (.1-1Hz) = 5
Cycles (.01-.1Hz) = 2
Cycles (.001-.01Hz) = 1

Freq/Hz, Z'/ohm, Z"/ohm, Z/ohm, Phase/deg

9.6680e+3, 1.3292e+1, -9.2920e+0, 1.6217e+1, -35.0
8.1055e+3, 1.3628e+1, -9.5472e+0, 1.6639e+1, -35.0
6.6406e+3, 1.4097e+1, -1.0594e+1, 1.7634e+1, -36.9
5.4687e+3, 1.4773e+1, -1.1723e+1, 1.8859e+1, -38.4
4.5898e+3, 1.5100e+1, -1.3122e+1, 2.0005e+1, -41.0
3.7109e+3, 1.5248e+1, -1.4855e+1, 2.1288e+1, -44.3
3.1250e+3, 1.5561e+1, -1.7369e+1, 2.3320e+1, -48.1
2.5391e+3, 1.6096e+1, -2.0283e+1, 2.5893e+1, -51.6
2.1484e+3, 1.6787e+1, -2.3516e+1, 2.8893e+1, -54.5
1.7578e+3, 1.7965e+1, -2.7276e+1, 3.2661e+1, -56.6
1.4648e+3, 1.9013e+1, -3.2292e+1, 3.7473e+1, -59.5
1.1719e+3, 2.0123e+1, -3.9162e+1, 4.4029e+1, -62.8
9.6680e+2, 2.1969e+1, -4.8459e+1, 5.3206e+1, -65.6
8.1055e+2, 2.4548e+1, -5.9018e+1, 6.3920e+1, -67.4
6.6406e+2, 2.7018e+1, -7.1276e+1, 7.6225e+1, -69.2
5.4688e+2, 3.0123e+1, -8.4533e+1, 8.9740e+1, -70.4
4.5898e+2, 3.7315e+1, -9.7416e+1, 1.0432e+2, -69.0
3.7109e+2, 4.7009e+1, -1.1418e+2, 1.2347e+2, -67.6
3.1250e+2, 5.8099e+1, -1.4440e+2, 1.5565e+2, -68.1
2.5391e+2, 7.4071e+1, -1.8138e+2, 1.9592e+2, -67.8
2.1484e+2, 8.7342e+1, -2.0448e+2, 2.2235e+2, -66.9
1.7578e+2, 9.6696e+1, -2.1897e+2, 2.3937e+2, -66.2
1.4648e+2, 1.3111e+2, -2.3840e+2, 2.7208e+2, -61.2
1.1719e+2, 1.7365e+2, -2.6902e+2, 3.2019e+2, -57.2
9.7656e+1, 2.0124e+2, -3.0628e+2, 3.6648e+2, -56.7
8.1380e+1, 2.1266e+2, -3.2483e+2, 3.8825e+2, -56.8
6.9754e+1, 2.2749e+2, -3.5612e+2, 4.2258e+2, -57.4
5.7445e+1, 2.7959e+2, -3.9300e+2, 4.8230e+2, -54.6
4.6503e+1, 3.5848e+2, -4.1299e+2, 5.4687e+2, -49.0
3.7560e+1, 4.3014e+2, -4.3650e+2, 6.1282e+2, -45.4
3.1502e+1, 4.9135e+2, -4.5876e+2, 6.7223e+2, -43.0
2.5699e+1, 5.5029e+2, -4.7948e+2, 7.2988e+2, -41.1
2.1230e+1, 5.9303e+2, -4.9946e+2, 7.7534e+2, -40.1
1.7439e+1, 6.4242e+2, -5.1885e+2, 8.2578e+2, -38.9
1.4361e+1, 6.9680e+2, -5.4726e+2, 8.8601e+2, -38.1
1.1909e+1, 7.4256e+2, -5.8244e+2, 9.4373e+2, -38.1
9.7656e+0, 7.7722e+2, -6.2407e+2, 9.9676e+2, -38.8
8.0708e+0, 8.2205e+2, -6.8027e+2, 1.0670e+3, -39.6
6.6433e+0, 8.5997e+2, -7.3004e+2, 1.1280e+3, -40.3
5.4863e+0, 9.1323e+2, -8.1010e+2, 1.2208e+3, -41.6
4.5422e+0, 9.8686e+2, -9.2247e+2, 1.3509e+3, -43.1
3.7416e+0, 1.0615e+3, -1.0487e+3, 1.4922e+3, -44.7
3.0904e+0, 1.1548e+3, -1.2250e+3, 1.6835e+3, -46.7
2.5498e+0, 1.2511e+3, -1.4282e+3, 1.8987e+3, -48.8
2.1047e+0, 1.3362e+3, -1.6371e+3, 2.1132e+3, -50.8
1.7377e+0, 1.4606e+3, -1.8875e+3, 2.3866e+3, -52.3
1.4340e+0, 1.6582e+3, -2.1635e+3, 2.7259e+3, -52.5
1.1837e+0, 1.8351e+3, -2.4468e+3, 3.0585e+3, -53.1
9.7656e-1, 2.0706e+3, -2.7735e+3, 3.4612e+3, -53.3
8.0708e-1, 2.4819e+3, -3.1917e+3, 4.0431e+3, -52.1
6.6433e-1, 2.9421e+3, -3.6599e+3, 4.6959e+3, -51.2
5.4863e-1, 3.3584e+3, -4.1409e+3, 5.3316e+3, -51.0
4.5422e-1, 3.8971e+3, -4.5942e+3, 6.0245e+3, -49.7
3.7416e-1, 4.6095e+3, -4.9990e+3, 6.7998e+3, -47.3
3.0904e-1, 5.4307e+3, -5.3217e+3, 7.6035e+3, -44.4
2.5498e-1, 6.3471e+3, -5.6580e+3, 8.5028e+3, -41.7
2.1047e-1, 7.4092e+3, -5.9677e+3, 9.5136e+3, -38.8
1.7377e-1, 8.6247e+3, -6.1074e+3, 1.0568e+4, -35.3
1.4340e-1, 9.8467e+3, -6.1118e+3, 1.1589e+4, -31.8
1.1837e-1, 1.0939e+4, -6.0218e+3, 1.2487e+4, -28.8
9.7656e-2, 1.1933e+4, -5.8990e+3, 1.3312e+4, -26.3
8.0708e-2, 1.2882e+4, -5.5604e+3, 1.4031e+4, -23.3
6.6433e-2, 1.3766e+4, -5.0389e+3, 1.4659e+4, -20.1
5.4863e-2, 1.4700e+4, -4.4819e+3, 1.5368e+4, -17.0
4.5422e-2, 1.5652e+4, -3.8941e+3, 1.6130e+4, -14.0
3.7416e-2, 1.6289e+4, -3.5276e+3, 1.6667e+4, -12.2
3.0904e-2, 1.6706e+4, -3.2804e+3, 1.7025e+4, -11.1
2.5498e-2, 1.6915e+4, -2.8313e+3, 1.7150e+4, -9.5
2.1047e-2, 1.7005e+4, -2.3349e+3, 1.7164e+4, -7.8
1.7377e-2, 1.7333e+4, -1.9172e+3, 1.7439e+4, -6.3
1.4340e-2, 1.7962e+4, -1.6629e+3, 1.8039e+4, -5.3
1.1837e-2, 1.8696e+4, -1.4378e+3, 1.8751e+4, -4.4
9.7656e-3, 1.9169e+4, -1.1562e+3, 1.9204e+4, -3.5
8.0708e-3, 1.9366e+4, -8.9027e+2, 1.9387e+4, -2.6
